accX,accY,accZ,angleX,angleY,angleZ
-0.17975831,0.37741566,0.6112871,0.029474247,-0.19792034,0.09621128
-0.17975831,0.37741566,0.6112871,0.029474247,-0.19792034,0.09621128
-0.61286914,0.16954994,0.6023531,0.12721269,-0.17898351,0.07360926
-0.61286914,0.16954994,0.6023531,0.12721269,-0.17898351,0.07360926
-0.67146695,0.077358246,0.4267063,0.12843442,-0.10934488,0.15363261
-0.67146695,0.077358246,0.4267063,0.12843442,-0.10934488,0.15363261
-0.47556734,0.24909115,0.19200993,0.08078693,0.06658431,0.20738874
-0.47556734,0.24909115,0.19200993,0.08078693,0.06658431,0.20738874
-0.16984558,0.4973464,-0.4247961,0.03436117,0.19975294,0.19333886
-0.16984558,0.4973464,-0.4247961,0.03436117,0.19975294,0.19333886
-0.42558748,0.28974342,-0.7584152,0.0032070426,0.1001819,0.1432479
-0.42558748,0.28974342,-0.7584152,0.0032070426,0.1001819,0.1432479
-0.6646775,0.1370573,-0.5730705,-0.0346666,0.017715093,0.1328632
-0.6646775,0.1370573,-0.5730705,-0.0346666,0.017715093,0.1328632
-0.8767643,-0.062633514,-0.16659927,-0.059101213,6.11E-04,0.15668693
-0.8767643,-0.062633514,-0.16659927,-0.059101213,6.11E-04,0.15668693
-1.2021267,-0.1438055,-0.087926865,-0.063988134,0.10262536,0.21960606
-1.2021267,-0.1438055,-0.087926865,-0.063988134,0.10262536,0.21960606
-1.2751372,0.013094902,-0.5479307,-0.06337727,0.172264,0.31245756
-1.2751372,0.013094902,-0.5479307,-0.06337727,0.172264,0.31245756
-1.0795054,0.13046741,-0.41641712,-0.07498371,0.09285152,0.37415496
-1.0795054,0.13046741,-0.41641712,-0.07498371,0.09285152,0.37415496
-0.8376815,0.22497177,-0.15580177,-0.09025534,0.032375857,0.3827071
-0.8376815,0.22497177,-0.15580177,-0.09025534,0.032375857,0.3827071
-0.9330257,0.06944227,0.27939606,-0.123242065,0.06414085,0.36682457
-0.9330257,0.06944227,0.27939606,-0.123242065,0.06414085,0.36682457
-1.0071824,-0.018729687,0.7683687,-0.118966006,0.19853121,0.40530908
-1.0071824,-0.018729687,0.7683687,-0.118966006,0.19853121,0.40530908
-1.0897827,-0.04354906,0.50122833,0.011148291,0.344528,0.48899764
-1.0897827,-0.04354906,0.50122833,0.011148291,0.344528,0.48899764
-1.0652907,-0.01603508,-0.29919052,0.13332134,0.39950588,0.6044512
-1.0652907,-0.01603508,-0.29919052,0.13332134,0.39950588,0.6044512
-1.0934764,0.025465012,-0.6770544,0.08323039,0.43860126,0.7370089
-1.0934764,0.025465012,-0.6770544,0.08323039,0.43860126,0.7370089
-1.0399528,0.081606865,-0.9652519,-0.06154467,0.5296202,0.8353582
-1.0399528,0.081606865,-0.9652519,-0.06154467,0.5296202,0.8353582
-0.8132309,0.045188427,-0.9155741,-0.18982637,0.43188173,0.93370754
-0.8132309,0.045188427,-0.9155741,-0.18982637,0.43188173,0.93370754
-0.67279655,-0.02476263,0.17204285,-0.26618454,0.32253686,0.9941832
-0.67279655,-0.02476263,0.17204285,-0.26618454,0.32253686,0.9941832
-0.6288638,-0.3412943,0.57446957,-0.23808473,0.36896262,1.0980303
-0.6288638,-0.3412943,0.57446957,-0.23808473,0.36896262,1.0980303
-0.36740458,-0.43624878,0.5679989,-0.25213462,0.41538838,1.2061534
-0.36740458,-0.43624878,0.5679989,-0.25213462,0.41538838,1.2061534
-0.3613003,-0.39246988,0.4198656,-0.36392298,0.6053675,1.3051136
-0.3613003,-0.39246988,0.4198656,-0.36392298,0.6053675,1.3051136
-0.5691597,-0.4673009,0.32299328,-0.4213443,0.70371675,1.4010195
-0.5691597,-0.4673009,0.32299328,-0.4213443,0.70371675,1.4010195
-0.6135977,-0.54477,0.2756958,-0.34132096,0.6310238,1.5311338
-0.6135977,-0.54477,0.2756958,-0.34132096,0.6310238,1.5311338
-0.63543046,-0.54568887,0.1591835,-0.20021108,0.6310238,1.6551393
-0.63543046,-0.54568887,0.1591835,-0.20021108,0.6310238,1.6551393
-0.80309016,-0.49050498,-0.57477,-0.11407909,0.73792523,1.7608191
-0.80309016,-0.49050498,-0.57477,-0.11407909,0.73792523,1.7608191
-0.70349574,-0.4206481,-0.8269067,-0.1611157,0.82833326,1.8377881
-0.70349574,-0.4206481,-0.8269067,-0.1611157,0.82833326,1.8377881
-0.97003853,-0.6107409,-0.6954222,-0.27412578,0.86315256,1.8683313
-0.97003853,-0.6107409,-0.6954222,-0.27412578,0.86315256,1.8683313
-1.5309995,-1.0230739,0.0038175583,-0.35537085,0.89552844,1.924531
-1.5309995,-1.0230739,0.0038175583,-0.35537085,0.89552844,1.924531
-1.5321535,-0.98996806,-0.0121946335,-0.34254268,0.9999864,2.0546453
-1.5321535,-0.98996806,-0.0121946335,-0.34254268,0.9999864,2.0546453
-2.3376656,-2.0432765,0.26543808,-0.2948952,1.0616838,2.2482896
-2.3376656,-2.0432765,0.26543808,-0.2948952,1.0616838,2.2482896
-2.0063083,-2.1536398,0.53781986,-0.28328875,1.1068878,2.4572055
-2.0063083,-2.1536398,0.53781986,-0.28328875,1.1068878,2.4572055
-2.0040133,-2.6401439,0.20522594,-0.28328875,1.1911873,2.5708263
-2.0040133,-2.6401439,0.20522594,-0.28328875,1.1911873,2.5708263
-2.041554,-3.3069444,0.15708256,-0.45005497,1.1184943,2.7107146
-2.041554,-3.3069444,0.15708256,-0.45005497,1.1184943,2.7107146
-2.3884406,-3.816686,1.3162603,-0.6424775,1.0238101,2.8646526
-2.3884406,-3.816686,1.3162603,-0.6424775,1.0238101,2.8646526
-2.0517564,-4.0833006,2.9547558,-0.5917757,1.0775663,3.0949488
-2.0517564,-4.0833006,2.9547558,-0.5917757,1.0775663,3.0949488
-1.253351,-3.7616448,2.31312,-0.3034473,1.1392636,3.2556064
-1.253351,-3.7616448,2.31312,-0.3034473,1.1392636,3.2556064
-0.8575826,-3.2059674,1.4336214,-0.15622878,1.1233811,3.2366695
-0.8575826,-3.2059674,1.4336214,-0.15622878,1.1233811,3.2366695
-0.67009383,-2.433982,0.991663,-0.16905695,1.2040154,3.1425962
-0.67009383,-2.433982,0.991663,-0.16905695,1.2040154,3.1425962
-0.67009383,-2.433982,0.991663,-0.19715676,1.1368202,2.97583
-0.32165378,-1.7434273,0.8711624,-0.19715676,1.1368202,2.97583
-0.24711919,-1.4778883,1.0653229,-0.25885415,1.0268645,2.7449229
-0.24711919,-1.4778883,1.0653229,-0.25885415,1.0268645,2.7449229
-0.5323534,-1.5565057,2.2018318,-0.41523564,1.0714576,2.5085182
-0.5323534,-1.5565057,2.2018318,-0.41523564,1.0714576,2.5085182
-1.1014565,-1.8524358,3.2689524,-0.42012256,1.219287,2.3533583
-1.1014565,-1.8524358,3.2689524,-0.42012256,1.219287,2.3533583
-1.4276583,-2.23631,2.801548,-0.26618454,1.3292428,2.3099868
-1.4276583,-2.23631,2.801548,-0.26618454,1.3292428,2.3099868
-1.279412,-2.1831708,2.1637402,-0.13362677,1.269378,2.3558018
-1.279412,-2.1831708,2.1637402,-0.13362677,1.269378,2.3558018
-1.02332,-2.0217247,1.6510763,-0.05299256,1.2394456,2.4083362
-1.02332,-2.0217247,1.6510763,-0.05299256,1.2394456,2.4083362
-0.61591136,-1.7790027,1.4675131,0.0056505036,1.2718215,2.422997
-0.61591136,-1.7790027,1.4675131,0.0056505036,1.2718215,2.422997
-0.778375,-1.8122945,0.9598036,0.07040222,1.3249667,2.4077253
-0.778375,-1.8122945,0.9598036,0.07040222,1.3249667,2.4077253
-0.96140623,-1.9640388,0.58520985,0.13942999,1.2382239,2.4217753
-0.96140623,-1.9640388,0.58520985,0.13942999,1.2382239,2.4217753
-1.0608017,-2.0499096,0.14538956,0.15347989,1.0910053,2.4529295
-1.0608017,-2.0499096,0.14538956,0.15347989,1.0910053,2.4529295
-0.72206116,-1.8372848,0.40060616,0.011148291,1.001819,2.4694228
-0.72206116,-1.8372848,0.40060616,0.011148291,1.001819,2.4694228
-0.78731096,-1.8134425,1.1399622,-0.15806139,1.102001,2.4071145
-0.78731096,-1.8134425,1.1399622,-0.15806139,1.102001,2.4071145
-1.120909,-1.8913748,1.0429678,-0.1244638,1.1911873,2.3893993
-1.120909,-1.8913748,1.0429678,-0.1244638,1.1911873,2.3893993
-1.101183,-1.9558814,1.2580338,0.00992656,1.1557571,2.4205534
-1.101183,-1.9558814,1.2580338,0.00992656,1.1557571,2.4205534
-1.0349265,-1.9013917,0.6360655,0.16752979,1.1527027,2.4260514
-1.0349265,-1.9013917,0.6360655,0.16752979,1.1527027,2.4260514
-1.0280287,-1.9673092,0.66764164,0.12904528,1.2504412,2.4016168
-1.0280287,-1.9673092,0.66764164,0.12904528,1.2504412,2.4016168
-1.1003476,-1.1858201,-0.8731804,-0.0786489,1.3286319,2.3295345
-1.1003476,-1.1858201,-0.8731804,-0.0786489,1.3286319,2.3295345
-0.9664407,-1.958772,0.9350014,-0.37858373,1.1313224,2.201253
-0.9664407,-1.958772,0.9350014,-0.37858373,1.1313224,2.201253
-1.0476927,-2.973655,3.6860743,-0.37980548,1.010982,2.1688771
-1.0476927,-2.973655,3.6860743,-0.37980548,1.010982,2.1688771
-1.1354153,-3.4807332,4.0725803,-0.053603426,1.396438,2.3338106
-1.1354153,-3.4807332,4.0725803,-0.053603426,1.396438,2.3338106
-0.5190615,-2.7578917,0.7844858,0.22800545,1.7751744,2.5298984
-0.5190615,-2.7578917,0.7844858,0.22800545,1.7751744,2.5298984
-0.068621516,-2.1050465,-1.6314702,0.19501872,1.681712,2.5885415
-0.068621516,-2.1050465,-1.6314702,0.19501872,1.681712,2.5885415
0.07066965,-1.978519,-1.3965216,-0.11835514,1.1997393,2.5024095
0.07066965,-1.978519,-1.3965216,-0.11835514,1.1997393,2.5024095
-0.12199342,-2.538962,1.3364592,-0.47998735,1.0781772,2.399784
-0.12199342,-2.538962,1.3364592,-0.47998735,1.0781772,2.399784
-0.6857805,-3.504787,2.8625898,-0.5465717,1.2962561,2.4132233
-0.6857805,-3.504787,2.8625898,-0.5465717,1.2962561,2.4132233
-0.53232944,-3.8172545,2.9829931,-0.4017966,1.3469579,2.6013696
-0.53232944,-3.8172545,2.9829931,-0.4017966,1.3469579,2.6013696
0.40531176,-3.7583518,2.361206,-0.21303925,1.2712106,2.784629
0.40531176,-3.7583518,2.361206,-0.21303925,1.2712106,2.784629
0.3861354,-3.7805872,2.3698359,-0.16905695,1.314582,2.8481593
0.3861354,-3.7805872,2.3698359,-0.16905695,1.314582,2.8481593
0.26481098,-3.7729564,0.7563257,-0.2191479,1.4306464,2.9092457
0.26481098,-3.7729564,0.7563257,-0.2191479,1.4306464,2.9092457
0.26119345,-3.78864,0.76375866,-0.2845105,1.4721853,3.0448577
0.26119345,-3.78864,0.76375866,-0.2845105,1.4721853,3.0448577
0.6661341,-3.211734,0.1381464,-0.29550606,1.3903292,3.1230485
0.6661341,-3.211734,0.1381464,-0.29550606,1.3903292,3.1230485
0.6661341,-3.211734,0.1381464,-0.29550606,1.3903292,3.1230485
1.0281116,-2.8431773,-0.037407875,-0.2967278,1.2699889,3.0973923
0.78008825,-2.6752136,0.06163788,-0.40668353,1.1869112,2.9965994
0.78008825,-2.6752136,0.06163788,-0.40668353,1.1869112,2.9965994
0.097175956,-2.8888435,0.98965454,-0.55756724,1.1985176,2.9269607
0.097175956,-2.8888435,0.98965454,-0.55756724,1.1985176,2.9269607
-0.44808924,-3.134538,2.3294897,-0.61010164,1.260215,2.9636128
-0.44808924,-3.134538,2.3294897,-0.61010164,1.260215,2.9636128
-0.63128203,-3.2713275,2.7248993,-0.45921794,1.3536774,3.0589077
-0.63128203,-3.2713275,2.7248993,-0.45921794,1.3536774,3.0589077
-0.6645032,-3.3137484,2.160489,-0.33337972,1.3787229,3.1413746
-0.6645032,-3.3137484,2.160489,-0.33337972,1.3787229,3.1413746
-0.4594261,-3.4586837,1.9963694,-0.31810808,1.3249667,3.1914654
-0.4594261,-3.4586837,1.9963694,-0.31810808,1.3249667,3.1914654
-0.35428816,-3.66146,2.3092632,-0.3669773,1.3347405,3.193298
-0.35428816,-3.66146,2.3092632,-0.3669773,1.3347405,3.193298
-0.8664014,-4.1377134,2.0193987,-0.4213443,1.4776831,3.193298
-0.8664014,-4.1377134,2.0193987,-0.4213443,1.4776831,3.193298
-1.0336137,-4.654741,1.8682594,-0.45738536,1.4269812,3.2623258
-1.0336137,-4.654741,1.8682594,-0.45738536,1.4269812,3.2623258
-0.8539524,-4.988254,2.58743,-0.40668353,1.2308935,3.3808336
-0.8539524,-4.988254,2.58743,-0.40668353,1.2308935,3.3808336
-0.1721856,-4.7238317,2.4338655,-0.3089451,1.2705997,3.4901786
-0.1721856,-4.7238317,2.4338655,-0.3089451,1.2705997,3.4901786
-0.016715407,-4.3190317,1.2723303,-0.24785857,1.4349225,3.5005634
-0.016715407,-4.3190317,1.2723303,-0.24785857,1.4349225,3.5005634
-0.004365504,-3.5214329,0.60042,-0.2228131,1.3408492,3.4370334
-0.004365504,-3.5214329,0.60042,-0.2228131,1.3408492,3.4370334
-0.43277174,-3.0265713,0.52106476,-0.2680171,1.2852604,3.2727106
-0.43277174,-3.0265713,0.52106476,-0.2680171,1.2852604,3.2727106
-0.75494,-2.7506115,1.5101509,-0.3284928,1.142318,3.1151073
-0.75494,-2.7506115,1.5101509,-0.3284928,1.142318,3.1151073
-0.6247498,-2.4118805,2.7588205,-0.24480425,1.0115929,2.9770517
-0.6247498,-2.4118805,2.7588205,-0.24480425,1.0115929,2.9770517
-0.44596905,-2.3333864,2.917099,-0.10919216,1.1362094,2.7369816
-0.44596905,-2.3333864,2.917099,-0.10919216,1.1362094,2.7369816
-0.7080282,-2.5539742,2.93684,-0.15867224,1.3768903,2.5384505
-0.7080282,-2.5539742,2.93684,-0.15867224,1.3768903,2.5384505
-1.2704817,-2.9703567,2.8370857,-0.12935072,1.5167783,2.4486532
-1.2704817,-2.9703567,2.8370857,-0.12935072,1.5167783,2.4486532
-1.3629621,-3.1315107,2.175912,0.019700404,1.518611,2.4614816
-1.3629621,-3.1315107,2.175912,0.019700404,1.518611,2.4614816
-1.1692159,-3.1812692,1.1308594,0.09605856,1.4563028,2.495079
-1.1692159,-3.1812692,1.1308594,0.09605856,1.4563028,2.495079
-0.84797597,-3.1455708,1.0825539,0.05085453,1.4013249,2.5097399
-0.84797597,-3.1455708,1.0825539,0.05085453,1.4013249,2.5097399
-0.8037303,-3.3342888,0.94202614,-0.015118915,1.455081,2.5072963
-0.8037303,-3.3342888,0.94202614,-0.015118915,1.455081,2.5072963
-0.74435735,-3.3575275,0.95761967,-0.13362677,1.5222762,2.5347853
-0.74435735,-3.3575275,0.95761967,-0.13362677,1.5222762,2.5347853
-0.53480566,-3.6071768,1.1941938,-0.16417004,1.4300356,2.5879307
-0.53480566,-3.6071768,1.1941938,-0.16417004,1.4300356,2.5879307
-0.4194103,-3.5641289,1.1936569,-0.084146686,1.3164146,2.6258042
-0.4194103,-3.5641289,1.1936569,-0.084146686,1.3164146,2.6258042
-0.21496862,-3.294549,0.6931057,-0.051159963,1.3127494,2.649628
-0.21496862,-3.294549,0.6931057,-0.051159963,1.3127494,2.649628
-0.014176726,-2.7725272,0.45919323,-0.13607024,1.3536774,2.6239717
-0.014176726,-2.7725272,0.45919323,-0.13607024,1.3536774,2.6239717
0.13515359,-2.329718,0.6787815,-0.18432859,1.2925909,2.5537221
0.13515359,-2.329718,0.6787815,-0.18432859,1.2925909,2.5537221
0.4566117,-2.0790932,1.251296,-0.19349156,1.1893547,2.4468207
0.4566117,-2.0790932,1.251296,-0.19349156,1.1893547,2.4468207
0.35656202,-2.2531838,2.1862822,-0.16172658,1.169807,2.3063216
0.35656202,-2.2531838,2.1862822,-0.16172658,1.169807,2.3063216
-0.09195453,-2.4850457,2.1757593,-0.037110064,1.2504412,2.233018
-0.09195453,-2.4850457,2.1757593,-0.037110064,1.2504412,2.233018
-0.27302223,-2.1688213,0.99596596,0.08078693,1.3628404,2.2715025
-0.27302223,-2.1688213,0.99596596,0.08078693,1.3628404,2.2715025
0.46493834,-1.1195314,-0.43691158,-0.01572978,1.4465289,2.3209825
0.46493834,-1.1195314,-0.43691158,-0.01572978,1.4465289,2.3209825
1.3487359,-0.620837,1.1596651,-0.16233744,0.9981538,2.19209
1.3487359,-0.620837,1.1596651,-0.16233744,0.9981538,2.19209
0.8292073,-0.90701437,2.390296,-0.043829583,1.0751228,1.9990565
0.8292073,-0.90701437,2.390296,-0.043829583,1.0751228,1.9990565
0.3679756,-1.1140473,1.3201189,0.08078693,1.2724323,1.9685133
0.3679756,-1.1140473,1.3201189,0.08078693,1.2724323,1.9685133
0.40958488,-1.1716764,1.3546457,0.10216721,1.1527027,1.9947804
0.40958488,-1.1716764,1.3546457,0.10216721,1.1527027,1.9947804
0.8164027,-0.704129,-0.035214424,-0.06887506,0.9957104,1.9318613
0.8164027,-0.704129,-0.035214424,-0.06887506,0.9957104,1.9318613
0.44889706,-1.0388575,1.4369097,-0.27962357,0.9944886,1.8310685
0.44889706,-1.0388575,1.4369097,-0.27962357,0.9944886,1.8310685
0.031873584,-1.4783573,2.1427298,-0.31566462,1.1233811,1.8115209
0.031873584,-1.4783573,2.1427298,-0.31566462,1.1233811,1.8115209
-0.2716931,-2.0413327,1.6815825,-0.24969117,1.1905763,1.8768835
-0.2716931,-2.0413327,1.6815825,-0.24969117,1.1905763,1.8768835
0.033815265,-2.4009058,1.3463526,-0.23319781,1.1869112,1.9990565
0.033815265,-2.4009058,1.3463526,-0.23319781,1.1869112,1.9990565
0.23578656,-2.5501409,0.9792824,-0.23869559,1.2370021,2.0931299
0.23578656,-2.5501409,0.9792824,-0.23869559,1.2370021,2.0931299
0.12107611,-2.762182,0.3719263,-0.21181752,1.2620476,2.1847596
0.12107611,-2.762182,0.3719263,-0.21181752,1.2620476,2.1847596
0.12899101,-2.774068,-0.29432487,-0.21548271,1.2473868,2.3051
0.12899101,-2.774068,-0.29432487,-0.21548271,1.2473868,2.3051
0.19816077,-2.669591,-0.30993938,-0.29733866,1.1985176,2.4083362
0.19816077,-2.669591,-0.30993938,-0.29733866,1.1985176,2.4083362
0.24175012,-2.524386,0.1965723,-0.3578143,1.1026118,2.4914138
0.24175012,-2.524386,0.1965723,-0.3578143,1.1026118,2.4914138
0.6340866,-2.3040802,0.54244804,-0.377362,1.0445796,2.5384505
0.6340866,-2.3040802,0.54244804,-0.377362,1.0445796,2.5384505
0.3517521,-2.411741,0.95625305,-0.4072944,0.98532563,2.5030203
0.3517521,-2.411741,0.95625305,-0.4072944,0.98532563,2.5030203
-0.2213788,-2.8366206,1.606144,-0.4830417,1.0146471,2.5127943
-0.2213788,-2.8366206,1.606144,-0.4830417,1.0146471,2.5127943
-0.48088646,-2.9591856,2.015273,-0.50503284,1.1417072,2.6154196
-0.48088646,-2.9591856,2.015273,-0.50503284,1.1417072,2.6154196
-0.5148555,-2.9261289,1.9942083,-0.3846924,1.1343768,2.7528641
-0.5148555,-2.9261289,1.9942083,-0.3846924,1.1343768,2.7528641
-0.14233208,-2.4953265,0.96109676,-0.37125334,1.0824533,2.7864618
-0.14233208,-2.4953265,0.96109676,-0.37125334,1.0824533,2.7864618
-0.234168,-2.5678153,0.666667,-0.50991976,1.0824533,2.754086
-0.234168,-2.5678153,0.666667,-0.50991976,1.0824533,2.754086
-0.28210437,-2.9092817,1.6375866,-0.68279463,1.028697,2.7449229
-0.28210437,-2.9092817,1.6375866,-0.68279463,1.028697,2.7449229
-0.6229783,-3.4604084,2.2759905,-0.6247624,1.0647382,2.762638
-0.6229783,-3.4604084,2.2759905,-0.6247624,1.0647382,2.762638
-0.7902923,-3.7759967,1.8120766,-0.45860708,1.1355985,2.8970284
-0.7902923,-3.7759967,1.8120766,-0.45860708,1.1355985,2.8970284
-0.19686908,-3.1245112,0.7437334,-0.29061913,1.1191051,3.0497448
-0.19686908,-3.1245112,0.7437334,-0.29061913,1.1191051,3.0497448
0.5639609,-2.1480627,-0.20849133,-0.1873829,1.0732902,3.029586
0.5639609,-2.1480627,-0.20849133,-0.1873829,1.0732902,3.029586
0.49817932,-1.6376715,-0.51749897,-0.2264783,0.93767816,2.876259
0.49817932,-1.6376715,-0.51749897,-0.2264783,0.93767816,2.876259
0.36034954,-1.3679769,0.13722515,-0.37308595,0.87109387,2.694832
0.36034954,-1.3679769,0.13722515,-0.37308595,0.87109387,2.694832
0.14703968,-1.2723444,1.4775858,-0.47693303,0.8888089,2.5207355
0.14703968,-1.2723444,1.4775858,-0.47693303,0.8888089,2.5207355
0.17674226,-1.1194983,2.119007,-0.40240747,0.8943067,2.3790147
0.17674226,-1.1194983,2.119007,-0.40240747,0.8943067,2.3790147
0.21509501,-0.9932928,2.2774677,-0.2564107,0.874759,2.2244658
0.21509501,-0.9932928,2.2774677,-0.2564107,0.874759,2.2244658
-0.15559068,-1.0871198,2.1192703,-0.15439619,0.88697636,2.0754147
-0.15559068,-1.0871198,2.1192703,-0.15439619,0.88697636,2.0754147
-0.76880884,-1.2976077,2.3523817,-0.16661349,1.010982,1.9898936
-0.76880884,-1.2976077,2.3523817,-0.16661349,1.010982,1.9898936
-1.0686092,-1.5244327,2.3161774,-0.1049161,1.1594223,1.988061
-1.0686092,-1.5244327,2.3161774,-0.1049161,1.1594223,1.988061
-1.0105481,-1.4855235,1.5761738,0.05207626,1.210735,2.03693
-1.0105481,-1.4855235,1.5761738,0.05207626,1.210735,2.03693
-0.8150689,-1.404851,0.117173195,0.1498147,1.2327261,2.087021
-0.8150689,-1.404851,0.117173195,0.1498147,1.2327261,2.087021
-0.49291682,-1.3820627,-0.5084505,0.008093964,1.2394456,2.0912971
-0.49291682,-1.3820627,-0.5084505,0.008093964,1.2394456,2.0912971
-0.33533192,-1.3253281,-0.12112045,-0.10430524,1.1520919,2.0271564
-0.33533192,-1.3253281,-0.12112045,-0.10430524,1.1520919,2.0271564
-0.6828218,-1.593287,0.5495224,-0.08353582,1.0965031,2.0027218
-0.6828218,-1.593287,0.5495224,-0.08353582,1.0965031,2.0027218
-0.93170625,-1.7746751,0.3095827,-0.020616703,1.1111639,2.0302107
-0.93170625,-1.7746751,0.3095827,-0.020616703,1.1111639,2.0302107
-0.9073695,-1.7739146,0.38037682,-0.021838432,1.1191051,2.0882428
-0.9073695,-1.7739146,0.38037682,-0.021838432,1.1191051,2.0882428
-0.6110726,-1.5489335,0.51221657,0.028252518,1.0946705,2.1157317
-0.6110726,-1.5489335,0.51221657,0.028252518,1.0946705,2.1157317
-0.2597968,-1.2662692,0.11274719,0.07651087,1.070236,2.096184
-0.2597968,-1.2662692,0.11274719,0.07651087,1.070236,2.096184
-0.36676663,-1.301857,-0.121795654,0.017256944,1.0647382,2.0204368
-0.36676663,-1.301857,-0.121795654,0.017256944,1.0647382,2.0204368
-0.345968,-1.3303328,-0.106365204,-0.10430524,1.0445796,1.9795089
-0.345968,-1.3303328,-0.106365204,-0.10430524,1.0445796,1.9795089
-0.053928614,-1.7368746,1.269167,-0.27473664,0.9969321,1.9660698
-0.053928614,-1.7368746,1.269167,-0.27473664,0.9969321,1.9660698
-0.0068216324,-2.0262525,2.7193108,-0.23441954,1.0885619,1.9715676
-0.0068216324,-2.0262525,2.7193108,-0.23441954,1.0885619,1.9715676
0.17228812,-1.8289127,1.2558727,0.03313944,1.2712106,2.037541
0.17228812,-1.8289127,1.2558727,0.03313944,1.2712106,2.037541
0.29799187,-1.4153678,-0.678771,0.13576481,1.210124,2.0839667
0.29799187,-1.4153678,-0.678771,0.13576481,1.210124,2.0839667
0.36323023,-1.1746109,-0.6988573,0.0032070426,1.028697,2.0772474
0.36323023,-1.1746109,-0.6988573,0.0032070426,1.028697,2.0772474
0.26791662,-1.2912674,0.22329521,-0.17150041,0.9975429,2.0387628
0.26791662,-1.2912674,0.22329521,-0.17150041,0.9975429,2.0387628
0.11158979,-1.5535715,0.590456,-0.2790127,1.0555751,2.037541
0.11158979,-1.5535715,0.590456,-0.2790127,1.0555751,2.037541
0.41797012,-1.5563853,0.4455204,-0.33643404,1.0225884,2.0857995
0.41797012,-1.5563853,0.4455204,-0.33643404,1.0225884,2.0857995
0.73820764,-1.5680401,0.9741192,-0.44028112,0.89736104,2.0796907
0.73820764,-1.5680401,0.9741192,-0.44028112,0.89736104,2.0796907
0.65723276,-1.8145514,2.1477585,-0.5697846,0.8698721,2.042428
0.65723276,-1.8145514,2.1477585,-0.5697846,0.8698721,2.042428
0.193259,-2.2477365,3.087411,-0.5233588,1.056186,2.104736
0.193259,-2.2477365,3.087411,-0.5233588,1.056186,2.104736
0.120403886,-2.3653066,2.4014425,-0.32788193,1.2119566,2.2537873
0.120403886,-2.3653066,2.4014425,-0.32788193,1.2119566,2.2537873
0.6453575,-1.9389975,1.091115,-0.13973543,1.1722504,2.3973405
0.6453575,-1.9389975,1.091115,-0.13973543,1.1722504,2.3973405
0.6453575,-1.9389975,1.091115,-0.09819659,1.0958922,2.4254405
1.0728897,-1.6627083,0.0823288,-0.09819659,1.0958922,2.4254405
1.3178618,-1.4009016,-0.29353905,-0.21120666,1.0250319,2.3845124
1.3178618,-1.4009016,-0.29353905,-0.21120666,1.0250319,2.3845124
1.1254554,-1.4925106,0.5844946,-0.3529274,0.99204516,2.2996023
1.1254554,-1.4925106,0.5844946,-0.3529274,0.99204516,2.2996023
0.72496414,-1.7728977,1.4121313,-0.34193182,1.0085385,2.2611177
0.72496414,-1.7728977,1.4121313,-0.34193182,1.0085385,2.2611177
0.45670003,-1.8884676,1.4706259,-0.2264783,1.0067059,2.2696698
0.45670003,-1.8884676,1.4706259,-0.2264783,1.0067059,2.2696698
0.59609175,-1.862261,0.94651794,-0.17333302,1.0433578,2.2812762
0.59609175,-1.862261,0.94651794,-0.17333302,1.0433578,2.2812762
0.6490903,-1.8328364,0.89161396,-0.21731532,1.0207558,2.250122
0.6490903,-1.8328364,0.89161396,-0.21731532,1.0207558,2.250122
0.34268093,-1.863127,1.0811529,-0.2582433,1.0641272,2.2073615
0.34268093,-1.863127,1.0811529,-0.2582433,1.0641272,2.2073615
-0.014368117,-2.053012,0.64944553,-0.25152376,1.1246029,2.1878138
-0.014368117,-2.053012,0.64944553,-0.25152376,1.1246029,2.1878138
-0.3330105,-2.1965551,0.39880943,-0.26007587,1.0555751,2.196977
-0.3330105,-2.1965551,0.39880943,-0.26007587,1.0555751,2.196977
-0.5256684,-2.2106085,0.6026602,-0.31016684,0.9627236,2.2311852
-0.5256684,-2.2106085,0.6026602,-0.31016684,0.9627236,2.2311852
-0.31364042,-2.2980585,1.1614971,-0.37858373,0.88270026,2.250122
-0.31364042,-2.2980585,1.1614971,-0.37858373,0.88270026,2.250122
-0.57875323,-2.434116,1.5131292,-0.40668353,0.9034697,2.2269092
-0.57875323,-2.434116,1.5131292,-0.40668353,0.9034697,2.2269092
-0.57875323,-2.434116,1.5131292,-0.40668353,0.9034697,2.2269092
-0.86233306,-2.6033115,1.5787582,-0.37980548,0.94134337,2.2421808
-1.0423317,-2.6907406,1.4931479,-0.23564127,0.87781334,2.296548
-1.0423317,-2.6907406,1.4931479,-0.23564127,0.87781334,2.296548
-0.9695326,-2.4351997,0.69996357,-0.040775254,0.7476991,2.3906212
-0.9695326,-2.4351997,0.69996357,-0.040775254,0.7476991,2.3906212
-0.47582024,-1.7917192,0.20711327,-0.024892759,0.65484756,2.3503041
-0.47582024,-1.7917192,0.20711327,-0.024892759,0.65484756,2.3503041
-0.5053094,-1.5883803,0.57498837,-0.12935072,0.64812803,2.2079725
-0.5053094,-1.5883803,0.57498837,-0.12935072,0.64812803,2.2079725
-0.76165444,-1.669364,1.4170427,-0.22403483,0.73426,2.0528126
-0.76165444,-1.669364,1.4170427,-0.22403483,0.73426,2.0528126
-1.2433994,-1.9778347,1.9092503,-0.23075435,0.84788096,1.9507982
-1.2433994,-1.9778347,1.9092503,-0.23075435,0.84788096,1.9507982
-1.51459,-2.1134167,2.0784588,-0.13545936,0.8729264,1.9416351
-1.51459,-2.1134167,2.0784588,-0.13545936,0.8729264,1.9416351
-1.2326351,-1.9274936,1.4958439,0.011148291,0.8765916,1.9593502
-1.2326351,-1.9274936,1.4958439,0.011148291,0.8765916,1.9593502
-1.0929787,-1.8263705,0.7989731,0.04230242,0.9260717,1.9336939
-1.0929787,-1.8263705,0.7989731,0.04230242,0.9260717,1.9336939
-1.1894033,-1.9183724,0.54808426,-0.045662176,1.0231993,1.8976529
-1.1894033,-1.9183724,0.54808426,-0.045662176,1.0231993,1.8976529
-1.3097017,-2.131741,0.75615025,-0.079870634,1.0531317,1.9068159
-1.3097017,-2.131741,0.75615025,-0.079870634,1.0531317,1.9068159
-1.2264394,-2.2202258,0.8501673,0.013591751,0.9779953,1.9581286
-1.2264394,-2.2202258,0.8501673,0.013591751,0.9779953,1.9581286
-0.847299,-2.0653725,0.19072342,0.10644327,0.9309586,2.0039434
-0.847299,-2.0653725,0.19072342,0.10644327,0.9309586,2.0039434
-0.5071953,-1.830064,-0.32343292,0.011148291,0.91629785,1.9837849
-0.5071953,-1.830064,-0.32343292,0.011148291,0.91629785,1.9837849
-0.41928005,-1.7419667,0.33363628,-0.18310685,0.9334021,1.915368
-0.41928005,-1.7419667,0.33363628,-0.18310685,0.9334021,1.915368
-0.41928005,-1.7419667,0.33363628,-0.20265454,0.86742866,1.8726074
-0.55865717,-1.8163157,1.2096882,-0.20265454,0.86742866,1.8726074
-0.55865717,-1.8163157,1.2096882,-0.06765333,0.8008443,1.8933768
-0.33134145,-1.8360345,1.4120827,-0.06765333,0.8008443,1.8933768
0.09416145,-1.6537542,0.79866505,7.64E-04,0.870483,1.8952094
0.09416145,-1.6537542,0.79866505,7.64E-04,0.870483,1.8952094
0.23043257,-1.4599512,0.042925835,-0.05971208,0.96944314,1.8310685
0.23043257,-1.4599512,0.042925835,-0.05971208,0.96944314,1.8310685
0.35486627,-1.2166152,-0.07013321,-0.19593503,0.88514376,1.7259997
0.35486627,-1.2166152,-0.07013321,-0.19593503,0.88514376,1.7259997
0.21398646,-1.1875658,0.4887848,-0.21853705,0.81306165,1.6368134
0.21398646,-1.1875658,0.4887848,-0.21853705,0.81306165,1.6368134
-0.13415563,-1.4209468,0.7117977,-0.18921551,0.75869465,1.6142114
-0.13415563,-1.4209468,0.7117977,-0.18921551,0.75869465,1.6142114
-0.030496359,-1.5070112,1.358119,-0.1348485,0.7049385,1.6545285
-0.030496359,-1.5070112,1.358119,-0.1348485,0.7049385,1.6545285
0.42033404,-1.2979231,1.5398836,-0.04505131,0.7965683,1.6960673
0.42033404,-1.2979231,1.5398836,-0.04505131,0.7965683,1.6960673
0.5247952,-0.99316144,0.47409153,0.03924809,0.9407325,1.7394388
0.5247952,-0.99316144,0.47409153,0.03924809,0.9407325,1.7394388
1.0004021,-0.37633944,-0.5724125,0.07284568,0.90041536,1.7498235
1.0004021,-0.37633944,-0.5724125,0.07284568,0.90041536,1.7498235
0.99329853,0.03819847,-1.1245828,0.001985312,0.7825184,1.6563611
0.99329853,0.03819847,-1.1245828,0.001985312,0.7825184,1.6563611
0.7066815,0.051929474,-0.6690426,-0.15806139,0.68539083,1.5464053
0.7066815,0.051929474,-0.6690426,-0.15806139,0.68539083,1.5464053
0.5050031,-0.05090761,0.17399311,-0.29978213,0.64996064,1.4566082
0.5050031,-0.05090761,0.17399311,-0.29978213,0.64996064,1.4566082
-0.013423085,-0.42461562,1.019537,-0.4427246,0.72082096,1.393689
-0.013423085,-0.42461562,1.019537,-0.4427246,0.72082096,1.393689
-0.434838,-0.78000546,1.697031,-0.5319109,0.784351,1.416902
-0.434838,-0.78000546,1.697031,-0.5319109,0.784351,1.416902
-0.5390899,-1.086173,2.268752,-0.47571132,0.75319684,1.5103643
-0.5390899,-1.086173,2.268752,-0.3119994,0.7593055,1.6337591
-0.5306449,-1.0304012,2.2441702,-0.3119994,0.7593055,1.6337591
-0.5306449,-1.0304012,2.2441702,-0.3119994,0.7593055,1.6337591
-0.4972666,-1.5928404,1.8149776,-0.16539176,0.90102625,1.7724255
-0.4972666,-1.5928404,1.8149776,-0.16539176,0.90102625,1.7724255
-0.1086331,-1.6021028,0.44386768,-0.08903361,1.0635164,1.9269744
-0.1086331,-1.6021028,0.44386768,-0.08903361,1.0635164,1.9269744
0.14897758,-1.5106797,-0.14037609,-0.08597928,1.0531317,2.0528126
0.14897758,-1.5106797,-0.14037609,-0.08597928,1.0531317,2.0528126
0.55398005,-1.3656447,-0.49617195,-0.032223143,0.9034697,2.1340578
0.55398005,-1.3656447,-0.49617195,-0.032223143,0.9034697,2.1340578
0.6933495,-1.2369549,-0.7099314,-0.041996986,0.784351,2.132225
0.6933495,-1.2369549,-0.7099314,-0.041996986,0.784351,2.132225
0.387281,-1.3077176,-0.370862,-0.17272215,0.8222246,2.0809124
0.387281,-1.3077176,-0.370862,-0.17272215,0.8222246,2.0809124
-0.08750814,-1.4652379,-0.2383995,-0.2771801,0.91629785,2.0680842
-0.08750814,-1.4652379,-0.2383995,-0.2771801,0.91629785,2.0680842
-0.36008227,-1.7426984,0.47387123,-0.32421672,0.82894415,2.0986276
-0.36008227,-1.7426984,0.47387123,-0.32421672,0.82894415,2.0986276
-0.51848227,-2.072165,1.1630888,-0.30405816,0.7684685,2.1529946
-0.51848227,-2.072165,1.1630888,-0.30405816,0.7684685,2.1529946
-0.5865701,-2.2168736,1.1466503,-0.32788193,0.8888089,2.2311852
-0.5865701,-2.2168736,1.1466503,-0.32788193,0.8888089,2.2311852
-0.62183225,-2.0619109,1.0000992,-0.32727104,0.9101892,2.2898283
-0.62183225,-2.0619109,1.0000992,-0.32727104,0.9101892,2.2898283
-0.54955065,-1.9883583,1.1057625,-0.29733866,0.84849185,2.3405302
-0.54955065,-1.9883583,1.1057625,-0.29733866,0.84849185,2.3405302
-0.5385271,-2.0149517,1.2557812,-0.24602598,0.8313876,2.377182
-0.5385271,-2.0149517,1.2557812,-0.182496,0.79534656,2.399784
-0.59818596,-2.3128843,1.1921978,-0.182496,0.79534656,2.399784
-0.59818596,-2.3128843,1.1921978,-0.182496,0.79534656,2.399784
-0.5962235,-2.459078,1.1192064,-0.1788308,0.81306165,2.449875
-0.5962235,-2.459078,1.1192064,-0.1788308,0.81306165,2.449875
-0.3461457,-2.4382217,1.2960796,-0.22708915,0.88270026,2.4828618
-0.3461457,-2.4382217,1.2960796,-0.22708915,0.88270026,2.4828618
-0.43938947,-2.550075,1.3991766,-0.11713341,0.8313876,2.48164
-0.43938947,-2.550075,1.3991766,-0.11713341,0.8313876,2.48164
-0.5835489,-2.620133,0.7728071,0.061850104,0.7348709,2.500577
-0.5835489,-2.620133,0.7728071,0.061850104,0.7348709,2.500577
-0.38799936,-2.399429,0.6083231,0.11438452,0.73914695,2.486527
-0.38799936,-2.399429,0.6083231,0.11438452,0.73914695,2.486527
-0.6353226,-2.3115187,0.14453793,0.0795652,0.7849618,2.427273
-0.6353226,-2.3115187,0.14453793,0.0795652,0.7849618,2.427273
-0.3848165,-1.9219034,0.34061337,-0.012064588,0.72387534,2.3839016
-0.3848165,-1.9219034,0.34061337,-0.012064588,0.72387534,2.3839016
-0.15825813,-1.5247741,0.9458103,-0.079870634,0.6420194,2.2745566
-0.15825813,-1.5247741,0.9458103,-0.079870634,0.6420194,2.2745566
-0.27340543,-1.4023056,1.748311,-0.11346822,0.7147123,2.060143
-0.27340543,-1.4023056,1.748311,-0.11346822,0.7147123,2.060143
-0.5250671,-1.3086121,1.9463091,-0.091477074,0.83199847,1.9428569
-0.5250671,-1.3086121,1.9463091,-0.091477074,0.83199847,1.9428569
-0.5474072,-1.2068496,1.8400621,-0.052381694,0.91507614,1.865277
-0.5474072,-1.2068496,1.8400621,-0.052381694,0.91507614,1.865277
-0.5474072,-1.2068496,1.8400621,-0.052381694,0.91507614,1.865277
-0.5474072,-1.2068496,1.8400621,-0.052381694,0.91507614,1.865277
-0.5474072,-1.2068496,1.8400621,-0.012675454,0.9779953,1.6850718
-0.21786141,-0.88716865,1.1020966,-0.012675454,0.9779953,1.6850718
-0.05288945,-0.8481183,0.8047848,-0.02977968,1.0665708,1.6056592
-0.05288945,-0.8481183,0.8047848,-0.02977968,1.0665708,1.6056592
-0.12907544,-0.8246858,0.2948532,-0.047494773,1.0708468,1.5195273
-0.12907544,-0.8246858,0.2948532,-0.047494773,1.0708468,1.5195273
-0.46524772,-1.0964592,0.4431839,-0.054825157,0.9810496,1.4859297
-0.46524772,-1.0964592,0.4431839,-0.054825157,0.9810496,1.4859297
-0.45139647,-1.2518103,0.58083344,-0.008399397,0.94806284,1.5140295
-0.45139647,-1.2518103,0.58083344,-0.008399397,0.94806284,1.5140295
-0.28136197,-1.2792046,0.11764717,0.039858956,0.9859365,1.5476271
-0.28136197,-1.2792046,0.11764717,0.039858956,0.9859365,1.5476271
-0.10110265,-1.1936371,-0.21184635,0.04596761,0.91324353,1.5683966
-0.10110265,-1.1936371,-0.21184635,0.04596761,0.91324353,1.5683966
-0.08671719,-1.2320309,-0.0027484894,0.08078693,0.81306165,1.575116
-0.08671719,-1.2320309,-0.0027484894,0.08078693,0.81306165,1.575116
-0.22129607,-1.3029854,-0.4385147,0.16264287,0.75869465,1.5806139
-0.22129607,-1.3029854,-0.4385147,0.16264287,0.75869465,1.5806139
-0.2128641,-1.3489902,-0.41713142,0.12415836,0.75991637,1.5995506
-0.2128641,-1.3489902,-0.41713142,0.12415836,0.75991637,1.5995506
-0.59703267,-1.2261853,-1.4433355,-0.063988134,0.7098254,1.6520851
-0.59703267,-1.2261853,-1.4433355,-0.063988134,0.7098254,1.6520851
0.14828047,-0.99688315,-0.13675213,-0.31138855,0.54367006,1.6814066
0.14828047,-0.99688315,-0.13675213,-0.31138855,0.54367006,1.6814066
0.38283515,-1.0295486,1.946063,-0.43295074,0.4202753,1.642922
0.38283515,-1.0295486,1.946063,-0.43295074,0.4202753,1.642922
0.31206164,-1.1708851,3.2649279,-0.23808473,0.42943826,1.6313156
0.31206164,-1.1708851,3.2649279,-0.23808473,0.42943826,1.6313156
0.53783554,-0.9165976,1.5185328,0.19440787,0.6762278,1.6948457
0.53783554,-0.9165976,1.5185328,0.19440787,0.6762278,1.6948457
0.85294783,-0.473068,-0.35739326,0.21700987,0.68416905,1.6972891
0.85294783,-0.473068,-0.35739326,0.21700987,0.68416905,1.6972891
0.911957,-0.37463164,-0.24923134,0.08384126,0.6188065,1.6453656
0.911957,-0.37463164,-0.24923134,0.08384126,0.6188065,1.6453656
1.1669976,-0.10761213,0.24983692,-0.06582073,0.6640105,1.5421293
1.1669976,-0.10761213,0.24983692,-0.06582073,0.6640105,1.5421293
0.9141917,-0.2283597,0.44087982,-0.15561792,0.7507534,1.4156802
0.9141917,-0.2283597,0.44087982,-0.15561792,0.7507534,1.4156802
0.57887924,-0.39196706,0.514637,-0.17516561,0.6786713,1.3393221
0.57887924,-0.39196706,0.514637,-0.17516561,0.6786713,1.3393221
0.5857473,-0.37021327,0.5050497,-0.19898935,0.5864306,1.3020593
0.5857473,-0.37021327,0.5050497,-0.19898935,0.5864306,1.3020593
0.08171442,-0.92720723,1.7999315,-0.22220223,0.6401868,1.3154984
0.08171442,-0.92720723,1.7999315,-0.22220223,0.6401868,1.3154984
-0.112419456,-1.1014011,1.9837923,-0.19837849,0.8136725,1.3716979
-0.112419456,-1.1014011,1.9837923,-0.19837849,0.8136725,1.3716979
-0.05914867,-1.1348295,1.3896904,-0.11346822,0.9230174,1.4706581
-0.05914867,-1.1348295,1.3896904,-0.11346822,0.9230174,1.4706581
0.48769543,-1.0177662,0.6298418,-0.0035124752,0.84604836,1.5592335
0.48769543,-1.0177662,0.6298418,-0.0035124752,0.84604836,1.5592335
0.88658965,-0.8429229,0.724679,0.04352415,0.7476991,1.57084
0.88658965,-0.8429229,0.724679,0.04352415,0.7476991,1.57084
0.69759023,-0.8770778,0.80076504,0.08445212,0.7788532,1.5476271
0.69759023,-0.8770778,0.80076504,0.08445212,0.7788532,1.5476271
0.5281961,-0.83148694,0.29630566,0.08323039,0.8588765,1.570229
0.5281961,-0.83148694,0.29630566,0.08323039,0.8588765,1.570229
0.553031,-0.8604667,0.3111143,0.03313944,0.8680395,1.5940529
0.553031,-0.8604667,0.3111143,0.02031127,0.8405506,1.6013832
0.23004699,-0.98318076,0.20065308,0.02031127,0.8405506,1.6013832
0.23004699,-0.98318076,0.20065308,0.02031127,0.8405506,1.6013832
0.09590149,-1.0889978,0.20241451,0.019089539,0.8503244,1.63437
0.09590149,-1.0889978,0.20241451,0.019089539,0.8503244,1.63437
-0.07863867,-1.1153221,0.1943245,0.0056505036,0.88453287,1.6716328
-0.07863867,-1.1153221,0.1943245,0.0056505036,0.88453287,1.6716328
-0.0577873,-1.135746,0.20542145,-0.04444045,0.947452,1.7394388
-0.0577873,-1.135746,0.20542145,-0.04444045,0.947452,1.7394388
-0.45654345,-1.0328786,-0.3942299,-0.14156802,0.91629785,1.8096883
-0.45654345,-1.0328786,-0.3942299,-0.14156802,0.91629785,1.8096883
-0.588701,-1.165503,0.04628563,-0.24174993,0.82650065,1.8573358
-0.588701,-1.165503,0.04628563,-0.24174993,0.82650065,1.8573358
-0.6561136,-1.3696887,0.48712254,-0.34254268,0.788627,1.9080375
-0.6561136,-1.3696887,0.48712254,-0.34254268,0.788627,1.9080375
-0.588937,-1.56885,1.6749735,-0.45188758,0.7837401,1.9495764
-0.588937,-1.56885,1.6749735,-0.45188758,0.7837401,1.9495764
-0.588937,-1.56885,1.6749735,-0.37186423,0.8668178,2.006387
-0.8679697,-1.9001591,2.4596138,-0.37186423,0.8668178,2.006387
-1.2391225,-2.2065225,1.8120432,-0.15500705,0.89919364,2.1181753
-1.2391225,-2.2065225,1.8120432,-0.15500705,0.89919364,2.1181753
-0.9008994,-2.240259,0.5972271,1.53E-04,0.870483,2.25562
-0.9008994,-2.240259,0.5972271,1.53E-04,0.870483,2.25562
-0.61765486,-2.0745225,-0.2023201,0.0056505036,0.8338311,2.3252585
-0.61765486,-2.0745225,-0.2023201,0.0056505036,0.8338311,2.3252585
-0.17707044,-1.7881839,-0.19475746,-0.04810564,0.8051204,2.3533583
-0.17707044,-1.7881839,-0.19475746,-0.04810564,0.8051204,2.3533583
0.47456798,-1.1609445,-0.022024155,-0.040775254,0.8216137,2.3057108
0.47456798,-1.1609445,-0.022024155,-0.040775254,0.8216137,2.3057108
0.8173989,-0.5277064,-0.6372309,0.0154243475,0.7495316,2.1365013
0.8173989,-0.5277064,-0.6372309,0.0154243475,0.7495316,2.1365013
0.41399822,-0.30528378,-0.70338535,-0.056046885,0.60231316,1.8829921
0.41399822,-0.30528378,-0.70338535,-0.056046885,0.60231316,1.8829921
0.0044241548,-0.47659945,0.13566017,-0.24358252,0.54550266,1.6539177
0.0044241548,-0.47659945,0.13566017,-0.24358252,0.54550266,1.6539177
-0.48195645,-0.70715,1.8746786,-0.4072944,0.6365216,1.5012014
-0.48195645,-0.70715,1.8746786,-0.4072944,0.6365216,1.5012014
-0.9879173,-0.96541214,2.9383144,-0.313832,0.7892379,1.4223998
-0.9879173,-0.96541214,2.9383144,-0.313832,0.7892379,1.4223998
-0.9289324,-0.85250163,1.9047031,0.020922136,0.8491027,1.4309518
-0.9289324,-0.85250163,1.9047031,0.020922136,0.8491027,1.4309518
-0.5681806,-0.53839517,0.21083736,0.22311853,0.83199847,1.4358387
-0.5681806,-0.53839517,0.21083736,0.22311853,0.83199847,1.4358387
-0.55328137,-0.51985455,-0.7078066,0.17730364,0.86437434,1.3814718
-0.55328137,-0.51985455,-0.7078066,0.17730364,0.86437434,1.3814718
-0.9230053,-0.68884087,-0.40807152,-0.0010690142,0.8503244,1.3564262
-0.9230053,-0.68884087,-0.40807152,-0.0010690142,0.8503244,1.3564262
-0.8577833,-0.7110324,0.40098095,-0.034055736,0.8051204,1.3979651
-0.8577833,-0.7110324,0.40098095,-0.034055736,0.8051204,1.3979651
-0.52677447,-0.7529173,0.49876118,0.029474247,0.8020661,1.4144585
-0.52677447,-0.7529173,0.49876118,0.029474247,0.8020661,1.4144585
-0.518882,-0.7933917,0.23267746,0.03924809,0.8051204,1.4022411
-0.518882,-0.7933917,0.23267746,0.03924809,0.8051204,1.4022411
-0.70185196,-0.80499077,-0.36957455,0.056963183,0.8167268,1.3918564
-0.70185196,-0.80499077,-0.36957455,0.056963183,0.8167268,1.3918564
-0.90378296,-0.8243618,-0.8626652,0.04046982,0.7470882,1.421178
-0.90378296,-0.8243618,-0.8626652,0.04046982,0.7470882,1.421178
-0.7017989,-0.60866237,-0.41512585,0.02275473,0.63224554,1.4773777
-0.7017989,-0.60866237,-0.41512585,0.02275473,0.63224554,1.4773777
-0.31716263,-0.05938101,-0.34055614,0.02275473,0.60903263,1.4767667
-0.31716263,-0.05938101,-0.34055614,0.02275473,0.60903263,1.4767667
0.029947817,0.39341593,-0.7946911,-0.11102476,0.6133087,1.3820826
0.029947817,0.39341593,-0.7946911,-0.11102476,0.6133087,1.3820826
0.06446415,0.016566277,0.74396324,-0.42012256,0.5320636,1.2159272
0.06446415,0.016566277,0.74396324,-0.42012256,0.5320636,1.2159272
-0.25408638,-0.93195367,3.9981003,-0.50442195,0.49846604,1.1267409
-0.25408638,-0.93195367,3.9981003,-0.50442195,0.49846604,1.1267409
-0.85223114,-1.4440434,4.2593985,-0.098807454,0.8582657,1.221425
-0.85223114,-1.4440434,4.2593985,-0.098807454,0.8582657,1.221425
-0.51459056,-1.1059089,0.07840443,0.3819435,1.2137892,1.4407257
-0.51459056,-1.1059089,0.07840443,0.3819435,1.2137892,1.4407257
-0.14717412,-0.59419703,-3.0108547,0.36850446,1.106277,1.566564
-0.14717412,-0.59419703,-3.0108547,0.36850446,1.106277,1.566564
0.46446648,-0.017200947,-2.489337,0.0013744468,0.8197812,1.5604553
0.46446648,-0.017200947,-2.489337,0.0013744468,0.8197812,1.5604553
0.015743077,-0.4081421,-0.18553734,-0.29428434,0.6609562,1.4242324
0.015743077,-0.4081421,-0.18553734,-0.29428434,0.6609562,1.4242324
-0.6347759,-1.1155436,0.8855362,-0.33399057,0.7012733,1.4114041
-0.6347759,-1.1155436,0.8855362,-0.33399057,0.7012733,1.4114041
-0.4601975,-1.2794447,1.0186005,-0.29367346,0.67073005,1.5732834
-0.4601975,-1.2794447,1.0186005,-0.29367346,0.67073005,1.5732834
-0.47784477,-1.2512774,1.0034847,-0.3388775,0.6621779,1.6545285
-0.47784477,-1.2512774,1.0034847,-0.3388775,0.6621779,1.6545285
-0.071995854,-1.5026891,2.246831,-0.35231653,0.82527894,1.6917913
-0.071995854,-1.5026891,2.246831,-0.35231653,0.82527894,1.6917913
-0.21971947,-1.6610293,2.0697012,-0.23441954,0.98837996,1.7876972
-0.21971947,-1.6610293,2.0697012,-0.23441954,0.98837996,1.7876972
0.1076355,-1.4858053,0.93749714,-0.06154467,1.0170907,1.9092593
0.1076355,-1.4858053,0.93749714,-0.06154467,1.0170907,1.9092593
0.4311134,-1.3302581,-0.1387577,-0.0022907446,0.9761627,1.9691241
0.4311134,-1.3302581,-0.1387577,-0.0022907446,0.9761627,1.9691241
0.61535037,-1.3559844,-0.3873129,-0.03772093,0.9059132,2.006387
0.61535037,-1.3559844,-0.3873129,-0.03772093,0.9059132,2.006387
0.6046169,-1.3789418,-0.37751293,-0.1330159,0.88208944,1.9953914
0.6046169,-1.3789418,-0.37751293,-0.1330159,0.88208944,1.9953914
0.9196052,-1.1939731,-0.38945007,-0.28695396,0.9621128,1.9318613
0.9196052,-1.1939731,-0.38945007,-0.34437528,0.9957104,1.9226984
0.20182824,-1.4475987,0.8235636,-0.34437528,0.9957104,1.9226984
0.20182824,-1.4475987,0.8235636,-0.34437528,0.9957104,1.9226984
0.03548968,-1.5685322,1.1123495,-0.22586742,0.96577793,1.9850066
0.03548968,-1.5685322,1.1123495,-0.22586742,0.96577793,1.9850066
0.15633929,-1.3143892,0.5762358,-0.10919216,0.9669997,2.0399845
0.15633929,-1.3143892,0.5762358,-0.10919216,0.9669997,2.0399845
0.16269141,-1.2666082,-0.05342388,-0.15928312,1.0048733,2.0289888
0.16269141,-1.2666082,-0.05342388,-0.15928312,1.0048733,2.0289888
-0.34961098,-1.7474484,0.6773596,-0.2967278,0.9804387,1.9978348
-0.34961098,-1.7474484,0.6773596,-0.2967278,0.9804387,1.9978348
-0.9952579,-2.1805372,1.0869303,-0.32055154,1.0183123,2.0454822
-0.9952579,-2.1805372,1.0869303,-0.32055154,1.0183123,2.0454822
-1.3204007,-2.3454387,0.58808994,-0.27290404,1.0128145,2.1908681
-1.3204007,-2.3454387,0.58808994,-0.27290404,1.0128145,2.1908681
-0.7387662,-2.1169171,0.18015862,-0.30466905,0.8943067,2.3283129
-0.7387662,-2.1169171,0.18015862,-0.30466905,0.8943067,2.3283129
-0.3754562,-2.1280909,1.1549425,-0.4689918,0.8381071,2.3417518
-0.3754562,-2.1280909,1.1549425,-0.4689918,0.8381071,2.3417518
-0.9185774,-2.587164,1.7435608,-0.48609602,0.9230174,2.313652
-0.9185774,-2.587164,1.7435608,-0.48609602,0.9230174,2.313652
-1.1945498,-2.7032266,0.756629,-0.2680171,0.8900307,2.4205534
-1.1945498,-2.7032266,0.756629,-0.2680171,0.8900307,2.4205534
-1.1238127,-2.3630004,0.1366291,-0.16783522,0.71837753,2.4987442
-1.1238127,-2.3630004,0.1366291,-0.16783522,0.71837753,2.4987442
-0.5056539,-1.710556,0.6488342,-0.18555032,0.5510005,2.5042422
-0.5056539,-1.710556,0.6488342,-0.18555032,0.5510005,2.5042422
0.31656274,-1.0756721,1.7396564,-0.23380867,0.6114761,2.3625214
0.31656274,-1.0756721,1.7396564,-0.23380867,0.6114761,2.3625214
0.27081022,-0.97063494,2.181882,-0.21059579,0.70371675,2.1267273
0.27081022,-0.97063494,2.181882,-0.21059579,0.70371675,2.1267273
-0.34362602,-1.2436662,2.4047194,-0.13423763,0.752586,1.9453003
-0.34362602,-1.2436662,2.4047194,-0.13423763,0.752586,1.9453003
-0.59903145,-1.4017327,1.8691587,-0.015118915,0.86620694,1.8823812
-0.59903145,-1.4017327,1.8691587,-0.015118915,0.86620694,1.8823812
-0.5274411,-1.4648128,0.89116,0.056352317,0.9272934,1.8396207
-0.5274411,-1.4648128,0.89116,0.056352317,0.9272934,1.8396207
-0.43833506,-1.3391593,0.46547508,0.028252518,0.9425651,1.7828102
-0.43833506,-1.3391593,0.46547508,0.028252518,0.9425651,1.7828102
-0.5853946,-1.186327,-0.053077698,-0.005955936,1.0012082,1.715615
-0.5853946,-1.186327,-0.053077698,-0.005955936,1.0012082,1.715615
-0.8881145,-1.1660876,-0.5230675,-0.075594574,1.006095,1.6600263
-0.8881145,-1.1660876,-0.5230675,-0.075594574,1.006095,1.6600263
-1.1435659,-1.2360938,-0.12231159,-0.14828753,0.9016371,1.6288722
-1.1435659,-1.2360938,-0.12231159,-0.14828753,0.9016371,1.6288722
-1.4065834,-1.5386353,0.46710587,-0.15989397,0.81489426,1.6441438
-1.4065834,-1.5386353,0.46710587,-0.15989397,0.81489426,1.6441438
-1.1894481,-1.5663109,0.7086506,-0.1611157,0.8362745,1.7253889
-1.1894481,-1.5663109,0.7086506,-0.1611157,0.8362745,1.7253889
-0.81811714,-1.3891413,0.55333614,-0.150731,0.90408057,1.7944167
-0.81811714,-1.3891413,0.55333614,-0.150731,0.90408057,1.7944167
-0.593674,-1.1055398,0.18234444,-0.13790283,0.9230174,1.815186
-0.593674,-1.1055398,0.18234444,-0.13790283,0.9230174,1.815186
-0.57480234,-1.1060462,0.18411541,-0.11591168,0.84482664,1.8145752
-0.57480234,-1.1060462,0.18411541,-0.11591168,0.84482664,1.8145752
-0.5404518,-0.87194943,0.5265436,-0.069485925,0.7318166,1.851838
-0.5404518,-0.87194943,0.5265436,-0.069485925,0.7318166,1.851838
-0.23248917,-0.51412106,0.29970074,-0.008399397,0.74036866,1.8664987
-0.23248917,-0.51412106,0.29970074,-0.008399397,0.74036866,1.8664987
0.19354749,-0.3563354,-0.03507805,-0.14401148,0.7305948,1.7944167
0.19354749,-0.3563354,-0.03507805,-0.14401148,0.7305948,1.7944167
0.36398736,-0.80416703,1.7493362,-0.3126103,0.6963864,1.674687
0.36398736,-0.80416703,1.7493362,-0.3126103,0.6963864,1.674687
0.07251054,-1.5155957,3.1921968,-0.18555032,0.83077675,1.6551393
0.07251054,-1.5155957,3.1921968,-0.18555032,0.83077675,1.6551393
-0.26459467,-1.6782644,2.0842094,0.14859296,1.0677924,1.7687603
-0.26459467,-1.6782644,2.0842094,0.14859296,1.0677924,1.7687603
-0.022554457,-1.1808543,-0.85206413,0.3471242,1.1050552,1.9049833
-0.022554457,-1.1808543,-0.85206413,0.3471242,1.1050552,1.9049833
0.24217969,-0.53636765,-2.2246094,0.1956296,0.9126327,1.9263636
0.24217969,-0.53636765,-2.2246094,0.1956296,0.9126327,1.9263636
0.23498261,-0.5857732,-2.2019863,-0.1085813,0.75991637,1.8701639
0.23498261,-0.5857732,-2.2019863,-0.1085813,0.75991637,1.8701639
0.3829732,-0.34883928,0.07905483,-0.30589077,0.7348709,1.7626517
0.3829732,-0.34883928,0.07905483,-0.30589077,0.7348709,1.7626517
0.2091062,-0.8166485,0.93621635,-0.36942077,0.7287622,1.7162259
0.2091062,-0.8166485,0.93621635,-0.36942077,0.7287622,1.7162259
0.42392325,-1.0116012,1.8538609,-0.38530326,0.6908886,1.7345519
0.42392325,-1.0116012,1.8538609,-0.38530326,0.6908886,1.7345519
0.25687537,-1.3110645,2.337757,-0.322995,0.7458665,1.7357736
0.25687537,-1.3110645,2.337757,-0.322995,0.7458665,1.7357736
-0.16529983,-1.5578227,2.1318607,-0.2350304,0.9034697,1.7919732
-0.16529983,-1.5578227,2.1318607,-0.2350304,0.9034697,1.7919732
-0.21735686,-1.5614038,1.1891727,-0.12873985,1.0629056,1.9043725
-0.21735686,-1.5614038,1.1891727,-0.12873985,1.0629056,1.9043725
-0.18125546,-1.5690656,1.195693,-0.03894266,1.0861185,2.0124955
-0.18125546,-1.5690656,1.195693,-0.03894266,1.0861185,2.0124955
0.239739,-1.261399,-0.41168785,0.016646078,0.97127575,2.087021
0.239739,-1.261399,-0.41168785,0.016646078,0.97127575,2.087021
0.2353254,-1.2965066,-0.39597797,0.03191771,0.8399397,2.129171
0.2353254,-1.2965066,-0.39597797,0.03191771,0.8399397,2.129171
0.4837207,-1.1247478,-0.45694256,-0.04627304,0.8155051,2.1316142
0.4837207,-1.1247478,-0.45694256,-0.04627304,0.8155051,2.1316142
0.36468768,-1.2228875,0.059741974,-0.24969117,0.9468411,2.1108449
0.36468768,-1.2228875,0.059741974,-0.24969117,0.9468411,2.1108449
0.20287019,-1.4072783,1.0295486,-0.26984972,0.93767816,2.1200078
0.20287019,-1.4072783,1.0295486,-0.26984972,0.93767816,2.1200078
-0.09017134,-1.6861429,1.3864756,-0.10919216,0.9254609,2.164601
-0.09017134,-1.6861429,1.3864756,-0.10919216,0.9254609,2.164601
-0.30159026,-1.6323004,0.3990984,-0.0022907446,0.99265605,2.237294
-0.30159026,-1.6323004,0.3990984,-0.0022907446,0.99265605,2.237294
-0.4112501,-1.5204489,-0.7501955,-0.08353582,1.03786,2.2580633
-0.4112501,-1.5204489,-0.7501955,-0.08353582,1.03786,2.2580633
-0.8824347,-1.6326551,-0.8666911,-0.3755294,1.0164797,2.2495112
-0.8824347,-1.6326551,-0.8666911,-0.3755294,1.0164797,2.2495112
-1.1472263,-2.122025,0.93147755,-0.5710063,0.8784242,2.2989914
-1.1472263,-2.122025,0.93147755,-0.5710063,0.8784242,2.2989914
-1.1539981,-2.610124,2.3983192,-0.5355761,0.8051204,2.3753495
-1.1539981,-2.610124,2.3983192,-0.5355761,0.8051204,2.3753495
-1.4213573,-2.9887686,2.4991693,-0.33643404,0.86376345,2.4871378
-1.4213573,-2.9887686,2.4991693,-0.33643404,0.86376345,2.4871378
-1.4213573,-2.9887686,2.4991693,-0.13362677,0.9114109,2.6288586
-1.3508795,-2.8155103,0.766593,-0.13362677,0.9114109,2.6288586
-1.1562731,-2.44263,-0.24048424,-0.122020334,0.78801614,2.703995
-1.1562731,-2.44263,-0.24048424,-0.122020334,0.78801614,2.703995
-1.1416402,-2.151237,0.6561556,-0.19715676,0.6059783,2.6758952
-1.1416402,-2.151237,0.6561556,-0.19715676,0.6059783,2.6758952
-0.7770237,-1.7888386,1.8377905,-0.17516561,0.61575216,2.627637
-0.7770237,-1.7888386,1.8377905,-0.17516561,0.61575216,2.627637
-0.5126977,-1.4673493,1.6010103,-0.05971208,0.74281216,2.5066855
-0.5126977,-1.4673493,1.6010103,-0.05971208,0.74281216,2.5066855
-0.3542524,-1.3236101,1.0455647,-0.07742717,0.83260936,2.3362541
-0.3542524,-1.3236101,1.0455647,-0.07742717,0.83260936,2.3362541
-0.37859002,-1.3090456,1.0387506,-0.1947133,0.9089675,2.1578815
-0.37859002,-1.3090456,1.0387506,-0.1947133,0.9089675,2.1578815
-1.4083292,-1.9368103,2.3151083,-0.18127427,1.006095,2.0809124
-1.4083292,-1.9368103,2.3151083,-0.18127427,1.006095,2.0809124
-1.1081622,-1.8635008,1.9548864,0.0038179078,1.0311406,2.1041253
-1.1081622,-1.8635008,1.9548864,0.0038179078,1.0311406,2.1041253
-0.62125695,-1.5327244,1.0684662,0.13698652,1.0940597,2.0980167
-0.62125695,-1.5327244,1.0684662,0.13698652,1.0940597,2.0980167
-0.47583938,-1.3814609,0.12146282,0.12782355,1.2064588,1.9898936
-0.47583938,-1.3814609,0.12146282,0.12782355,1.2064588,1.9898936
-0.54166824,-1.3899038,-0.3670988,0.04352415,1.1960741,1.8976529
-0.54166824,-1.3899038,-0.3670988,0.04352415,1.1960741,1.8976529
-1.0213251,-1.5660107,-0.48209476,-0.05665775,1.0543534,1.8310685
-1.0213251,-1.5660107,-0.48209476,-0.05665775,1.0543534,1.8310685
-1.2485847,-1.9122398,0.7035227,-0.15317446,0.9645562,1.8463402
-1.2485847,-1.9122398,0.7035227,-0.15317446,0.9645562,1.8463402
-1.0818938,-1.9257882,1.6786003,-0.08964448,0.94989544,1.9049833
-1.0818938,-1.9257882,1.6786003,-0.08964448,0.94989544,1.9049833
-0.7220184,-1.777827,1.0717134,0.019089539,1.0274754,1.951409
-0.7220184,-1.777827,1.0717134,0.019089539,1.0274754,1.951409
-0.3455506,-1.5392632,0.44796562,1.53E-04,1.0403035,1.9434677
-0.3455506,-1.5392632,0.44796562,1.53E-04,1.0403035,1.9434677
-0.27418125,-1.4354665,0.29658508,-0.05177083,0.96883225,1.8976529
-0.27418125,-1.4354665,0.29658508,-0.05177083,0.96883225,1.8976529
-0.41363502,-1.631769,0.95232105,-0.07192938,0.90285885,1.8579466
-0.41363502,-1.631769,0.95232105,-0.07192938,0.90285885,1.8579466
-0.14564222,-1.4990332,1.0504112,0.018478673,0.89552844,1.8805487
-0.14564222,-1.4990332,1.0504112,0.018478673,0.89552844,1.8805487
0.09949893,-1.0128036,0.029530525,0.116217114,0.88208944,1.8506162
0.09949893,-1.0128036,0.029530525,0.116217114,0.88208944,1.8506162
0.34763798,-0.79754996,-0.6730213,0.0025961774,0.86498517,1.7638733
0.34763798,-0.79754996,-0.6730213,0.0025961774,0.86498517,1.7638733
0.3582212,-1.0600505,0.71791553,-0.21548271,0.8026769,1.6288722
0.3582212,-1.0600505,0.71791553,-0.21548271,0.8026769,1.6288722
-0.18632352,-1.540472,1.9108219,-0.18982637,0.8576548,1.5769486
-0.18632352,-1.540472,1.9108219,-0.18982637,0.8576548,1.5769486
-0.2540933,-1.4704671,0.95059586,0.08078693,0.9981538,1.6655241
-0.2540933,-1.4704671,0.95059586,0.08078693,0.9981538,1.6655241
-0.16106397,-1.0796528,-1.3421698,0.27687466,0.95356065,1.743104
-0.16106397,-1.0796528,-1.3421698,0.27687466,0.95356065,1.743104
-0.016828954,-0.70400095,-1.5743475,0.1601994,0.7360926,1.752267
-0.016828954,-0.70400095,-1.5743475,0.1601994,0.7360926,1.752267
0.111297786,-0.35854816,-0.81133366,-0.09941832,0.698219,1.6966782
0.111297786,-0.35854816,-0.81133366,-0.09941832,0.698219,1.6966782
-0.06241262,-0.3715365,0.35724068,-0.4072944,0.79412484,1.5763378
-0.06241262,-0.3715365,0.35724068,-0.4072944,0.79412484,1.5763378
-0.31868714,-0.7614751,1.9210196,-0.52519137,0.79229224,1.5280794
-0.31868714,-0.7614751,1.9210196,-0.52519137,0.79229224,1.5280794
-0.3988917,-1.124587,3.1173058,-0.49098295,0.79779,1.5561792
-0.3988917,-1.124587,3.1173058,-0.49098295,0.79779,1.5561792
-0.51895267,-1.5239179,3.2308903,-0.3529274,0.9443977,1.6471981
-0.51895267,-1.5239179,3.2308903,-0.3529274,0.9443977,1.6471981
-0.36590862,-1.68312,2.0809212,-0.24297164,1.1233811,1.7876972
-0.36590862,-1.68312,2.0809212,-0.24297164,1.1233811,1.7876972
-0.40745217,-1.8181536,1.3864613,-0.21242839,1.1795808,1.9398025
-0.40745217,-1.8181536,1.3864613,-0.21242839,1.1795808,1.9398025
-0.19665962,-1.8488669,0.6615782,-0.0926988,1.1545353,2.1169536
-0.19665962,-1.8488669,0.6615782,-0.0926988,1.1545353,2.1169536
0.20955354,-1.7411861,-0.28341675,0.0025961774,1.0555751,2.2568417
0.20955354,-1.7411861,-0.28341675,0.0025961774,1.0555751,2.2568417
0.6818967,-1.6378961,-0.8037996,-0.04444045,0.979217,2.331978
0.6818967,-1.6378961,-0.8037996,-0.04444045,0.979217,2.331978
0.8144569,-1.6107483,-0.56548595,-0.16966783,0.9101892,2.3301454
0.8144569,-1.6107483,-0.56548595,-0.16966783,0.9101892,2.3301454
0.3057385,-2.0033822,0.4178152,-0.26557365,0.8900307,2.313652
0.3057385,-2.0033822,0.4178152,-0.26557365,0.8900307,2.313652
-0.062395453,-2.279043,0.8680754,-0.26923886,0.906524,2.3582454
-0.062395453,-2.279043,0.8680754,-0.26923886,0.906524,2.3582454
-0.049235106,-2.2720072,0.5929756,-0.26740626,0.93462384,2.4254405
-0.049235106,-2.2720072,0.5929756,-0.26740626,0.93462384,2.4254405
-0.0015033484,-2.156324,0.60846424,-0.3565926,0.91874135,2.459038
-0.0015033484,-2.156324,0.60846424,-0.3565926,0.91874135,2.459038
-0.033180177,-2.0605578,1.7159166,-0.46471575,0.93767816,2.4645357
-0.033180177,-2.0605578,1.7159166,-0.46471575,0.93767816,2.4645357
-0.26828957,-2.2099714,1.8679104,-0.38591412,0.9896017,2.4663684
-0.26828957,-2.2099714,1.8679104,-0.38591412,0.9896017,2.4663684
-0.28188813,-2.343256,1.4059906,-0.2826779,0.9505063,2.4956899
-0.28188813,-2.343256,1.4059906,-0.2826779,0.9505063,2.4956899
-0.34470713,-2.6691616,1.3968449,-0.27412578,0.96883225,2.5341744
-0.34470713,-2.6691616,1.3968449,-0.27412578,0.96883225,2.5341744
-0.1560129,-2.6692367,0.8781357,-0.24419338,1.0403035,2.5879307
-0.1560129,-2.6692367,0.8781357,-0.24419338,1.0403035,2.5879307
0.13921875,-2.1440039,0.48472214,-0.1910481,1.0207558,2.5964828
0.13921875,-2.1440039,0.48472214,-0.1910481,1.0207558,2.5964828
0.13207471,-1.7525892,-0.39231586,-0.1226312,0.93767816,2.5164595
0.13207471,-1.7525892,-0.39231586,-0.1226312,0.93767816,2.5164595
-0.33611274,-1.5736318,-0.523756,-0.18921551,0.82527894,2.4193318
-0.33611274,-1.5736318,-0.523756,-0.18921551,0.82527894,2.4193318
-0.49937105,-1.3496306,0.25876045,-0.25579983,0.70432764,2.3564126
-0.49937105,-1.3496306,0.25876045,-0.25579983,0.70432764,2.3564126
-0.33833057,-1.1221068,0.9882269,-0.23869559,0.66156703,2.2849414
-0.33833057,-1.1221068,0.9882269,-0.23869559,0.66156703,2.2849414
-0.40731943,-1.1109319,1.1560812,-0.2264783,0.72509706,2.165212
-0.40731943,-1.1109319,1.1560812,-0.2264783,0.72509706,2.165212
-0.7132895,-1.2476883,1.4919138,-0.23564127,0.79901177,2.0583105
-0.7132895,-1.2476883,1.4919138,-0.23564127,0.79901177,2.0583105
-1.2010841,-1.5050259,1.6975775,-0.14462234,0.81122905,2.0112739
-1.2010841,-1.5050259,1.6975775,-0.14462234,0.81122905,2.0112739
-1.2645745,-1.6594703,1.5426788,-0.0022907446,0.8173377,2.05098
-1.2645745,-1.6594703,1.5426788,-0.0022907446,0.8173377,2.05098
-0.885057,-1.4045625,0.97156715,0.075289145,0.88514376,2.0992384
-0.885057,-1.4045625,0.97156715,0.075289145,0.88514376,2.0992384
-0.55505604,-1.138665,0.2690115,0.065515295,0.9486737,2.0625865
-0.55505604,-1.138665,0.2690115,0.065515295,0.9486737,2.0625865
-0.79353297,-1.1434181,-0.08764267,0.006872234,0.9309586,1.9856175
-0.79353297,-1.1434181,-0.08764267,0.006872234,0.9309586,1.9856175
-0.9738488,-1.2599614,0.15453815,-0.045662176,0.82894415,1.9385809
-0.9738488,-1.2599614,0.15453815,-0.045662176,0.82894415,1.9385809
-0.9857343,-1.3745804,0.7464514,-0.082924955,0.79534656,1.919644
-0.9857343,-1.3745804,0.7464514,-0.082924955,0.79534656,1.919644
-1.1163473,-1.6058185,1.2186279,-0.06582073,0.8368854,1.9098701
-1.1163473,-1.6058185,1.2186279,-0.06582073,0.8368854,1.9098701
-1.1871464,-1.8075228,1.0284882,-0.012675454,0.9077458,1.9226984
-1.1871464,-1.8075228,1.0284882,-0.012675454,0.9077458,1.9226984
-0.8917058,-1.645385,0.7895107,-0.016340645,0.9663888,1.9453003
-0.8917058,-1.645385,0.7895107,-0.016340645,0.9663888,1.9453003
-0.64843357,-1.5487454,0.73087597,0.028252518,0.9254609,1.9068159
-0.64843357,-1.5487454,0.73087597,0.028252518,0.9254609,1.9068159
-0.68585473,-1.6937556,0.71768,0.12293663,0.89980453,1.8689423
-0.68585473,-1.6937556,0.71768,0.12293663,0.89980453,1.8689423
-0.60525113,-1.7560971,0.1656189,0.1516473,0.956615,1.8695531
-0.60525113,-1.7560971,0.1656189,0.1516473,0.956615,1.8695531
-0.31867754,-1.5129571,-0.15206814,0.1638646,0.9266826,1.8555032
-0.31867754,-1.5129571,-0.15206814,0.1638646,0.9266826,1.8555032
-0.3045118,-1.5614309,-0.12919712,0.094225965,0.84482664,1.8011361
-0.3045118,-1.5614309,-0.12919712,0.094225965,0.84482664,1.8011361
0.201747,-1.2248116,0.54670334,-0.11957687,0.7819075,1.707063
0.201747,-1.2248116,0.54670334,-0.11957687,0.7819075,1.707063
0.0268991,-1.5698466,2.3515024,-0.13179417,0.8790351,1.6490307
0.0268991,-1.5698466,2.3515024,-0.13179417,0.8790351,1.6490307
-0.2957827,-1.6610165,1.4687977,0.18280143,1.0384709,1.7015651
-0.2957827,-1.6610165,1.4687977,0.18280143,1.0384709,1.7015651
-0.2957827,-1.6610165,1.4687977,0.34101552,1.0097603,1.8090774
-0.15551102,-1.0867853,-1.267704,0.34101552,1.0097603,1.8090774
-0.15551102,-1.0867853,-1.267704,0.08506299,0.8686504,1.8438967
0.17546839,-0.46624064,-1.8190436,0.08506299,0.8686504,1.8438967
-0.01889366,-0.33618116,-0.62323284,-0.27107146,0.8680395,1.7486018
-0.01889366,-0.33618116,-0.62323284,-0.27107146,0.8680395,1.7486018
0.032380283,-0.26364517,1.5697632,-0.5111415,0.87109387,1.6985108
0.032380283,-0.26364517,1.5697632,-0.5111415,0.87109387,1.6985108
-0.2584545,-0.84206796,2.863923,-0.43967026,0.874759,1.6533068
-0.2584545,-0.84206796,2.863923,-0.43967026,0.874759,1.6533068
-0.5229731,-1.4958699,3.4825907,-0.27046058,0.8875872,1.7314975
-0.5229731,-1.4958699,3.4825907,-0.27046058,0.8875872,1.7314975
-0.42406815,-1.7670186,2.5442772,-0.10552697,1.0549643,1.8860464
-0.42406815,-1.7670186,2.5442772,-0.10552697,1.0549643,1.8860464
-0.13830608,-1.7189198,1.4911165,-0.056046885,1.1899655,2.0503693
-0.13830608,-1.7189198,1.4911165,-0.00290161,1.241889,2.1847596
0.16551042,-1.5689578,0.4939661,-0.00290161,1.241889,2.1847596
0.16551042,-1.5689578,0.4939661,-0.00290161,1.241889,2.1847596
0.33570015,-1.4857514,-0.54724216,0.044745877,1.2131784,2.2745566
0.33570015,-1.4857514,-0.54724216,0.044745877,1.2131784,2.2745566
0.35583794,-1.5318062,-0.5233412,0.0050396384,1.1270463,2.3295345
0.35583794,-1.5318062,-0.5233412,0.0050396384,1.1270463,2.3295345
0.6687322,-1.4552124,-1.0823002,-0.08536842,1.0238101,2.3429737
0.6687322,-1.4552124,-1.0823002,-0.08536842,1.0238101,2.3429737
0.6429335,-1.4753592,-1.0752363,-0.18860464,0.89736104,2.355191
0.6429335,-1.4753592,-1.0752363,-0.18860464,0.89736104,2.355191
0.5588304,-1.5249465,0.56607246,-0.28145617,0.9388999,2.3600779
0.5588304,-1.5249465,0.56607246,-0.28145617,0.9388999,2.3600779
0.19893575,-1.7841897,1.4004021,-0.34193182,1.0482447,2.3649647
0.19893575,-1.7841897,1.4004021,-0.34193182,1.0482447,2.3649647
-0.032142162,-2.0824616,1.9390011,-0.2576324,1.1026118,2.4156666
-0.032142162,-2.0824616,1.9390011,-0.2576324,1.1026118,2.4156666
-0.16207391,-2.2053018,1.5707436,-0.07192938,1.1007792,2.4938574
-0.16207391,-2.2053018,1.5707436,-0.037110064,1.1093313,2.559831
-0.012835503,-1.9961035,0.48114586,-0.037110064,1.1093313,2.559831
-0.012835503,-1.9961035,0.48114586,-0.037110064,1.1093313,2.559831
-0.03786987,-2.0193527,0.49021816,-0.18677205,1.0671816,2.5427265
-0.03786987,-2.0193527,0.49021816,-0.18677205,1.0671816,2.5427265
-0.026942909,-1.6692102,1.2383175,-0.3810272,1.0903945,2.449875
-0.026942909,-1.6692102,1.2383175,-0.3810272,1.0903945,2.449875
-0.49515027,-2.2483535,2.3068619,-0.45799622,1.0928379,2.3985624
-0.49515027,-2.2483535,2.3068619,-0.45799622,1.0928379,2.3985624
-0.8148181,-2.9596002,3.0039644,-0.3474296,1.056186,2.4217753
-0.8148181,-2.9596002,3.0039644,-0.3474296,1.056186,2.4217753
-0.9926354,-3.3814933,2.1204624,-0.16600263,1.1630874,2.514016
-0.9926354,-3.3814933,2.1204624,-0.16600263,1.1630874,2.514016
-0.521663,-3.1635928,0.56992626,-0.072540246,1.205848,2.6325238
-0.521663,-3.1635928,0.56992626,-0.072540246,1.205848,2.6325238
-0.29307842,-2.909238,-0.06601238,-0.06337727,1.1386528,2.6520715
-0.29307842,-2.909238,-0.06601238,-0.06337727,1.1386528,2.6520715
-0.8195138,-2.8666182,-0.22610092,-0.04138612,1.0317514,2.622139
-0.8195138,-2.8666182,-0.22610092,-0.04138612,1.0317514,2.622139
-0.83220863,-2.5451667,-0.26842213,0.019700404,0.84238315,2.6477954
-0.83220863,-2.5451667,-0.26842213,0.019700404,0.84238315,2.6477954
-0.16734254,-1.7501421,0.092918396,0.038026363,0.6365216,2.6288586
-0.16734254,-1.7501421,0.092918396,0.038026363,0.6365216,2.6288586
0.32779184,-1.2374959,0.56767464,-0.07803804,0.6365216,2.4553728
0.32779184,-1.2374959,0.56767464,-0.07803804,0.6365216,2.4553728
0.245478,-1.2247033,0.5579605,-0.27962357,0.72387534,2.1242838
0.245478,-1.2247033,0.5579605,-0.27962357,0.72387534,2.1242838
-0.80654377,-1.5810382,2.9068365,-0.26068676,0.7501425,1.9691241
-0.80654377,-1.5810382,2.9068365,-0.26068676,0.7501425,1.9691241
-1.4061384,-1.9079826,3.2953148,-0.07192938,0.8533788,1.9025398
-1.4061384,-1.9079826,3.2953148,-0.07192938,0.8533788,1.9025398
-1.6269608,-2.1574697,2.5807953,0.09728029,1.0054842,1.9446895
-1.6269608,-2.1574697,2.5807953,0.09728029,1.0054842,1.9446895
-0.89523494,-1.8673296,1.2791262,0.18402316,1.0848967,2.0015
-0.89523494,-1.8673296,1.2791262,0.18402316,1.0848967,2.0015
-0.36552185,-1.545263,0.42855263,0.18952094,1.0922271,1.9465221
-0.36552185,-1.545263,0.42855263,0.18952094,1.0922271,1.9465221
-0.614518,-1.6260879,-0.20451832,0.14126259,1.074512,1.8493946
-0.614518,-1.6260879,-0.20451832,0.14126259,1.074512,1.8493946
-1.0965514,-1.9133196,-0.19285297,0.0795652,1.024421,1.8170186
-1.0965514,-1.9133196,-0.19285297,0.0795652,1.024421,1.8170186
-1.034104,-1.9988179,0.04932499,0.088728175,0.9651671,1.8671097
-1.034104,-1.9988179,0.04932499,0.088728175,0.9651671,1.8671097
-0.4630911,-1.7632463,-0.27902985,0.08200866,0.8943067,1.8915442
-0.4630911,-1.7632463,-0.27902985,0.08200866,0.8943067,1.8915442
-0.24375644,-1.545043,-0.18253708,-0.01695151,0.88025683,1.8255708
-0.24375644,-1.545043,-0.18253708,-0.01695151,0.88025683,1.8255708
-0.6180501,-1.5940211,0.0680809,-0.091477074,0.88331115,1.7406605
-0.6180501,-1.5940211,0.0680809,-0.091477074,0.88331115,1.7406605
-1.2008952,-1.5943754,0.5291729,-0.08353582,0.82894415,1.733941
-1.2008952,-1.5943754,0.5291729,-0.08353582,0.82894415,1.733941
-1.2095845,-1.5935657,0.5283966,-0.015118915,0.80939645,1.7724255
-1.2095845,-1.5935657,0.5283966,-0.015118915,0.80939645,1.7724255
-0.8764201,-1.5323706,-0.14072609,-0.18677205,0.8142834,1.7229455
-0.8764201,-1.5323706,-0.14072609,-0.18677205,0.8142834,1.7229455
-1.0595245,-2.2360132,2.5523548,-0.4989242,0.8246681,1.6814066
-1.0595245,-2.2360132,2.5523548,-0.4989242,0.8246681,1.6814066
-1.0534047,-2.155936,2.5131702,-0.36575556,1.0103711,1.7864754
-1.0534047,-2.155936,2.5131702,-0.36575556,1.0103711,1.7864754
-0.53923416,-1.8405914,1.4837303,0.22861631,1.2754866,2.006387
-0.53923416,-1.8405914,1.4837303,0.22861631,1.2754866,2.006387
-0.088359475,-0.9794941,-1.5118041,0.30741793,1.1887437,2.087632
-0.088359475,-0.9794941,-1.5118041,0.30741793,1.1887437,2.087632
0.23499028,-0.39098215,-2.2638202,0.016035212,0.9578367,2.0491474
0.23499028,-0.39098215,-2.2638202,0.016035212,0.9578367,2.0491474
0.32799107,-0.26130056,-0.08379173,-0.3950771,0.83077675,1.9446895
0.32799107,-0.26130056,-0.08379173,-0.3950771,0.83077675,1.9446895
0.025998265,-0.8025279,2.2918663,-0.5539021,0.8668178,1.8573358
0.025998265,-0.8025279,2.2918663,-0.5539021,0.8668178,1.8573358
0.16190705,-1.149173,3.857273,-0.3736968,0.9224065,1.8811595
0.16190705,-1.149173,3.857273,-0.3736968,0.9224065,1.8811595
0.16086918,-1.4340909,3.1365528,-0.024892759,0.9993755,1.947133
0.16086918,-1.4340909,3.1365528,-0.024892759,0.9993755,1.947133
0.3123964,-1.3497152,1.4857016,0.12110403,1.073901,2.0076087
0.3123964,-1.3497152,1.4857016,0.12110403,1.073901,2.0076087
0.24106376,-1.2379489,0.5970421,0.069791354,1.1563679,2.0479257
0.24106376,-1.2379489,0.5970421,0.069791354,1.1563679,2.0479257
0.2697909,-1.1738484,0.20236492,0.030695979,1.2198979,2.0796907
0.2697909,-1.1738484,0.20236492,0.030695979,1.2198979,2.0796907
0.09987736,-1.242245,-0.15680408,0.078343466,1.1545353,2.1206186
0.09987736,-1.242245,-0.15680408,0.078343466,1.1545353,2.1206186
-0.074403584,-1.43225,-0.6239433,0.10094548,1.0262536,2.1847596
-0.074403584,-1.43225,-0.6239433,0.10094548,1.0262536,2.1847596
0.1605258,-1.3985486,-0.3533802,0.020922136,0.9272934,2.2586741
0.1605258,-1.3985486,-0.3533802,0.020922136,0.9272934,2.2586741
0.12269145,-1.4192228,-0.34521103,-0.08109236,0.93401295,2.2629502
0.12269145,-1.4192228,-0.34521103,-0.08109236,0.93401295,2.2629502
-0.058143973,-1.4766083,0.5126362,-0.17516561,1.0684034,2.2244658
-0.058143973,-1.4766083,0.5126362,-0.17516561,1.0684034,2.2244658
-0.33994126,-1.6628702,0.5863695,-0.20082195,1.1349876,2.2495112
-0.33994126,-1.6628702,0.5863695,-0.20082195,1.1349876,2.2495112
-0.44539532,-1.914958,0.80578613,-0.1769982,1.1215485,2.3063216
-0.44539532,-1.914958,0.80578613,-0.1769982,1.1215485,2.3063216
-0.52321213,-2.1074598,0.7282953,-0.13912456,1.1801916,2.3649647
-0.52321213,-2.1074598,0.7282953,-0.118966006,1.2657127,2.4193318
-0.5566016,-2.229101,0.4123001,-0.118966006,1.2657127,2.4193318
-0.5566016,-2.229101,0.4123001,-0.118966006,1.2657127,2.4193318
-0.8257363,-2.6196601,0.4716997,-0.15012014,1.2718215,2.4877486
-0.8257363,-2.6196601,0.4716997,-0.15012014,1.2718215,2.4877486
-1.0520675,-2.5655637,0.46309376,-0.18188512,1.3359623,2.577546
-1.0520675,-2.5655637,0.46309376,-0.18188512,1.3359623,2.577546
-1.0176611,-2.2295148,0.24782181,-0.15745051,1.3182472,2.6887233
-1.0176611,-2.2295148,0.24782181,-0.15745051,1.3182472,2.6887233
-0.32953998,-1.9447632,-0.039712906,-0.18066339,1.1685852,2.7058277
-0.32953998,-1.9447632,-0.039712906,-0.18066339,1.1685852,2.7058277
0.041095853,-2.151035,0.7668562,-0.34254268,1.0085385,2.5909848
0.041095853,-2.151035,0.7668562,-0.34254268,1.0085385,2.5909848
-0.9057301,-3.0235379,2.1308289,-0.5148067,1.0940597,2.4853053
-0.9057301,-3.0235379,2.1308289,-0.5148067,1.0940597,2.4853053
-1.9064697,-3.679926,2.3536835,-0.399964,1.205848,2.598926
-1.9064697,-3.679926,2.3536835,-0.399964,1.205848,2.598926
-1.3103282,-3.0738173,1.1478138,-0.15806139,1.1117748,2.7742445
-1.3103282,-3.0738173,1.1478138,-0.15806139,1.1117748,2.7742445
-0.57528865,-2.2427444,0.060642242,-0.12629639,0.9828822,2.73576
-0.57528865,-2.2427444,0.060642242,-0.12629639,0.9828822,2.73576
-0.43892816,-1.9002111,0.410038,-0.3303254,0.9059132,2.5329528
-0.43892816,-1.9002111,0.410038,-0.3303254,0.9059132,2.5329528
-0.6994084,-2.0835156,2.423048,-0.549626,0.9456194,2.3429737
-0.6994084,-2.0835156,2.423048,-0.549626,0.9456194,2.3429737
-1.0038891,-2.3321133,3.404149,-0.49770245,1.1129965,2.2421808
-1.0038891,-2.3321133,3.404149,-0.49770245,1.1129965,2.2421808
-1.0648062,-2.3412771,3.2154207,-0.26374108,1.1771374,2.223855
-1.0648062,-2.3412771,3.2154207,-0.26374108,1.1771374,2.223855
-0.77338445,-2.0742707,2.1797523,-0.0041233404,1.110553,2.2134702
-0.77338445,-2.0742707,2.1797523,-0.0041233404,1.110553,2.2134702
-0.84128475,-1.9184248,1.2528362,0.08017606,1.0958922,2.159714
-0.84128475,-1.9184248,1.2528362,0.08017606,1.0958922,2.159714
-0.7784742,-1.7442145,1.3653383,0.008093964,1.128879,2.1389446
-0.7784742,-1.7442145,1.3653383,0.008093964,1.128879,2.1389446
-0.5061106,-1.5784302,1.9524536,0.011148291,1.1490375,2.1041253
-0.5061106,-1.5784302,1.9524536,0.011148291,1.1490375,2.1041253
-0.6068087,-1.6876504,1.7538862,0.16997325,1.1221595,2.0485365
-0.6068087,-1.6876504,1.7538862,0.16997325,1.1221595,2.0485365
-0.31897503,-1.7995284,0.97080517,0.29458976,1.0555751,2.0247128
-0.31897503,-1.7995284,0.97080517,0.29458976,1.0555751,2.0247128
0.12320933,-1.80421,0.5213566,0.20234911,1.0690142,1.9636264
0.12320933,-1.80421,0.5213566,0.20234911,1.0690142,1.9636264
-0.15729237,-1.9861972,0.50618744,0.037415497,1.1759156,1.8793269
-0.15729237,-1.9861972,0.50618744,0.037415497,1.1759156,1.8793269
-0.43359095,-2.0302694,0.7252054,-0.013897184,1.1704178,1.8805487
-0.43359095,-2.0302694,0.7252054,-0.013897184,1.1704178,1.8805487
-0.39275992,-1.9841425,0.4952097,0.12843442,1.0488557,1.92392
-0.39275992,-1.9841425,0.4952097,0.12843442,1.0488557,1.92392
-0.1627543,-1.7645869,-0.051379204,0.24938573,0.9639453,1.9318613
-0.1627543,-1.7645869,-0.051379204,0.24938573,0.9639453,1.9318613
-0.16356373,-1.6348245,-0.7418537,0.20173825,0.9596693,1.8823812
-0.16356373,-1.6348245,-0.7418537,0.20173825,0.9596693,1.8823812
-0.15362787,-1.6856792,-0.71613884,0.025198191,0.96883225,1.8084666
-0.15362787,-1.6856792,-0.71613884,0.025198191,0.96883225,1.8084666
-0.53265464,-1.2565553,-0.2104311,-0.12996158,0.8735373,1.7327193
-0.53265464,-1.2565553,-0.2104311,-0.12996158,0.8735373,1.7327193
-0.6768333,-1.1587708,0.8838825,-0.17944166,0.8051204,1.7253889
-0.6768333,-1.1587708,0.8838825,-0.17944166,0.8051204,1.7253889
-0.15612108,-1.2372773,1.9364529,-0.19165897,0.820392,1.7272215
-0.15612108,-1.2372773,1.9364529,-0.19165897,0.820392,1.7272215
-0.049647033,-1.407392,2.8474855,-0.14095716,0.9425651,1.7052304
-0.049647033,-1.407392,2.8474855,-0.14095716,0.9425651,1.7052304
-0.30832654,-1.4695086,1.6502209,0.06490443,1.1753048,1.7400496
-0.30832654,-1.4695086,1.6502209,0.06490443,1.1753048,1.7400496
-0.14188325,-1.1100152,-0.6985197,0.18829921,1.1960741,1.8231273
-0.14188325,-1.1100152,-0.6985197,0.088728175,0.96944314,1.8487836
-0.19949704,-1.0164824,-0.9845381,0.088728175,0.96944314,1.8487836
-0.19949704,-1.0164824,-0.9845381,0.088728175,0.96944314,1.8487836
-0.20043302,-1.0509567,-0.96701527,-0.123242065,0.92057395,1.8646661
-0.20043302,-1.0509567,-0.96701527,-0.123242065,0.92057395,1.8646661
-0.06908494,-1.2042277,0.87388897,-0.25030205,0.9841039,1.8677205
-0.06908494,-1.2042277,0.87388897,-0.25030205,0.9841039,1.8677205
-0.14203525,-1.4500809,1.4614267,-0.28389964,0.9309586,1.8829921
-0.14203525,-1.4500809,1.4614267,-0.28389964,0.9309586,1.8829921
0.004668534,-1.5829997,2.0703392,-0.27107146,0.87964594,1.947133
0.004668534,-1.5829997,2.0703392,-0.27107146,0.87964594,1.947133
0.06632966,-1.7030113,2.2713041,-0.20998493,1.0195341,1.9929478
0.06632966,-1.7030113,2.2713041,-0.20998493,1.0195341,1.9929478
-0.22821522,-1.7380064,1.20292,-0.11102476,1.2394456,2.0607538
-0.22821522,-1.7380064,1.20292,-0.11102476,1.2394456,2.0607538
-0.35951495,-1.8423297,-0.0907259,-0.040775254,1.2266175,2.1798725
-0.35951495,-1.8423297,-0.0907259,-0.040775254,1.2266175,2.1798725
-0.187136,-1.8485363,-0.38187218,-0.050549097,1.0958922,2.2983804
-0.187136,-1.8485363,-0.38187218,-0.050549097,1.0958922,2.2983804
-0.187136,-1.8485363,-0.38187218,-0.08353582,1.0360274,2.3857343
0.06806862,-1.7788708,-0.056796074,-0.08353582,1.0360274,2.3857343
0.033514023,-1.7992141,-0.04955864,-0.13057245,1.0250319,2.405282
0.033514023,-1.7992141,-0.04955864,-0.13057245,1.0250319,2.405282
0.5609084,-1.3576229,-0.07727909,-0.21181752,1.0140363,2.3258693
0.5609084,-1.3576229,-0.07727909,-0.26007587,1.0268645,2.3118196
-0.22117609,-1.6587663,1.0699034,-0.26007587,1.0268645,2.3118196
-0.22117609,-1.6587663,1.0699034,-0.26007587,1.0268645,2.3118196
-0.38873512,-1.8431761,1.601222,-0.22464569,1.0720685,2.3790147
-0.38873512,-1.8431761,1.601222,-0.22464569,1.0720685,2.3790147
-0.3398022,-1.8310196,1.113019,-0.13912456,1.1276573,2.4449883
-0.3398022,-1.8310196,1.113019,-0.13912456,1.1276573,2.4449883
-0.19996583,-1.6882412,0.81249905,-0.16233744,1.128879,2.4791965
-0.19996583,-1.6882412,0.81249905,-0.16233744,1.128879,2.4791965
-0.15640825,-1.7190158,1.2018175,-0.22708915,1.138042,2.4914138
-0.15640825,-1.7190158,1.2018175,-0.22708915,1.138042,2.4914138
-0.34705967,-1.7680032,1.5309439,-0.23625213,1.1801916,2.5152376
-0.34705967,-1.7680032,1.5309439,-0.23625213,1.1801916,2.5152376
-0.36264592,-1.754924,1.5231781,-0.21120666,1.251052,2.5622742
-0.36264592,-1.754924,1.5231781,-0.21120666,1.251052,2.5622742
-0.31481057,-1.7036488,0.7078943,-0.24113905,1.2290609,2.5848763
-0.31481057,-1.7036488,0.7078943,-0.24113905,1.2290609,2.5848763
-0.2771958,-1.9138889,0.99127865,-0.3352123,1.1563679,2.576935
-0.2771958,-1.9138889,0.99127865,-0.3352123,1.1563679,2.576935
-0.41166198,-2.477109,1.5597115,-0.42439863,1.169807,2.5573874
-0.41166198,-2.477109,1.5597115,-0.42439863,1.169807,2.5573874
-0.76132894,-3.0728352,2.071126,-0.4280638,1.2443326,2.5891523
-0.76132894,-3.0728352,2.071126,-0.4280638,1.2443326,2.5891523
-1.0981733,-3.3240733,1.4977894,-0.15439619,1.2333369,2.7284296
-1.0981733,-3.3240733,1.4977894,-0.15439619,1.2333369,2.7284296
-1.2889827,-3.2047486,-0.100551605,0.11988231,1.0861185,2.866485
-1.2889827,-3.2047486,-0.100551605,0.11988231,1.0861185,2.866485
-1.0678273,-2.4850755,-0.93602467,0.13698652,0.83077675,2.931237
-1.0678273,-2.4850755,-0.93602467,0.13698652,0.83077675,2.931237
-0.42207727,-1.7110188,-0.8993759,-0.049938235,0.7654142,2.8823676
-0.42207727,-1.7110188,-0.8993759,-0.049938235,0.7654142,2.8823676
0.17696911,-1.2086174,0.5663004,-0.3119994,0.729984,2.68628
0.17696911,-1.2086174,0.5663004,-0.3119994,0.729984,2.68628
0.17696911,-1.2086174,0.5663004,-0.33582318,0.7110472,2.4174993
-0.0014238954,-1.3622465,2.6229248,-0.33582318,0.7110472,2.4174993
-0.4044722,-1.5560377,3.2934065,-0.14034629,0.8222246,2.259896
-0.4044722,-1.5560377,3.2934065,-0.14034629,0.8222246,2.259896
-0.47452977,-1.3629351,2.4705086,0.045356743,0.98899084,2.1725423
-0.47452977,-1.3629351,2.4705086,0.045356743,0.98899084,2.1725423
-0.47963703,-1.1924133,1.4597168,0.11133019,1.1221595,2.0619757
-0.47963703,-1.1924133,1.4597168,0.11133019,1.1221595,2.0619757
-0.6240236,-1.0941675,0.7279835,0.11071932,1.2284501,1.9532416
-0.6240236,-1.0941675,0.7279835,0.11071932,1.2284501,1.9532416
-0.97940725,-1.1293194,0.045306206,0.09972375,1.2889256,1.8396207
-0.97940725,-1.1293194,0.045306206,0.09972375,1.2889256,1.8396207
-1.2055786,-1.222513,-0.40533924,0.05024367,1.3005321,1.783421
-1.2055786,-1.222513,-0.40533924,0.05024367,1.3005321,1.783421
-0.98675746,-1.2328737,-0.08267498,-0.01450805,1.1893547,1.7534887
-0.98675746,-1.2328737,-0.08267498,-0.01450805,1.1893547,1.7534887
-0.97218394,-1.392096,0.5253086,-0.071318515,1.146594,1.7046194
-0.97218394,-1.392096,0.5253086,-0.071318515,1.146594,1.7046194
-1.2548654,-1.7984662,0.9843569,-0.07009678,1.1643091,1.7107282
-1.2548654,-1.7984662,0.9843569,-0.07009678,1.1643091,1.7107282
-1.1175046,-1.89431,1.1255951,0.0050396384,1.1319333,1.7907515
-1.1175046,-1.89431,1.1255951,0.0050396384,1.1319333,1.7907515
-0.62217873,-1.585737,0.7026491,0.088728175,1.0983357,1.8536706
-0.62217873,-1.585737,0.7026491,0.088728175,1.0983357,1.8536706
-0.47087914,-1.3507166,0.4369774,0.09911288,1.0598512,1.8322903
-0.47087914,-1.3507166,0.4369774,0.09911288,1.0598512,1.8322903
-0.44306174,-1.3800936,0.45317936,0.06856962,1.073901,1.7553213
-0.44306174,-1.3800936,0.45317936,0.06856962,1.073901,1.7553213
-0.6400711,-0.9624386,-0.52562046,-0.02611449,1.0213667,1.6569719
-0.6400711,-0.9624386,-0.52562046,-0.02611449,1.0213667,1.6569719
-0.7899385,-1.4064622,0.6523485,-0.25213462,0.9272934,1.6233743
-0.7899385,-1.4064622,0.6523485,-0.25213462,0.9272934,1.6233743
-0.68896395,-1.9708648,2.6716871,-0.32727104,1.0158689,1.642922
-0.68896395,-1.9708648,2.6716871,-0.32727104,1.0158689,1.642922
-0.7896105,-2.2471793,2.3807192,-0.0926988,1.2241739,1.7235563
-0.7896105,-2.2471793,2.3807192,-0.0926988,1.2241739,1.7235563
-0.644887,-2.02276,0.41073704,0.14309518,1.2644911,1.8726074
-0.644887,-2.02276,0.41073704,0.14309518,1.2644911,1.8726074
-0.3353423,-1.4419446,-1.5379128,0.1815797,1.2034045,1.9550742
-0.3353423,-1.4419446,-1.5379128,0.1815797,1.2034045,1.9550742
-0.18894744,-1.0352492,-1.9927578,-0.034055736,1.1221595,1.983174
-0.18894744,-1.0352492,-1.9927578,-0.034055736,1.1221595,1.983174
-0.18466258,-0.91388345,-0.7904663,-0.24358252,0.9578367,1.9483547
-0.18466258,-0.91388345,-0.7904663,-0.24358252,0.9578367,1.9483547
-0.16826534,-1.0256476,0.34781933,-0.35720345,0.956615,1.9263636
-0.16826534,-1.0256476,0.34781933,-0.35720345,0.956615,1.9263636
0.24511617,-1.0266275,1.2308836,-0.4427246,0.8949176,1.9251418
0.24511617,-1.0266275,1.2308836,-0.4427246,0.8949176,1.9251418
0.34677565,-1.2587516,2.4335365,-0.4897612,0.8374963,1.8939877
0.34677565,-1.2587516,2.4335365,-0.4897612,0.8374963,1.8939877
-0.19025427,-1.6259577,3.2601366,-0.4512767,0.9242391,1.8939877
-0.19025427,-1.6259577,3.2601366,-0.4512767,0.9242391,1.8939877
-0.75455254,-2.0954125,3.0290365,-0.300393,1.0910053,2.0357084
-0.75455254,-2.0954125,3.0290365,-0.300393,1.0910053,2.0357084
-0.103506505,-1.7785378,1.7929192,-0.11285736,1.2260065,2.251344
-0.103506505,-1.7785378,1.7929192,-0.11285736,1.2260065,2.251344
0.30054832,-1.6621387,0.07850647,-0.01695151,1.2180653,2.349693
0.30054832,-1.6621387,0.07850647,-0.01695151,1.2180653,2.349693
0.8999367,-1.4117274,0.093509674,-0.06582073,1.0891727,2.405282
0.8999367,-1.4117274,0.093509674,-0.06582073,1.0891727,2.405282
1.0306123,-1.4325795,0.28746223,-0.04016439,1.0231993,2.3857343
1.0306123,-1.4325795,0.28746223,-0.04016439,1.0231993,2.3857343
0.9712728,-1.4889779,-0.22706509,0.004428773,0.9841039,2.3564126
0.9712728,-1.4889779,-0.22706509,0.004428773,0.9841039,2.3564126
0.82895154,-1.3985257,-0.5465765,-0.14767668,1.0861185,2.3289237
0.82895154,-1.3985257,-0.5465765,-0.14767668,1.0861185,2.3289237
0.8189255,-1.395186,-0.5490742,-0.32360587,1.1502593,2.2898283
0.8189255,-1.395186,-0.5490742,-0.32360587,1.1502593,2.2898283
-0.24093497,-1.925384,0.50364494,-0.3474296,1.0726794,2.3301454
-0.24093497,-1.925384,0.50364494,-0.3474296,1.0726794,2.3301454
-0.12043297,-1.9074464,1.0749712,-0.2582433,1.006095,2.4181101
-0.12043297,-1.9074464,1.0749712,-0.2582433,1.006095,2.4181101
-0.29558283,-1.9389944,0.7795725,-0.20082195,1.0641272,2.4572055
-0.29558283,-1.9389944,0.7795725,-0.20082195,1.0641272,2.4572055
-0.53064156,-1.997545,0.46255016,-0.25457808,1.1081096,2.4987442
-0.53064156,-1.997545,0.46255016,-0.25457808,1.1081096,2.4987442
-0.71422607,-2.156914,1.0424223,-0.32910365,1.0348058,2.5360072
-0.71422607,-2.156914,1.0424223,-0.32910365,1.0348058,2.5360072
-0.7489416,-2.1242182,1.0242567,-0.34376442,1.0372492,2.564107
-0.7489416,-2.1242182,1.0242567,-0.34376442,1.0372492,2.564107
-0.95518994,-2.634439,1.8645449,-0.3492622,0.98532563,2.6233609
-0.95518994,-2.634439,1.8645449,-0.3492622,0.98532563,2.6233609
-0.64405036,-2.7092934,2.691288,-0.29611692,0.91751957,2.6868908
-0.64405036,-2.7092934,2.691288,-0.29611692,0.91751957,2.6868908
-0.3984456,-2.5949945,2.065752,-0.1470658,1.0445796,2.712547
-0.3984456,-2.5949945,2.065752,-0.1470658,1.0445796,2.712547
-0.5429386,-2.2601118,0.042546272,-0.05787948,1.1044444,2.6728408
-0.5429386,-2.2601118,0.042546272,-0.05787948,1.1044444,2.6728408
-0.5429386,-2.2601118,0.042546272,-0.12812899,0.88270026,2.5970936
-1.2860528,-2.3143244,0.057437897,-0.12812899,0.88270026,2.5970936
-1.4150913,-2.2821217,1.8214197,-0.10430524,0.5815437,2.5940392
-1.4150913,-2.2821217,1.8214197,-0.10430524,0.5815437,2.5940392
-0.50174147,-1.7130051,2.7069683,0.030695979,0.58032197,2.5744915
-0.50174147,-1.7130051,2.7069683,0.030695979,0.58032197,2.5744915
-0.12200326,-1.3228393,1.9879942,0.07284568,0.82894415,2.4010057
-0.12200326,-1.3228393,1.9879942,0.07284568,0.82894415,2.4010057
-0.4572152,-1.3133397,1.7335892,-0.0053450707,0.960891,2.1743748
-0.4572152,-1.3133397,1.7335892,-0.0053450707,0.960891,2.1743748
-1.1978498,-1.5214808,1.701251,0.05024367,1.0054842,2.0314324
-1.1978498,-1.5214808,1.701251,0.05024367,1.0054842,2.0314324
-1.5292972,-1.6482391,1.2698536,0.17608191,0.9975429,2.0350976
-1.5292972,-1.6482391,1.2698536,0.17608191,0.9975429,2.0350976
-1.4528602,-1.6791449,0.7959423,0.279929,0.9957104,2.0631974
-1.4528602,-1.6791449,0.7959423,0.279929,0.9957104,2.0631974
-1.1662078,-1.5335343,0.17856503,0.28237244,1.0067059,2.0522017
-1.1662078,-1.5335343,0.17856503,0.28237244,1.0067059,2.0522017
-0.8284433,-1.3779387,-0.06985664,0.16081028,1.0433578,1.9752327
-0.8284433,-1.3779387,-0.06985664,0.16081028,1.0433578,1.9752327
-1.0705029,-1.6395423,0.5756693,0.051465396,1.074512,1.887879
-1.0705029,-1.6395423,0.5756693,0.051465396,1.074512,1.887879
-1.4053667,-1.9814787,0.43808365,0.081397794,1.0842859,1.8860464
-1.4053667,-1.9814787,0.43808365,0.081397794,1.0842859,1.8860464
-1.1605812,-2.0434477,0.6644983,0.09483683,1.024421,1.9410243
-1.1605812,-2.0434477,0.6644983,0.09483683,1.024421,1.9410243
-0.89743066,-1.9092865,0.500597,0.124769226,1.0158689,1.9495764
-0.89743066,-1.9092865,0.500597,0.124769226,1.0158689,1.9495764
-0.87672305,-1.8111069,0.06984806,0.07895433,1.0525209,1.920255
-0.87672305,-1.8111069,0.06984806,-0.007788532,1.0311406,1.8933768
-0.91624,-1.7530458,-0.12635517,-0.007788532,1.0311406,1.8933768
-0.91624,-1.7530458,-0.12635517,-0.007788532,1.0311406,1.8933768
-0.68506205,-1.7310503,0.53932,-0.05665775,0.9560041,1.8701639
-0.68506205,-1.7310503,0.53932,-0.05665775,0.9560041,1.8701639
-0.68506205,-1.7310503,0.53932,-0.0022907446,0.9083566,1.8548924
-0.91268015,-1.9670811,1.0548172,-0.0022907446,0.9083566,1.8548924
-0.94820833,-1.884881,1.1645317,0.11255192,0.9431759,1.9104811
-0.94820833,-1.884881,1.1645317,0.11255192,0.9431759,1.9104811
-0.1373923,-1.0164104,-0.12786102,0.19257528,1.0213667,1.964848
-0.1373923,-1.0164104,-0.12786102,0.19257528,1.0213667,1.964848
0.5260912,-0.6426625,-0.46508884,-0.023060163,0.9615019,1.8463402
0.5260912,-0.6426625,-0.46508884,-0.023060163,0.9615019,1.8463402
-0.04667671,-1.284622,2.1542606,-0.30466905,0.9370673,1.666135
-0.04667671,-1.284622,2.1542606,-0.30466905,0.9370673,1.666135
-0.8148835,-1.7894971,2.7756968,-0.12751812,1.1178834,1.6679676
-0.8148835,-1.7894971,2.7756968,-0.12751812,1.1178834,1.6679676
-0.68616617,-1.8215868,0.6541462,0.2585487,1.174083,1.8842138
-0.68616617,-1.8215868,0.6541462,0.2585487,1.174083,1.8842138
0.21660571,-1.044097,-0.41312027,0.22861631,0.9651671,1.9532416
0.21660571,-1.044097,-0.41312027,0.22861631,0.9651671,1.9532416
0.45789135,-0.58910465,-0.29190254,-0.01817324,0.9645562,1.8597792
0.45789135,-0.58910465,-0.29190254,-0.01817324,0.9645562,1.8597792
0.07099837,-0.72277665,0.83692455,-0.3022256,1.0830641,1.7443258
0.07099837,-0.72277665,0.83692455,-0.3022256,1.0830641,1.7443258
-0.28833312,-1.0524807,1.8501387,-0.36880988,1.1502593,1.7278323
-0.28833312,-1.0524807,1.8501387,-0.36880988,1.1502593,1.7278323
-0.2942603,-1.338691,2.4641094,-0.25152376,1.0690142,1.7852536
-0.2942603,-1.338691,2.4641094,-0.25152376,1.0690142,1.7852536
-0.100382894,-1.481102,2.8238306,-0.118966006,1.0824533,1.8573358
-0.100382894,-1.481102,2.8238306,-0.118966006,1.0824533,1.8573358
0.04519084,-1.5418186,1.9389067,-0.024281893,1.2742649,1.9428569
0.04519084,-1.5418186,1.9389067,-0.024281893,1.2742649,1.9428569
0.33034503,-1.3618178,0.61558247,-0.02855795,1.3854424,2.0039434
0.33034503,-1.3618178,0.61558247,-0.02855795,1.3854424,2.0039434
0.3952201,-1.3741999,0.62594414,-0.06337727,1.3677273,2.0204368
0.3952201,-1.3741999,0.62594414,-0.06337727,1.3677273,2.0204368
-0.024127007,-1.7351329,-0.036034584,-0.11591168,1.2577715,2.0674734
-0.024127007,-1.7351329,-0.036034584,-0.11591168,1.2577715,2.0674734
-0.20373261,-2.0531025,0.54072,-0.095753126,1.196685,2.1902573
-0.20373261,-2.0531025,0.54072,-0.095753126,1.196685,2.1902573
0.09780455,-2.076829,0.49596596,0.0013744468,1.1777482,2.3362541
0.09780455,-2.076829,0.49596596,0.0013744468,1.1777482,2.3362541
0.6397675,-1.8788059,-0.13949299,0.011759156,1.1453724,2.4113905
0.6397675,-1.8788059,-0.13949299,0.011759156,1.1453724,2.4113905
0.4879412,-1.848624,0.1448946,-0.14523321,1.1502593,2.3942864
0.4879412,-1.848624,0.1448946,-0.14523321,1.1502593,2.3942864
-0.08554858,-2.1825798,0.82916355,-0.25457808,1.1917981,2.4071145
-0.08554858,-2.1825798,0.82916355,-0.25457808,1.1917981,2.4071145
-0.20295769,-2.3911133,0.86064243,-0.23564127,1.201572,2.4914138
-0.20295769,-2.3911133,0.86064243,-0.23564127,1.201572,2.4914138
-0.044268906,-2.4706426,0.60461044,-0.21181752,1.183246,2.5653286
-0.044268906,-2.4706426,0.60461044,-0.21181752,1.183246,2.5653286
-0.14385349,-2.4427433,0.4919653,-0.25702155,1.1985176,2.59465
-0.14385349,-2.4427433,0.4919653,-0.25702155,1.1985176,2.59465
-0.41391206,-2.351472,-0.22669506,-0.345597,1.2144,2.6306913
-0.41391206,-2.351472,-0.22669506,-0.345597,1.2144,2.6306913
-0.28732908,-2.3530264,0.5934,-0.50686544,1.0659598,2.653904
-0.28732908,-2.3530264,0.5934,-0.50686544,1.0659598,2.653904
-0.46994478,-2.5929697,2.091116,-0.5569564,1.0280862,2.644741
-0.46994478,-2.5929697,2.091116,-0.5569564,1.0280862,2.644741
-0.972232,-3.0952926,2.8340263,-0.40240747,1.0262536,2.6795604
-0.972232,-3.0952926,2.8340263,-0.40240747,1.0262536,2.6795604
-1.0375266,-3.1730819,2.6225653,-0.15806139,1.0140363,2.795014
-1.0375266,-3.1730819,2.6225653,-0.15806139,1.0140363,2.795014
-1.0957143,-3.1726756,2.619832,0.049021937,0.9779953,2.8848112
-1.0957143,-3.1726756,2.619832,0.049021937,0.9779953,2.8848112
0.39185002,-1.8590565,0.3306713,0.05879578,0.9877691,2.7779098
0.39185002,-1.8590565,0.3306713,0.05879578,0.9877691,2.7779098
0.1794304,-1.452059,0.012731552,-0.07498371,0.9932669,2.5622742
0.1794304,-1.452059,0.012731552,-0.07498371,0.9932669,2.5622742
-0.43887055,-1.4964211,0.7501106,-0.20570888,0.9285152,2.3649647
-0.43887055,-1.4964211,0.7501106,-0.20570888,0.9285152,2.3649647
-0.8247191,-1.7592015,1.7627134,-0.22220223,0.8912524,2.2678373
-0.8247191,-1.7592015,1.7627134,-0.22220223,0.8912524,2.2678373
-0.43740445,-1.6354098,2.4003582,-0.13240504,0.84788096,2.218968
-0.43740445,-1.6354098,2.4003582,-0.13240504,0.84788096,2.218968
-0.27669996,-1.4631159,2.65444,-0.06337727,0.94806284,2.1169536
-0.27669996,-1.4631159,2.65444,-0.06337727,0.94806284,2.1169536
-0.66714656,-1.5746274,1.8593102,0.053297993,1.1191051,2.0033326
-0.66714656,-1.5746274,1.8593102,0.053297993,1.1191051,2.0033326
-0.86361706,-1.6109776,0.45768452,0.16630806,1.1472049,1.9709567
-0.86361706,-1.6109776,0.45768452,0.16630806,1.1472049,1.9709567
-0.7377267,-1.5352538,-0.39934254,0.18096884,1.0867293,1.9575176
-0.7377267,-1.5352538,-0.39934254,0.18096884,1.0867293,1.9575176
-0.7789742,-1.5571077,-0.49518776,0.111941054,1.0531317,1.9300288
-0.7789742,-1.5571077,-0.49518776,0.111941054,1.0531317,1.9300288
-0.6434549,-1.4758265,-0.062862396,0.04841107,1.0158689,1.9172006
-0.6434549,-1.4758265,-0.062862396,0.04841107,1.0158689,1.9172006
-0.4205894,-1.2363443,-0.03875637,0.027030786,0.97066486,1.8548924
-0.4205894,-1.2363443,-0.03875637,0.027030786,0.97066486,1.8548924
-0.5688625,-1.1584575,0.080596924,-0.054825157,0.929126,1.7620409
-0.5688625,-1.1584575,0.080596924,-0.054825157,0.929126,1.7620409
-0.9354981,-1.3548884,0.937129,-0.14095716,0.89369583,1.715615
-0.9354981,-1.3548884,0.937129,-0.14095716,0.89369583,1.715615
-1.1148759,-1.4967153,1.7881794,-0.14278975,0.93828905,1.7351627
-1.1148759,-1.4967153,1.7881794,-0.14278975,0.93828905,1.7351627
-1.0396305,-1.5734785,1.8239079,0.011148291,0.9627236,1.7907515
-1.0396305,-1.5734785,1.8239079,0.011148291,0.9627236,1.7907515
-0.72350395,-1.5020902,0.9781246,0.13515393,0.98899084,1.8304577
-0.72350395,-1.5020902,0.9781246,0.13515393,0.98899084,1.8304577
-0.63288313,-1.222897,0.13128185,0.13820826,1.0024298,1.8182404
-0.63288313,-1.222897,0.13128185,0.13820826,1.0024298,1.8182404
-0.88754,-0.86677885,-0.8590641,0.120493166,1.0067059,1.8127426
-0.88754,-0.86677885,-0.8590641,0.120493166,1.0067059,1.8127426
-0.45838267,-0.6724832,-1.0096445,-0.0364992,0.79901177,1.7864754
-0.45838267,-0.6724832,-1.0096445,-0.0364992,0.79901177,1.7864754
-0.4590421,-1.277978,2.0191822,-0.27779096,0.6627888,1.7131716
-0.4590421,-1.277978,2.0191822,-0.27779096,0.6627888,1.7131716
-0.76901644,-1.9995358,3.9320297,-0.10980303,0.89858276,1.7418822
-0.76901644,-1.9995358,3.9320297,-0.10980303,0.89858276,1.7418822
-0.783059,-1.8921514,1.6920118,0.31719178,1.1203269,1.8958203
-0.783059,-1.8921514,1.6920118,0.31719178,1.1203269,1.8958203
-0.142952,-1.1991217,-0.7929306,0.538325,1.0574077,2.0210476
-0.142952,-1.1991217,-0.7929306,0.538325,1.0574077,2.0210476
0.3187676,-0.6074691,-2.0875778,0.40332377,0.88086766,1.9868392
0.3187676,-0.6074691,-2.0875778,0.40332377,0.88086766,1.9868392
0.2721928,-0.3015809,-1.0013676,-0.020005837,0.8405506,1.842675
0.2721928,-0.3015809,-1.0013676,-0.020005837,0.8405506,1.842675
-0.21846074,-0.7406235,1.0908146,-0.313832,0.9639453,1.7095064
-0.21846074,-0.7406235,1.0908146,-0.313832,0.9639453,1.7095064
-0.40481374,-1.1566586,2.0444803,-0.31016684,1.0183123,1.6924021
-0.40481374,-1.1566586,2.0444803,-0.31016684,1.0183123,1.6924021
-0.22382542,-1.2992475,2.5650406,-0.15500705,0.92485,1.7400496
-0.22382542,-1.2992475,2.5650406,-0.15500705,0.92485,1.7400496
-0.050990045,-1.4145494,2.1942587,-0.039553523,0.9786061,1.7767016
-0.050990045,-1.4145494,2.1942587,-0.039553523,0.9786061,1.7767016
-0.036071956,-1.4186182,2.197031,-0.082924955,1.1527027,1.8212948
-0.036071956,-1.4186182,2.197031,-0.082924955,1.1527027,1.8212948
-0.43940467,-1.5294523,1.6333418,-0.055436023,1.282817,1.9251418
-0.43940467,-1.5294523,1.6333418,-0.055436023,1.282817,1.9251418
-0.28829002,-1.47187,0.6557932,0.075289145,1.2571607,2.019215
-0.28829002,-1.47187,0.6557932,0.075289145,1.2571607,2.019215
-0.09883809,-1.4438295,0.02170372,0.107665,1.1655309,2.1071796
-0.09883809,-1.4438295,0.02170372,0.107665,1.1655309,2.1071796
0.21735927,-1.4302733,0.08918095,0.059406646,1.1246029,2.1664336
0.21735927,-1.4302733,0.08918095,0.059406646,1.1246029,2.1664336
0.21375945,-1.4592397,0.10418701,0.001985312,1.1178834,2.1804836
0.21375945,-1.4592397,0.10418701,0.001985312,1.1178834,2.1804836
0.8115947,-1.1359301,0.14378738,-0.09941832,1.128879,2.1169536
0.8115947,-1.1359301,0.14378738,-0.09941832,1.128879,2.1169536
0.12199211,-1.5575709,0.50320244,-0.14156802,1.1307116,2.097406
0.12199211,-1.5575709,0.50320244,-0.14156802,1.1307116,2.097406
-0.107697606,-1.837043,0.8272085,-0.09758572,1.1178834,2.1804836
-0.107697606,-1.837043,0.8272085,-0.09758572,1.1178834,2.1804836
-0.046257436,-1.9398277,0.4569435,-0.035277467,1.1435398,2.2702806
-0.046257436,-1.9398277,0.4569435,-0.035277467,1.1435398,2.2702806
-0.05833292,-1.9546115,0.46407604,-0.06154467,1.1630874,2.3295345
-0.05833292,-1.9546115,0.46407604,-0.06154467,1.1630874,2.3295345
-0.3902058,-2.0239828,0.036122322,-0.12751812,1.1936307,2.372906
-0.3902058,-2.0239828,0.036122322,-0.12751812,1.1936307,2.372906
-0.7093428,-2.2020307,0.11935711,-0.1769982,1.1227703,2.4297166
-0.7093428,-2.2020307,0.11935711,-0.1769982,1.1227703,2.4297166
-0.71931475,-2.3207872,0.74974537,-0.23258694,1.0183123,2.5017986
-0.71931475,-2.3207872,0.74974537,-0.23258694,1.0183123,2.5017986
-0.8475408,-2.5323658,1.3681831,-0.300393,1.0714576,2.5433373
-0.8475408,-2.5323658,1.3681831,-0.300393,1.0714576,2.5433373
-0.6711378,-2.649653,1.6693611,-0.3193298,1.0989466,2.590374
-0.6711378,-2.649653,1.6693611,-0.3193298,1.0989466,2.590374
-0.6935532,-2.845346,1.8258705,-0.29794952,1.1068878,2.6123652
-0.6935532,-2.845346,1.8258705,-0.29794952,1.1068878,2.6123652
-0.90416276,-3.0402122,1.7802315,-0.24846944,1.1679744,2.6477954
-0.90416276,-3.0402122,1.7802315,-0.24846944,1.1679744,2.6477954
-1.2432055,-3.0684004,1.0079594,-0.057268616,1.1667526,2.7320948
-1.2432055,-3.0684004,1.0079594,-0.057268616,1.1667526,2.7320948
-1.2935718,-2.7875,0.2378664,0.05390886,0.979217,2.8096747
-1.2935718,-2.7875,0.2378664,0.05390886,0.979217,2.8096747
-0.99408454,-2.3683243,0.27701283,0.049632803,0.86009824,2.8542678
-0.99408454,-2.3683243,0.27701283,0.049632803,0.86009824,2.8542678
-0.16990341,-1.6386492,0.2214489,-0.038331795,0.88270026,2.777299
-0.16990341,-1.6386492,0.2214489,-0.038331795,0.88270026,2.777299
0.27228287,-1.0255585,0.54224205,-0.20937407,0.87598073,2.5463917
0.27228287,-1.0255585,0.54224205,-0.20937407,0.87598073,2.5463917
0.20631343,-0.97413206,0.51712894,-0.34132096,0.8026769,2.2537873
0.20631343,-0.97413206,0.51712894,-0.34132096,0.8026769,2.2537873
-0.87443054,-1.7734032,3.5480804,-0.25335637,0.8533788,2.0760255
-0.87443054,-1.7734032,3.5480804,-0.25335637,0.8533788,2.0760255
-1.5520597,-2.0915163,3.0317965,0.017256944,0.98899084,2.0289888
-1.5520597,-2.0915163,3.0317965,0.017256944,0.98899084,2.0289888
-1.4914087,-2.0160058,1.7775946,0.17363845,1.1160508,2.0754147
-1.4914087,-2.0160058,1.7775946,0.17363845,1.1160508,2.0754147
-1.1020935,-1.6007187,0.8784075,0.20540343,1.1606439,2.0552561
-1.1020935,-1.6007187,0.8784075,0.20540343,1.1606439,2.0552561
-1.0293845,-1.4479699,0.21578407,0.19929479,1.1630874,1.9544634
-1.0293845,-1.4479699,0.21578407,0.19929479,1.1630874,1.9544634
-1.2408457,-1.5387065,0.14551258,0.10338894,1.1801916,1.8640553
-1.2408457,-1.5387065,0.14551258,0.10338894,1.1801916,1.8640553
-1.4213495,-1.7192209,0.5010872,0.028252518,1.1820242,1.8206838
-1.4213495,-1.7192209,0.5010872,0.028252518,1.1820242,1.8206838
-1.4086409,-1.8005071,0.77864647,0.019089539,1.138042,1.8188512
-1.4086409,-1.8005071,0.77864647,0.019089539,1.138042,1.8188512
-1.2595347,-1.9172134,1.1842737,0.041691553,1.0885619,1.8304577
-1.2595347,-1.9172134,1.1842737,0.041691553,1.0885619,1.8304577
-1.075488,-1.7843657,1.128828,0.0936151,1.0928379,1.8579466
-1.075488,-1.7843657,1.128828,0.0936151,1.0928379,1.8579466
-0.71462685,-1.4381137,0.5681534,0.10277808,1.1459832,1.87444
-0.71462685,-1.4381137,0.5681534,0.10277808,1.1459832,1.87444
-0.96765333,-1.2591388,0.5702305,0.037415497,1.1178834,1.8353447
-0.96765333,-1.2591388,0.5702305,0.037415497,1.1178834,1.8353447
-1.3630813,-1.1587684,0.6871443,-0.0035124752,1.0366384,1.8402315
-1.3630813,-1.1587684,0.6871443,-0.0035124752,1.0366384,1.8402315
-0.9246705,-1.278805,1.2849932,-0.039553523,0.90408057,1.8726074
-0.9246705,-1.278805,1.2849932,-0.039553523,0.90408057,1.8726074
-0.37694323,-1.7745974,2.7861233,-0.068264194,0.960891,1.8689423
-0.37694323,-1.7745974,2.7861233,-0.068264194,0.960891,1.8689423
-0.5063361,-2.1963117,3.0356712,0.07040222,1.2730432,1.8982637
-0.5063361,-2.1963117,3.0356712,0.07040222,1.2730432,1.8982637
-0.50971746,-2.0619512,0.5918188,0.3391829,1.4159856,2.006387
-0.50971746,-2.0619512,0.5918188,0.3391829,1.4159856,2.006387
-0.1528269,-1.4442625,-1.5899339,0.39843684,1.1636983,2.0845776
-0.1528269,-1.4442625,-1.5899339,0.39843684,1.1636983,2.0845776
0.056665897,-1.0654082,-1.2355175,0.19990565,0.8979719,2.0522017
0.056665897,-1.0654082,-1.2355175,0.19990565,0.8979719,2.0522017
0.027517974,-1.0979815,-1.2193613,-0.076816306,0.9633345,1.9544634
0.027517974,-1.0979815,-1.2193613,-0.076816306,0.9633345,1.9544634
-0.27457052,-1.3078945,1.2564716,-0.22953261,1.0567969,1.9098701
-0.27457052,-1.3078945,1.2564716,-0.22953261,1.0567969,1.9098701
-0.14803937,-1.5462351,1.638504,-0.20265454,1.0042624,1.8952094
-0.14803937,-1.5462351,1.638504,-0.20265454,1.0042624,1.8952094
-0.19725451,-1.7512529,2.1378117,-0.17272215,0.95111716,1.8756617
-0.19725451,-1.7512529,2.1378117,-0.17272215,0.95111716,1.8756617
-0.5282215,-2.080791,2.3308802,-0.12018774,1.0690142,1.9074267
-0.5282215,-2.080791,2.3308802,-0.12018774,1.0690142,1.9074267
-0.8027678,-2.3094318,1.6329508,-0.039553523,1.2315043,2.0222695
-0.8027678,-2.3094318,1.6329508,-0.039553523,1.2315043,2.0222695
-0.38547084,-2.0505795,0.68730545,0.028252518,1.2669345,2.1798725
-0.38547084,-2.0505795,0.68730545,0.028252518,1.2669345,2.1798725
0.0075966716,-1.8255379,-0.051262856,0.055741455,1.2211196,2.254398
0.0075966716,-1.8255379,-0.051262856,0.055741455,1.2211196,2.254398
0.23780185,-1.6154413,-0.43209457,-0.0071776668,1.1881329,2.2672265
0.23780185,-1.6154413,-0.43209457,-0.0071776668,1.1881329,2.2672265
0.23755756,-1.6227298,-0.42827415,-0.15134187,1.178359,2.2385156
0.23755756,-1.6227298,-0.42827415,-0.15134187,1.178359,2.2385156
-0.4142663,-1.9252293,0.43357182,-0.26251933,1.146594,2.25562
-0.4142663,-1.9252293,0.43357182,-0.26251933,1.146594,2.25562
-0.37215585,-2.0132332,0.92425823,-0.21120666,1.1239921,2.3845124
-0.37215585,-2.0132332,0.92425823,-0.21120666,1.1239921,2.3845124
-0.13211799,-1.9852629,0.8755455,-0.13423763,1.1313224,2.449875
-0.13211799,-1.9852629,0.8755455,-0.13423763,1.1313224,2.449875
-0.17673871,-1.947545,0.6593971,-0.14156802,1.1661417,2.4761422
-0.17673871,-1.947545,0.6593971,-0.14156802,1.1661417,2.4761422
-0.256889,-1.9834299,0.8488798,-0.11652254,1.1710287,2.4975226
-0.256889,-1.9834299,0.8488798,-0.11652254,1.1710287,2.4975226
-0.5214703,-2.133565,0.8285837,-0.05421429,1.1582005,2.5262332
-0.5214703,-2.133565,0.8285837,-0.05421429,1.1582005,2.5262332
-0.64446485,-2.1765435,0.6207142,-0.05299256,1.2253957,2.5720482
-0.64446485,-2.1765435,0.6207142,-0.05299256,1.2253957,2.5720482
-0.8114314,-2.2302306,0.21263981,-0.12018774,1.2950343,2.5940392
-0.8114314,-2.2302306,0.21263981,-0.12018774,1.2950343,2.5940392
-0.8162544,-2.1528237,0.2717142,-0.21487185,1.1991285,2.6032023
-0.8162544,-2.1528237,0.2717142,-0.21487185,1.1991285,2.6032023
-1.0430498,-2.320295,1.3815861,-0.32788193,1.0800097,2.5885415
-1.0430498,-2.320295,1.3815861,-0.32788193,1.0800097,2.5885415
-1.1577746,-2.638285,2.694787,-0.3529274,1.0824533,2.6111436
-1.1577746,-2.638285,2.694787,-0.3529274,1.0824533,2.6111436
-0.95758265,-2.8240433,3.0243788,-0.24846944,1.1746938,2.6716192
-0.95758265,-2.8240433,3.0243788,-0.24846944,1.1746938,2.6716192
-0.74877524,-2.7740421,1.9352875,-0.09819659,1.2742649,2.7033842
-0.74877524,-2.7740421,1.9352875,-0.09819659,1.2742649,2.7033842
-0.9057149,-2.8069859,1.0013199,-0.024281893,1.2095132,2.7052166
-0.9057149,-2.8069859,1.0013199,-0.024281893,1.2095132,2.7052166
-0.9178833,-2.6905742,1.0601368,-0.017562376,1.078788,2.713158
-0.9178833,-2.6905742,1.0601368,-0.017562376,1.078788,2.713158
-0.49556312,-2.4078345,1.3768339,0.0032070426,1.047023,2.7076602
-0.49556312,-2.4078345,1.3768339,0.0032070426,1.047023,2.7076602
-0.1190715,-2.1522892,1.3170166,0.03680463,1.0549643,2.6258042
-0.1190715,-2.1522892,1.3170166,0.03680463,1.0549643,2.6258042
0.053387746,-1.9488523,1.2415276,0.030695979,1.0732902,2.4706445
0.053387746,-1.9488523,1.2415276,0.030695979,1.0732902,2.4706445
-0.15421967,-2.0986888,1.4134407,-0.009010263,1.0824533,2.287385
-0.15421967,-2.0986888,1.4134407,-0.009010263,1.0824533,2.287385
-0.643328,-2.2895641,1.3904982,-0.01817324,1.1502593,2.1267273
-0.643328,-2.2895641,1.3904982,-0.01817324,1.1502593,2.1267273
-1.1199998,-2.4520783,1.1594467,-0.013286319,1.1612549,2.0705278
-1.1199998,-2.4520783,1.1594467,-0.013286319,1.1612549,2.0705278
-1.122283,-2.305963,1.140439,0.012980887,1.1172725,2.0619757
-1.122283,-2.305963,1.140439,0.012980887,1.1172725,2.0619757
-0.8381525,-2.0052063,1.0476427,0.025809057,1.10139,2.010663
-0.8381525,-2.0052063,1.0476427,0.025809057,1.10139,2.010663
-0.8745006,-1.8802752,0.84772396,-0.02733622,1.1258247,1.9025398
-0.8745006,-1.8802752,0.84772396,-0.02733622,1.1258247,1.9025398
-1.3007817,-2.122413,0.89650726,-0.12140947,1.1545353,1.8316795
-1.3007817,-2.122413,0.89650726,-0.12140947,1.1545353,1.8316795
-1.355942,-2.1841078,1.2292213,-0.150731,1.1349876,1.8445076
-1.355942,-2.1841078,1.2292213,-0.150731,1.1349876,1.8445076
-1.233597,-2.1343393,1.3424044,-0.08231409,1.1050552,1.8823812
-1.233597,-2.1343393,1.3424044,-0.08231409,1.1050552,1.8823812
-0.95912266,-1.9289582,0.8147173,0.007483099,1.0751228,1.9190332
-0.95912266,-1.9289582,0.8147173,0.007483099,1.0751228,1.9190332
-0.70988286,-1.6852465,0.43868637,-0.034055736,1.0861185,1.8909334
-0.70988286,-1.6852465,0.43868637,-0.034055736,1.0861185,1.8909334
-0.94630146,-1.8087244,0.45388317,-0.08109236,1.0671816,1.8555032
-0.94630146,-1.8087244,0.45388317,-0.08109236,1.0671816,1.8555032
-0.76154023,-1.8214602,0.7524061,-0.041996986,0.9468411,1.892766
-0.76154023,-1.8214602,0.7524061,-0.041996986,0.9468411,1.892766
-0.32487798,-1.494921,1.3085718,0.07040222,0.8570439,1.9123137
-0.32487798,-1.494921,1.3085718,0.07040222,0.8570439,1.9123137
-0.32097703,-1.2913747,0.15478992,0.21578814,0.88270026,1.8817704
-0.32097703,-1.2913747,0.15478992,0.21578814,0.88270026,1.8817704
-0.22994027,-0.7852826,-0.5145769,0.11927144,0.86376345,1.8469511
-0.22994027,-0.7852826,-0.5145769,0.11927144,0.86376345,1.8469511
-0.23667848,-0.8072643,-0.50414085,-0.082924955,0.8002335,1.7528778
-0.23667848,-0.8072643,-0.50414085,-0.082924955,0.8002335,1.7528778
-0.010182083,-0.5237868,0.3857298,-0.20143281,0.73914695,1.6355917
-0.010182083,-0.5237868,0.3857298,-0.20143281,0.73914695,1.6355917
-0.6059867,-1.4970243,3.2690878,-0.14034629,0.80756384,1.6337591
-0.6059867,-1.4970243,3.2690878,-0.14034629,0.80756384,1.6337591
-0.4520802,-1.5401666,2.4841948,0.13820826,0.92179567,1.7180585
-0.4520802,-1.5401666,2.4841948,0.13820826,0.92179567,1.7180585
0.046239942,-1.1832526,0.7040615,0.33429602,0.9816604,1.7993035
0.046239942,-1.1832526,0.7040615,0.33429602,0.9816604,1.7993035
0.18543197,-0.7959306,-0.21593094,0.20845777,0.98532563,1.7754798
0.18543197,-0.7959306,-0.21593094,0.20845777,0.98532563,1.7754798
-0.014532357,-0.76139617,0.032201767,0.036193766,0.9737192,1.733941
-0.014532357,-0.76139617,0.032201767,0.036193766,0.9737192,1.733941
-0.08198357,-0.95863724,0.8151884,-0.05177083,0.93523467,1.738217
-0.08198357,-0.95863724,0.8151884,-0.05177083,0.93523467,1.738217
0.11744258,-1.1861193,1.5326614,-0.06582073,0.91629785,1.7589865
0.11744258,-1.1861193,1.5326614,-0.06582073,0.91629785,1.7589865
0.22908889,-1.3403542,1.9500675,-0.059101213,0.9932669,1.7699821
0.22908889,-1.3403542,1.9500675,-0.059101213,0.9932669,1.7699821
0.21453254,-1.3966556,1.612999,-0.02977968,1.1044444,1.7956384
0.21453254,-1.3966556,1.612999,-0.02977968,1.1044444,1.7956384
0.20316169,-1.4336305,0.7153492,0.004428773,1.1710287,1.8267925
0.20316169,-1.4336305,0.7153492,0.004428773,1.1710287,1.8267925
0.15078473,-1.5076075,0.5368643,0.011148291,1.1349876,1.8903224
0.15078473,-1.5076075,0.5368643,0.011148291,1.1349876,1.8903224
0.18227208,-1.4649463,0.34627724,0.07284568,1.1282681,1.9679024
0.18227208,-1.4649463,0.34627724,0.07284568,1.1282681,1.9679024
0.3010967,-1.334346,-0.42235184,0.11438452,1.1539245,2.0295997
0.3010967,-1.334346,-0.42235184,0.11438452,1.1539245,2.0295997
0.50033003,-1.1552062,-1.081079,0.027030786,1.1239921,2.05098
0.50033003,-1.1552062,-1.081079,0.027030786,1.1239921,2.05098
0.37938598,-1.2291698,-0.34544086,-0.13118331,1.0451905,2.0179935
0.37938598,-1.2291698,-0.34544086,-0.13118331,1.0451905,2.0179935
0.07141954,-1.5305119,0.8940239,-0.18005253,0.99265605,2.0039434
0.07141954,-1.5305119,0.8940239,-0.18005253,0.99265605,2.0039434
-0.52896035,-1.9824879,1.5523996,-0.09697486,1.0079277,2.0302107
-0.52896035,-1.9824879,1.5523996,-0.09697486,1.0079277,2.0302107
-0.93943495,-2.0302453,1.0839157,-0.04138612,1.1264355,2.129171
-0.93943495,-2.0302453,1.0839157,-0.04138612,1.1264355,2.129171
-0.8620952,-2.048965,0.7406597,-0.12140947,1.1985176,2.2067506
-0.8620952,-2.048965,0.7406597,-0.12140947,1.1985176,2.2067506
-0.9966182,-2.329376,1.633997,-0.20693061,1.151481,2.2299635
-0.9966182,-2.329376,1.633997,-0.20693061,1.151481,2.2299635
-1.2624197,-2.6257186,1.5361042,-0.08781188,1.2131784,2.310598
-1.2624197,-2.6257186,1.5361042,-0.08781188,1.2131784,2.310598
-1.0200686,-2.8129036,0.24839306,-0.068264194,1.1636983,2.4083362
-1.0200686,-2.8129036,0.24839306,-0.068264194,1.1636983,2.4083362
-0.96682686,-3.097117,0.41299057,-0.16233744,1.0384709,2.4596488
-0.96682686,-3.097117,0.41299057,-0.16233744,1.0384709,2.4596488
-1.0771971,-3.3772647,1.1318102,-0.21731532,1.0525209,2.518292
-1.0771971,-3.3772647,1.1318102,-0.21731532,1.0525209,2.518292
-1.1648642,-3.315767,0.95818233,-0.11835514,1.0635164,2.5799894
-1.1648642,-3.315767,0.95818233,-0.11835514,1.0635164,2.5799894
-1.2371749,-3.0690632,0.18827343,-0.0016798794,0.9315695,2.613587
-1.2371749,-3.0690632,0.18827343,-0.0016798794,0.9315695,2.613587
-1.0453526,-2.6202369,0.11654568,-0.09941832,0.86926126,2.5879307
-1.0453526,-2.6202369,0.11654568,-0.09941832,0.86926126,2.5879307
-1.0453526,-2.6202369,0.11654568,-0.28389964,0.9193522,2.4810293
-1.2074281,-2.414199,1.0389395,-0.28389964,0.9193522,2.4810293
-1.6543612,-2.6101146,2.156868,-0.33948836,0.9236283,2.4034493
-1.6543612,-2.6101146,2.156868,-0.33948836,0.9236283,2.4034493
-2.0325167,-2.8292837,2.9843607,-0.31322116,0.9437868,2.400395
-2.0325167,-2.8292837,2.9843607,-0.31322116,0.9437868,2.400395
-2.1650634,-2.8368564,3.3573303,-0.2454151,1.0231993,2.4559836
-2.1650634,-2.8368564,3.3573303,-0.2454151,1.0231993,2.4559836
-2.0946784,-3.0112472,3.2420654,-0.12751812,1.1166617,2.5329528
-2.0946784,-3.0112472,3.2420654,-0.12751812,1.1166617,2.5329528
-2.007671,-3.0488055,2.6120043,0.012370021,1.2253957,2.6196957
-2.007671,-3.0488055,2.6120043,0.012370021,1.2253957,2.6196957
-1.9923648,-3.0460978,1.1094236,0.08750644,1.3860532,2.6991081
-1.9923648,-3.0460978,1.1094236,0.08750644,1.3860532,2.6991081
-1.8874451,-3.0069642,0.0531435,0.06307184,1.4025466,2.7742445
-1.8874451,-3.0069642,0.0531435,0.06307184,1.4025466,2.7742445
-1.8961686,-3.0881631,0.017127037,-0.0041233404,1.314582,2.8249464
-1.8961686,-3.0881631,0.017127037,-0.0041233404,1.314582,2.8249464
-2.1969857,-3.363944,0.098695755,-0.020005837,1.201572,2.8823676
-2.1969857,-3.363944,0.098695755,-0.020005837,1.201572,2.8823676
-2.0647337,-3.4917784,1.0604706,-0.03894266,1.1032226,2.9782734
-2.0647337,-3.4917784,1.0604706,-0.03894266,1.1032226,2.9782734
-1.8076863,-3.3642974,1.294013,0.016646078,1.1899655,3.0497448
-1.8076863,-3.3642974,1.294013,0.016646078,1.1899655,3.0497448
-1.7664511,-3.3605366,0.8881216,0.019700404,1.2333369,3.0564642
-1.7664511,-3.3605366,0.8881216,-0.055436023,1.1960741,3.0509665
-1.5906801,-3.336566,1.4061365,-0.055436023,1.1960741,3.0509665
-1.5906801,-3.336566,1.4061365,-0.055436023,1.1960741,3.0509665
-1.7196338,-3.51632,2.4490519,-0.041996986,1.260215,3.0271428
-1.7196338,-3.51632,2.4490519,-0.041996986,1.260215,3.0271428
-1.8583727,-3.6104553,2.7067318,0.061239243,1.3634512,3.0546317
-1.8583727,-3.6104553,2.7067318,0.061239243,1.3634512,3.0546317
-1.7921746,-3.407926,1.8421211,0.14126259,1.4782939,3.1132748
-1.7921746,-3.407926,1.8421211,0.14126259,1.4782939,3.1132748
-1.7745086,-3.1324563,1.6014376,0.116217114,1.4624114,3.1584787
-1.7745086,-3.1324563,1.6014376,0.116217114,1.4624114,3.1584787
-0.7544025,-2.8226252,2.0501995,0.049632803,1.4288138,3.1725287
-0.7544025,-2.8226252,2.0501995,0.049632803,1.4288138,3.1725287
-0.42267027,-2.9451888,4.0526857,0.01786781,1.518611,3.1132748
-0.42267027,-2.9451888,4.0526857,0.01786781,1.518611,3.1132748
-1.2204591,-2.8739681,3.000185,0.23289238,1.917506,3.1022792
-1.2204591,-2.8739681,3.000185,0.23289238,1.917506,3.1022792
-1.5565732,-2.7620106,0.091259,0.356898,2.0610592,3.2232304
-1.5565732,-2.7620106,0.091259,0.356898,2.0610592,3.2232304
-0.98439294,-2.1255267,0.09925175,0.20295998,1.7562376,3.3454034
-0.98439294,-2.1255267,0.09925175,0.20295998,1.7562376,3.3454034
-0.5336171,-2.0594122,1.0810261,0.111941054,1.5748106,3.3166928
-0.5336171,-2.0594122,1.0810261,0.111941054,1.5748106,3.3166928
-0.643129,-2.4808145,1.8759346,-0.0071776668,1.582141,3.2415564
-0.643129,-2.4808145,1.8759346,-0.0071776668,1.582141,3.2415564
-1.0272695,-3.1959262,2.9674253,-0.19043724,1.7751744,3.2226195
-1.0272695,-3.1959262,2.9674253,-0.19043724,1.7751744,3.2226195
-1.1956311,-3.9041138,4.165859,-0.18616119,1.844813,3.3221905
-1.1956311,-3.9041138,4.165859,-0.18616119,1.844813,3.3221905
-1.1778573,-4.3899283,4.3169775,0.11255192,1.7305813,3.470631
-1.1778573,-4.3899283,4.3169775,0.11255192,1.7305813,3.470631
-0.89306253,-4.5830855,2.5981026,0.40698898,1.758681,3.6221254
-0.89306253,-4.5830855,2.5981026,0.40698898,1.758681,3.6221254
-0.7108865,-4.8477507,0.99263096,0.41248676,1.8845193,3.7174203
-0.7108865,-4.8477507,0.99263096,0.41248676,1.8845193,3.7174203
-0.8503563,-5.1547155,0.2649908,0.19624045,1.990199,3.8310413
-0.8503563,-5.1547155,0.2649908,0.19624045,1.990199,3.8310413
-1.0075461,-5.635086,0.50170326,0.11499538,1.8826867,3.9073997
-1.0075461,-5.635086,0.50170326,0.11499538,1.8826867,3.9073997
-0.98647875,-5.976123,1.3223,0.14431691,1.745242,4.004527
-0.98647875,-5.976123,1.3223,0.14431691,1.745242,4.004527
-1.242193,-6.299765,1.8794794,0.24755314,1.7183639,4.0888267
-1.242193,-6.299765,1.8794794,0.24755314,1.7183639,4.0888267
-0.562766,-6.045845,1.6900291,0.1956296,1.785559,4.2256603
-0.562766,-6.045845,1.6900291,0.1956296,1.785559,4.2256603
-0.028013945,-5.5942993,2.1620626,-0.0041233404,1.9016235,4.2171082
-0.028013945,-5.5942993,2.1620626,-0.0041233404,1.9016235,4.2171082
-0.3284696,-5.2560973,2.4004154,-0.03894266,1.9712621,4.076609
-0.3284696,-5.2560973,2.4004154,-0.03894266,1.9712621,4.076609
-1.3877187,-5.476983,2.0897388,-0.02367103,1.7965547,3.981925
-1.3877187,-5.476983,2.0897388,-0.02367103,1.7965547,3.981925
-1.9533173,-5.882052,2.7458,-0.21609358,1.7232509,4.005138
-1.9533173,-5.882052,2.7458,-0.21609358,1.7232509,4.005138
-1.7520977,-6.329511,4.859495,-0.34437528,1.6639969,4.0607266
-1.7520977,-6.329511,4.859495,-0.34437528,1.6639969,4.0607266
-1.7031589,-6.6923094,6.057472,-0.20326541,1.7098118,4.1114287
-1.7031589,-6.6923094,6.057472,-0.20326541,1.7098118,4.1114287
-1.5936323,-6.7064,4.9829054,0.18096884,1.7128662,4.191452
-1.5936323,-6.7064,4.9829054,0.18096884,1.7128662,4.191452
-1.0103431,-6.13518,3.2763224,0.47418416,1.536937,4.2293253
-1.0103431,-6.13518,3.2763224,0.47418416,1.536937,4.2293253
-0.67979836,-5.3523016,2.5849752,0.52610767,1.3811663,4.113261
-0.67979836,-5.3523016,2.5849752,0.52610767,1.3811663,4.113261
-0.79041153,-4.833428,2.4024467,0.366061,1.4104879,3.9080105
-0.79041153,-4.833428,2.4024467,0.366061,1.4104879,3.9080105
-1.0046685,-4.7827215,3.9981937,0.16875152,1.496009,3.6771033
-1.0046685,-4.7827215,3.9981937,0.16875152,1.496009,3.6771033
-1.4415903,-5.057785,4.7594957,0.22617286,1.6713274,3.5023959
-1.4415903,-5.057785,4.7594957,0.22617286,1.6713274,3.5023959
-1.7700558,-5.2515116,3.0888968,0.5340489,1.7660115,3.442531
-1.7700558,-5.2515116,3.0888968,0.5340489,1.7660115,3.442531
-1.4007826,-4.994416,1.6556549,0.54260105,1.7434094,3.425427
-1.4007826,-4.994416,1.6556549,0.54260105,1.7434094,3.425427
-1.433938,-4.704983,0.9922962,0.4558582,1.7464638,3.3539557
-1.433938,-4.704983,0.9922962,0.4558582,1.7464638,3.3539557
-1.7792783,-4.530836,0.58152103,0.2750421,1.7311921,3.2861495
-1.7792783,-4.530836,0.58152103,0.2750421,1.7311921,3.2861495
-2.124817,-4.497943,1.239851,0.100334615,1.6884315,3.252552
-2.124817,-4.497943,1.239851,0.100334615,1.6884315,3.252552
-1.917141,-4.31833,2.6900215,0.12232576,1.5467108,3.2904255
-1.917141,-4.31833,2.6900215,0.12232576,1.5467108,3.2904255
-1.5312123,-4.083146,2.9794788,0.3538437,1.46852,3.278819
-1.5312123,-4.083146,2.9794788,0.3538437,1.46852,3.278819
-1.5275905,-3.9930036,1.6473455,0.366061,1.5406022,3.2275066
-1.5275905,-3.9930036,1.6473455,0.366061,1.5406022,3.2275066
-1.7360939,-3.9308136,1.9715805,0.16752979,1.6316211,3.157257
-1.7360939,-3.9308136,1.9715805,0.16752979,1.6316211,3.157257
-1.7109135,-3.9056385,1.9573746,0.13698652,1.6841555,3.1132748
-1.7109135,-3.9056385,1.9573746,0.13698652,1.6841555,3.1132748
-2.1270103,-3.8441014,2.513155,0.24633141,1.6829338,3.1193833
-2.1270103,-3.8441014,2.513155,0.24633141,1.6829338,3.1193833
-1.5875733,-3.3755984,2.56629,0.19257528,1.5833627,3.121216
-1.5875733,-3.3755984,2.56629,0.19257528,1.5833627,3.121216
-1.0369258,-3.9351404,5.360214,0.055741455,1.668273,3.0057623
-1.0369258,-3.9351404,5.360214,0.055741455,1.668273,3.0057623
-1.372037,-4.54195,5.11071,0.2591596,2.0622811,2.9678888
-1.372037,-4.54195,5.11071,0.2591596,2.0622811,2.9678888
-1.22161,-4.43302,1.806736,0.50778174,2.3487768,3.112053
-1.22161,-4.43302,1.806736,0.50778174,2.3487768,3.112053
-0.6364583,-3.8888354,-0.1970253,0.5010622,2.1587977,3.1975741
-0.6364583,-3.8888354,-0.1970253,0.5010622,2.1587977,3.1975741
-0.4179681,-3.846684,1.0230122,0.2744312,1.8020525,3.2030718
-0.4179681,-3.846684,1.0230122,0.2744312,1.8020525,3.2030718
-0.11573914,-3.9158244,2.7699194,0.049021937,1.8912388,3.1786373
-0.11573914,-3.9158244,2.7699194,0.049021937,1.8912388,3.1786373
0.33393925,-3.9508138,2.768609,-0.039553523,2.2046127,3.1603115
0.33393925,-3.9508138,2.768609,-0.039553523,2.2046127,3.1603115
0.33393925,-3.9508138,2.768609,-0.01817324,2.1905627,3.1425962
0.42823347,-4.144537,2.5648146,-0.01817324,2.1905627,3.1425962
0.5844631,-4.327901,2.080615,0.04841107,2.112372,3.1493158
0.5844631,-4.327901,2.080615,0.04841107,2.112372,3.1493158
0.17780265,-4.650071,1.4536304,0.04230242,2.0781636,3.175583
0.17780265,-4.650071,1.4536304,0.04230242,2.0781636,3.175583
0.05124694,-4.5832624,0.80154324,0.001985312,2.0360138,3.3001995
0.05124694,-4.5832624,0.80154324,0.001985312,2.0360138,3.3001995
0.45469913,-4.136339,0.49197578,-0.064599,1.9969184,3.3899968
0.45469913,-4.136339,0.49197578,-0.064599,1.9969184,3.3899968
0.50168246,-4.1408515,0.49642754,-0.16233744,1.894904,3.3857207
0.50168246,-4.1408515,0.49642754,-0.16233744,1.894904,3.3857207
0.15456569,-3.925272,1.5462189,-0.20204368,1.704925,3.3637295
0.15456569,-3.925272,1.5462189,-0.20204368,1.704925,3.3637295
-0.03888604,-4.033526,2.2370882,-0.18371773,1.6633861,3.37106
-0.03888604,-4.033526,2.2370882,-0.18371773,1.6633861,3.37106
-0.17075592,-4.1523414,2.677042,-0.24113905,1.7171422,3.388164
-0.17075592,-4.1523414,2.677042,-0.24113905,1.7171422,3.388164
-0.1630097,-4.1298804,2.6662664,-0.2759584,1.7806722,3.4217618
-0.1630097,-4.1298804,2.6662664,-0.2759584,1.7806722,3.4217618
-0.103152156,-4.146602,3.6056385,-0.18677205,1.7708983,3.4620788
-0.103152156,-4.146602,3.6056385,-0.18677205,1.7708983,3.4620788
0.05483839,-4.092927,3.1387587,-0.064599,1.7605137,3.47002
0.05483839,-4.092927,3.1387587,-0.064599,1.7605137,3.47002
-0.23957404,-4.0300364,2.1357002,-0.030390546,1.8057177,3.438866
-0.23957404,-4.0300364,2.1357002,-0.030390546,1.8057177,3.438866
-0.3873108,-4.241021,1.5572796,-0.091477074,1.7159204,3.443142
-0.3873108,-4.241021,1.5572796,-0.091477074,1.7159204,3.443142
0.19251806,-4.32693,3.0992937,-0.082924955,1.4196508,3.4687984
0.19251806,-4.32693,3.0992937,-0.082924955,1.4196508,3.4687984
0.31305736,-4.1812973,2.8031893,0.1253801,1.4391985,3.4052682
0.31305736,-4.1812973,2.8031893,0.1253801,1.4391985,3.4052682
-0.21425226,-3.9938922,0.61660576,0.26221392,1.5228871,3.297756
-0.21425226,-3.9938922,0.61660576,0.26221392,1.5228871,3.297756
-0.4208178,-3.6576834,0.091379166,0.21639901,1.3707817,3.2244523
-0.4208178,-3.6576834,0.091379166,0.21639901,1.3707817,3.2244523
-0.3071065,-3.2163787,0.9098406,0.21212296,0.97127575,3.0662382
-0.3071065,-3.2163787,0.9098406,0.21212296,0.97127575,3.0662382
-0.49079096,-2.911039,1.598319,0.2218968,0.95905846,2.87687
-0.49079096,-2.911039,1.598319,0.2218968,0.95905846,2.87687
-0.72397876,-2.6780138,1.4171734,0.094225965,1.0812315,2.6801713
-0.72397876,-2.6780138,1.4171734,0.094225965,1.0812315,2.6801713
-1.1341306,-2.8431568,2.6859026,-0.047494773,1.0549643,2.5054638
-1.1341306,-2.8431568,2.6859026,-0.047494773,1.0549643,2.5054638
-1.6605619,-3.1077018,3.923767,0.034972034,1.0238101,2.4113905
-1.6605619,-3.1077018,3.923767,0.034972034,1.0238101,2.4113905
-2.0234184,-3.3789675,3.8037615,0.2060143,1.1441506,2.4016168
-2.0234184,-3.3789675,3.8037615,0.2060143,1.1441506,2.4016168
-1.8861682,-3.2298346,2.582879,0.29092458,1.319469,2.441323
-1.8861682,-3.2298346,2.582879,0.29092458,1.319469,2.441323
-1.5701954,-2.768859,1.1011715,0.2640465,1.423316,2.4541512
-1.5701954,-2.768859,1.1011715,0.2640465,1.423316,2.4541512
-1.1347437,-2.4141655,0.24077606,0.15653422,1.4288138,2.4168882
-1.1347437,-2.4141655,0.24077606,0.15653422,1.4288138,2.4168882
-1.0631229,-2.5117795,0.38589478,0.012370021,1.423316,2.3209825
-1.0631229,-2.5117795,0.38589478,0.012370021,1.423316,2.3209825
-1.6351367,-3.1967392,1.0485201,-0.043218717,1.4220943,2.2928827
-1.6351367,-3.1967392,1.0485201,-0.043218717,1.4220943,2.2928827
-1.4293454,-3.5146663,1.1098976,0.061239243,1.395827,2.4333818
-1.4293454,-3.5146663,1.1098976,0.061239243,1.395827,2.4333818
-0.6187624,-2.7382102,0.6599226,0.13087788,1.4416419,2.562885
-0.6187624,-2.7382102,0.6599226,0.13087788,1.4416419,2.562885
-0.5232767,-1.9708405,-0.66735125,0.027030786,1.6224581,2.5433373
-0.5232767,-1.9708405,-0.66735125,0.027030786,1.6224581,2.5433373
0.073449045,-1.6854842,0.18429852,-0.26251933,1.4966198,2.4474316
0.073449045,-1.6854842,0.18429852,-0.26251933,1.4966198,2.4474316
-0.24895065,-2.4799821,4.422537,-0.33948836,1.1826351,2.3112087
-0.24895065,-2.4799821,4.422537,-0.33948836,1.1826351,2.3112087
-1.0242723,-3.241829,4.7545967,0.05207626,1.4062119,2.3167064
-1.0242723,-3.241829,4.7545967,0.05207626,1.4062119,2.3167064
-0.88811797,-2.8273296,0.900156,0.39599338,1.8619173,2.5390613
-0.88811797,-2.8273296,0.900156,0.39599338,1.8619173,2.5390613
0.1535436,-1.5374568,-1.8561244,0.34284812,1.5803084,2.708271
0.1535436,-1.5374568,-1.8561244,0.34284812,1.5803084,2.708271
1.0172858,-0.65283775,-1.2741933,0.017256944,1.2657127,2.5738807
1.0172858,-0.65283775,-1.2741933,0.017256944,1.2657127,2.5738807
0.7233627,-1.007669,1.6339054,-0.32238412,1.2858714,2.3533583
0.7233627,-1.007669,1.6339054,-0.32238412,1.2858714,2.3533583
0.3184886,-1.9677422,3.2096434,-0.32788193,1.5149459,2.2635612
0.3184886,-1.9677422,3.2096434,-0.32788193,1.5149459,2.2635612
0.029621959,-2.7935061,4.0434675,-0.1965459,1.5430456,2.346639
0.029621959,-2.7935061,4.0434675,-0.1965459,1.5430456,2.346639
0.43742478,-2.9453576,3.3439417,0.06490443,1.613906,2.4981334
0.43742478,-2.9453576,3.3439417,0.06490443,1.613906,2.4981334
0.74504256,-2.8362389,0.9362755,0.19440787,1.7281377,2.5897632
0.74504256,-2.8362389,0.9362755,0.19440787,1.7281377,2.5897632
0.8542738,-2.7749991,-0.74935293,0.15409076,1.7311921,2.6435194
0.8542738,-2.7749991,-0.74935293,0.15409076,1.7311921,2.6435194
0.55070233,-2.8681612,-1.40311,0.047800206,1.5723672,2.6655104
0.55070233,-2.8681612,-1.40311,0.047800206,1.5723672,2.6655104
-0.04064384,-3.1824813,-1.3165326,-0.08475755,1.4330899,2.7204883
-0.04064384,-3.1824813,-1.3165326,-0.08475755,1.4330899,2.7204883
0.07713938,-3.100002,-0.30347824,-0.2228131,1.2913691,2.8530462
0.07713938,-3.100002,-0.30347824,-0.2228131,1.2913691,2.8530462
0.5455601,-2.6220744,0.6890278,-0.28512135,1.2394456,2.931237
0.5455601,-2.6220744,0.6890278,-0.28512135,1.2394456,2.931237
0.48826033,-2.4072895,1.3255501,-0.28878653,1.2241739,2.9153545
0.48826033,-2.4072895,1.3255501,-0.28878653,1.2241739,2.9153545
0.27564257,-2.1838918,1.759717,-0.27290404,1.2351695,2.9019153
0.27564257,-2.1838918,1.759717,-0.27290404,1.2351695,2.9019153
0.156256,-2.0660512,1.9195614,-0.23808473,1.3133603,2.9006937
0.156256,-2.0660512,1.9195614,-0.23808473,1.3133603,2.9006937
0.23189898,-1.9083974,1.8999405,-0.18921551,1.4129313,2.8848112
0.23189898,-1.9083974,1.8999405,-0.18921551,1.4129313,2.8848112
-0.013038199,-1.9686258,2.083312,-0.13790283,1.4850134,2.840829
-0.013038199,-1.9686258,2.083312,-0.13790283,1.4850134,2.840829
-0.20524493,-2.0570025,1.4301519,-0.021838432,1.5033394,2.8139508
-0.20524493,-2.0570025,1.4301519,-0.021838432,1.5033394,2.8139508
-0.060015637,-2.006135,1.2190275,-0.082924955,1.4672983,2.7748554
-0.060015637,-2.006135,1.2190275,-0.082924955,1.4672983,2.7748554
-0.38372314,-2.1216655,1.6976004,-0.20998493,1.4874569,2.6917777
-0.38372314,-2.1216655,1.6976004,-0.20998493,1.4874569,2.6917777
-0.7552146,-2.5626311,2.6810331,-0.28878653,1.3726143,2.6642888
-0.7552146,-2.5626311,2.6810331,-0.28878653,1.3726143,2.6642888
-0.7368236,-3.0359921,4.1823406,-0.1965459,1.3035865,2.6569583
-0.7368236,-3.0359921,4.1823406,-0.1965459,1.3035865,2.6569583
-1.1275525,-3.7596028,3.416276,0.07345655,1.4630222,2.6844473
-1.1275525,-3.7596028,3.416276,0.07345655,1.4630222,2.6844473
-1.1076832,-3.9279242,0.79171085,0.17058411,1.6218473,2.7766879
-1.1076832,-3.9279242,0.79171085,0.17058411,1.6218473,2.7766879
-1.0116342,-3.5720034,-0.46423054,0.06734789,1.5961909,2.8469374
-1.0116342,-3.5720034,-0.46423054,0.06734789,1.5961909,2.8469374
-1.1582766,-3.3232765,-0.28665447,0.05513059,1.2950343,2.87687
-1.1582766,-3.3232765,-0.28665447,0.05513059,1.2950343,2.87687
-0.94128835,-2.9418087,0.30763054,0.12965615,0.9999864,2.8848112
-0.94128835,-2.9418087,0.30763054,0.12965615,0.9999864,2.8848112
