accX,accY,accZ,angleX,angleY,angleZ,label
0.09666735,0.16041327,-0.120158195,0.059483003,-0.07261661,-0.063224554,stop
0.09666735,0.16041327,-0.120158195,0.059483003,-0.07261661,-0.063224554,stop
0.09666735,0.16041327,-0.120158195,0.05642868,-0.006032294,-0.07849618,stop
-0.12073475,0.13015556,0.0014123917,0.05642868,-0.006032294,-0.07849618,stop
-0.23215503,0.18751335,-0.09555626,0.075976364,0.038560867,-0.04734206,stop
-0.23215503,0.18751335,-0.09555626,0.075976364,0.038560867,-0.04734206,stop
-0.104200244,0.23469448,-0.17868614,0.06742425,0.042836927,-0.0125227375,stop
-0.104200244,0.23469448,-0.17868614,0.06742425,0.042836927,-0.0125227375,stop
-0.07277459,0.23341036,-0.0858984,0.051541757,0.04772385,0.004581489,stop
-0.07277459,0.23341036,-0.0858984,0.051541757,0.04772385,0.004581489,stop
-0.16971427,0.38005018,-0.21172237,0.049098294,0.02939789,0.0070249503,stop
-0.16971427,0.38005018,-0.21172237,0.049098294,0.02939789,0.0070249503,stop
-0.2574613,0.5398841,-0.42854595,0.091858864,-0.0066431593,0.003970624,stop
-0.2574613,0.5398841,-0.42854595,0.091858864,-0.0066431593,0.003970624,stop
-0.14888632,0.6926346,-0.5631876,0.09369145,-0.053068917,-0.0015271631,stop
-0.14888632,0.6926346,-0.5631876,0.09369145,-0.053068917,-0.0015271631,stop
-0.28921467,0.77694845,-0.53358746,0.08513934,-0.030466905,0.005192355,stop
-0.28921467,0.77694845,-0.53358746,0.08513934,-0.030466905,0.005192355,stop
-0.28921467,0.77694845,-0.53358746,0.03932445,0.0110719325,0.038179077,stop
-0.27838612,0.8698449,-0.8537693,0.03932445,0.0110719325,0.038179077,stop
-0.2528702,0.81644344,-0.69302034,-0.020540344,0.0025198192,0.060170226,stop
-0.2528702,0.81644344,-0.69302034,-0.020540344,0.0025198192,0.060170226,stop
-0.019531786,0.7511301,-0.39637756,-0.09506591,0.022678372,0.07422013,stop
-0.019531786,0.7511301,-0.39637756,-0.09506591,0.022678372,0.07422013,stop
0.029171646,0.58065987,-0.41374874,-0.085292056,0.023289237,0.05100725,stop
0.029171646,0.58065987,-0.41374874,-0.085292056,0.023289237,0.05100725,stop
-0.022982836,0.5177698,-0.32414818,-0.051083606,0.04589125,0.014966198,stop
-0.022982836,0.5177698,-0.32414818,-0.051083606,0.04589125,0.014966198,stop
0.05486864,0.5345192,-0.42434216,0.011224649,0.008017606,-0.005192355,stop
0.05486864,0.5345192,-0.42434216,0.011224649,0.008017606,-0.005192355,stop
0.31755453,0.5838146,-0.37575912,0.053985216,-0.0322995,-0.015577064,stop
0.31755453,0.5838146,-0.37575912,0.053985216,-0.0322995,-0.015577064,stop
0.31755453,0.5838146,-0.37575912,0.05459608,0.05627596,-0.024129177,stop
0.53195834,0.648026,-0.2746029,0.05459608,0.05627596,-0.024129177,stop
0.4924416,0.6892948,-0.6139598,0.08513934,0.09476047,-0.054061573,stop
0.4924416,0.6892948,-0.6139598,0.08513934,0.09476047,-0.054061573,stop
0.40126273,0.99442816,-0.95509577,0.09002627,0.10881037,-0.09010262,stop
0.40126273,0.99442816,-0.95509577,0.09002627,0.10881037,-0.09010262,stop
0.15796298,1.1958699,-0.5491977,0.0735329,0.155847,-0.14813483,stop
0.15796298,1.1958699,-0.5491977,0.0735329,0.155847,-0.14813483,stop
0.3856398,1.2719016,-0.9626255,0.11568261,0.1118647,-0.1872302,stop
0.3856398,1.2719016,-0.9626255,0.11568261,0.1118647,-0.1872302,stop
0.6551481,1.0906749,-0.7912097,-0.0077121737,-0.028023442,-0.2098322,stop
0.6551481,1.0906749,-0.7912097,-0.0077121737,-0.028023442,-0.2098322,stop
0.9506757,0.9734702,-0.83345747,-0.18547396,-0.087277375,-0.22999077,stop
0.9506757,0.9734702,-0.83345747,-0.18547396,-0.087277375,-0.22999077,stop
0.7090746,0.6684003,-0.053728104,-0.41577014,-0.2222786,-0.23182335,stop
0.7090746,0.6684003,-0.053728104,-0.41577014,-0.2222786,-0.23182335,stop
0.30010623,0.42706156,1.3587551,-0.5061782,-0.18135062,-0.20005837,stop
0.30010623,0.42706156,1.3587551,-0.5061782,-0.18135062,-0.20005837,stop
-0.2701429,0.47748232,2.2680721,-0.30214924,-0.087277375,-0.10720685,stop
-0.2701429,0.47748232,2.2680721,-0.30214924,-0.087277375,-0.10720685,stop
-0.2701429,0.47748232,2.2680721,0.043600507,-0.05429065,0.035124753,stop
-0.14277768,0.66101074,1.6584082,0.043600507,-0.05429065,0.035124753,stop
-0.13712728,0.71545744,0.0730257,0.2354122,0.055665094,0.17684549,stop
-0.13712728,0.71545744,0.0730257,0.2354122,0.055665094,0.17684549,stop
0.042320848,0.8427501,-1.2721324,0.24824037,0.08743009,0.27580565,stop
0.042320848,0.8427501,-1.2721324,0.24824037,0.08743009,0.27580565,stop
0.5122117,1.0138288,-1.9247298,0.12789991,0.08498663,0.2941316,stop
0.5122117,1.0138288,-1.9247298,0.12789991,0.08498663,0.2941316,stop
0.30979848,0.9002428,-0.51809406,0.03932445,0.05261077,0.20922135,stop
0.30979848,0.9002428,-0.51809406,0.03932445,0.05261077,0.20922135,stop
0.22656828,0.78204393,-0.25960732,0.1511128,-0.08239045,0.10903945,stop
0.22656828,0.78204393,-0.25960732,0.1511128,-0.08239045,0.10903945,stop
0.19703466,0.7484646,-0.24425888,0.21097758,-0.15141822,0.04550946,stop
0.19703466,0.7484646,-0.24425888,0.21097758,-0.15141822,0.04550946,stop
0.13101536,0.51404,-0.03442669,0.2457969,-0.10377073,0.03573562,stop
0.13101536,0.51404,-0.03442669,0.2457969,-0.10377073,0.03573562,stop
0.23554868,0.66980076,-1.0176411,0.32398766,-0.1202641,0.07238753,stop
0.23554868,0.66980076,-1.0176411,0.32398766,-0.1202641,0.07238753,stop
0.23554868,0.66980076,-1.0176411,0.72471523,-1.1080332,0.0106901415,stop
1.5769176,0.63517237,-2.138442,0.72471523,-1.1080332,0.0106901415,stop
1.4081599,0.88235426,-1.7421675,0.22075143,-0.5668066,-0.01985312,stop
1.4081599,0.88235426,-1.7421675,0.22075143,-0.5668066,-0.01985312,stop
0.9163619,0.85843945,-0.09512043,-0.12255484,-0.02069306,-0.13591751,stop
0.9163619,0.85843945,-0.09512043,-0.12255484,-0.02069306,-0.13591751,stop
0.5553491,1.0283957,0.17721367,-0.10056369,0.28657216,-0.10720685,stop
0.5553491,1.0283957,0.17721367,-0.10056369,0.28657216,-0.10720685,stop
0.2473199,1.1110492,-1.5240264,0.08575021,0.14973834,-0.043676864,stop
0.2473199,1.1110492,-1.5240264,0.08575021,0.14973834,-0.043676864,move
0.39224625,1.3316746,-0.4951024,-0.12744176,0.3898084,-0.030848695,move
0.39224625,1.3316746,-0.4951024,-0.12744176,0.3898084,-0.030848695,move
-0.30308193,1.2772989,1.3193502,-0.2777146,0.81741405,-0.042455133,move
-0.30308193,1.2772989,1.3193502,-0.2777146,0.81741405,-0.042455133,move
-0.69068664,1.1584578,2.3910465,-0.19219348,0.56940275,0.016798794,move
-0.69068664,1.1584578,2.3910465,-0.19219348,0.56940275,0.016798794,move
-0.8364204,1.4001589,3.3536787,-0.10178542,0.28107437,0.0888809,move
-0.8364204,1.4001589,3.3536787,-0.10178542,0.28107437,0.0888809,move
-1.2735983,2.0681548,2.1919432,0.12728904,0.1857794,0.19700404,move
-1.2735983,2.0681548,2.1919432,0.12728904,0.1857794,0.19700404,move
-1.2259722,1.5619855,-0.56010723,0.2140319,0.028176159,0.32834008,move
-1.2259722,1.5619855,-0.56010723,0.2140319,0.028176159,0.32834008,move
-0.25249994,1.0023017,-0.6161561,-0.15859589,-0.15263996,0.42363504,move
-0.25249994,1.0023017,-0.6161561,-0.15859589,-0.15263996,0.42363504,move
0.29809666,0.27232838,1.0351858,-0.4182136,-0.16546813,0.44257188,move
0.29809666,0.27232838,1.0351858,-0.4182136,-0.16546813,0.44257188,move
0.18574011,0.07121897,1.1395788,-0.1793653,0.047112983,0.46395215,move
0.18574011,0.07121897,1.1395788,-0.1793653,0.047112983,0.46395215,move
0.02859044,0.36654472,-1.3950572,0.27817276,0.3843106,0.48472157,move
0.02859044,0.36654472,-1.3950572,0.27817276,0.3843106,0.48472157,move
-0.3350271,0.6239729,-4.183709,0.4443281,0.44845146,0.4541783,move
-0.3350271,0.6239729,-4.183709,0.4443281,0.44845146,0.4541783,move
-1.0031238,0.859066,-4.33603,0.13095424,0.48388162,0.39003745,move
-1.0031238,0.859066,-4.33603,0.13095424,0.48388162,0.39003745,move
-1.3211504,0.8048115,-1.925271,-0.12622003,0.43073636,0.3576616,move
-1.3211504,0.8048115,-1.925271,-0.12622003,0.43073636,0.3576616,move
-0.8977225,0.20745087,-0.58188343,-0.12988523,0.25480717,0.3735441,move
-0.8977225,0.20745087,-0.58188343,-0.12988523,0.25480717,0.3735441,move
-0.3723157,-0.43398762,-0.3140688,-0.13599387,0.030619621,0.3222314,move
-0.3723157,-0.43398762,-0.3140688,-0.13599387,0.030619621,0.3222314,move
0.2904547,-0.6561527,-0.037858963,-0.13049608,-0.14530957,0.19822577,move
0.2904547,-0.6561527,-0.037858963,-0.13049608,-0.14530957,0.19822577,move
0.8242894,-0.5950742,-0.648263,0.07780896,-0.109268524,0.042455133,move
0.8242894,-0.5950742,-0.648263,0.07780896,-0.109268524,0.042455133,move
0.7703087,-0.101570606,-1.8490272,0.20425807,-0.06834055,-0.06566802,move
0.7703087,-0.101570606,-1.8490272,0.20425807,-0.06834055,-0.06566802,move
0.8507294,0.20172071,-2.352271,0.14256068,-0.06650795,-0.10720685,move
0.8507294,0.20172071,-2.352271,0.14256068,-0.06650795,-0.10720685,move
0.7692653,0.85902405,-2.3426185,0.093080595,-0.08055785,-0.12614368,move
0.7692653,0.85902405,-2.3426185,0.093080595,-0.08055785,-0.12614368,move
0.21732032,1.1517897,-2.3510885,0.061926465,0.0037415496,-0.14019357,move
0.21732032,1.1517897,-2.3510885,0.061926465,0.0037415496,-0.14019357,move
-0.1280055,1.293685,-1.5897322,0.06498079,0.076434515,-0.14935656,move
-0.1280055,1.293685,-1.5897322,0.06498079,0.076434515,-0.14935656,move
-0.5037906,1.2461829,-0.8721261,0.13767375,0.105756044,-0.12675454,move
-0.5037906,1.2461829,-0.8721261,0.13767375,0.105756044,-0.12675454,move
-0.76422185,1.3248754,-0.4674716,0.19020817,0.0800997,-0.06261369,move
-0.76422185,1.3248754,-0.4674716,0.19020817,0.0800997,-0.06261369,move
-0.6135792,1.6260867,0.19403839,0.19448422,0.0055741454,0.03145956,move
-0.6135792,1.6260867,0.19403839,0.19448422,0.0055741454,0.03145956,move
-0.29502225,1.7887969,0.5985346,0.19631682,-0.083001316,0.08399397,move
-0.29502225,1.7887969,0.5985346,0.19631682,-0.083001316,0.08399397,move
0.030616283,1.7271547,0.92414856,0.1651627,-0.20150918,0.08032878,move
0.030616283,1.7271547,0.92414856,0.1651627,-0.20150918,0.08032878,move
0.2702561,1.5115561,1.6830988,0.052763484,-0.26870435,0.011911872,move
0.2702561,1.5115561,1.6830988,0.052763484,-0.26870435,0.011911872,move
0.1900962,1.7289195,3.0814714,-0.07490735,-0.20700696,-0.07666359,move
0.1900962,1.7289195,3.0814714,-0.07490735,-0.20700696,-0.07666359,move
0.38065475,2.0911174,2.9830704,0.008781188,-0.1324814,-0.11942416,move
0.38065475,2.0911174,2.9830704,0.008781188,-0.1324814,-0.11942416,move
1.1381154,1.3550248,1.4939327,0.069867715,-0.28092167,-0.14385876,move
1.1381154,1.3550248,1.4939327,0.069867715,-0.28092167,-0.14385876,move
0.8881483,0.40830994,1.2819309,-0.20135646,-0.32123876,-0.23060162,move
0.8881483,0.40830994,1.2819309,-0.20135646,-0.32123876,-0.23060162,move
0.29447892,-0.42581892,1.795269,-0.479911,-0.077503525,-0.33750305,move
0.29447892,-0.42581892,1.795269,-0.479911,-0.077503525,-0.33750305,move
-0.06646341,-0.7318063,2.1830206,-0.5440519,0.18944459,-0.36743546,move
-0.06646341,-0.7318063,2.1830206,-0.5440519,0.18944459,-0.36743546,move
-0.08537197,-0.6079998,1.5632906,-0.31680998,0.16012305,-0.34300083,move
-0.08537197,-0.6079998,1.5632906,-0.31680998,0.16012305,-0.34300083,move
-0.08776629,-0.5150552,0.44395447,-0.17570011,0.033673946,-0.3118467,move
-0.08776629,-0.5150552,0.44395447,-0.17570011,0.033673946,-0.3118467,move
0.24003345,-0.6036787,-0.52538776,-0.1372156,-0.13187054,-0.28924468,move
0.24003345,-0.6036787,-0.52538776,-0.1372156,-0.13187054,-0.28924468,move
0.23650503,-0.57488394,-0.5423002,-0.13965906,-0.3132975,-0.30268374,move
0.23650503,-0.57488394,-0.5423002,-0.13965906,-0.3132975,-0.30268374,move
1.5016415,-1.1676481,-1.0686159,-0.2092977,-0.40370557,-0.37782016,move
1.5016415,-1.1676481,-1.0686159,-0.2092977,-0.40370557,-0.37782016,move
1.4215922,-1.5457423,-0.94645643,-0.2691625,-0.27420214,-0.43951756,move
1.4215922,-1.5457423,-0.94645643,-0.2691625,-0.27420214,-0.43951756,move
0.85562474,-1.6237581,-0.1967125,-0.27710375,-0.024969118,-0.43951756,move
0.85562474,-1.6237581,-0.1967125,-0.27710375,-0.024969118,-0.43951756,move
0.49681664,-1.4802182,-0.35633945,-0.10606148,0.12713633,-0.37782016,move
0.49681664,-1.4802182,-0.35633945,-0.10606148,0.12713633,-0.37782016,move
0.34141964,-1.191915,-1.3263965,0.1333977,0.076434515,-0.3387248,move
0.34141964,-1.191915,-1.3263965,0.1333977,0.076434515,-0.3387248,move
0.12415856,-0.85212564,-2.169536,0.24274258,0.04589125,-0.32650748,move
0.12415856,-0.85212564,-2.169536,0.24274258,0.04589125,-0.32650748,move
-0.1437012,-0.41403055,-2.4614067,0.25434902,0.058719423,-0.30390546,move
-0.1437012,-0.41403055,-2.4614067,0.25434902,0.058719423,-0.30390546,move
-0.18491101,0.022759438,-2.4218493,0.24640776,0.05505423,-0.2556471,move
-0.18491101,0.022759438,-2.4218493,0.24640776,0.05505423,-0.2556471,move
-0.23296523,0.3369975,-1.9742727,0.22197317,0.039171733,-0.183565,move
-0.23296523,0.3369975,-1.9742727,0.22197317,0.039171733,-0.183565,move
-0.17976952,0.4411521,-1.7698555,0.22869268,0.050778173,-0.1469131,move
-0.17976952,0.4411521,-1.7698555,0.22869268,0.050778173,-0.1469131,move
0.021623015,0.5071492,-1.4021659,0.19020817,0.030619621,-0.12675454,move
0.021623015,0.5071492,-1.4021659,0.19020817,0.030619621,-0.12675454,move
0.15799212,0.53916216,-0.92106676,0.18837558,-0.11537717,-0.13775012,move
0.15799212,0.53916216,-0.92106676,0.18837558,-0.11537717,-0.13775012,move
0.017798781,0.59099245,0.09512615,0.21036673,-0.26259568,-0.13836098,move
0.017798781,0.59099245,0.09512615,0.21036673,-0.26259568,-0.13836098,move
-0.25467646,0.8412051,0.8646326,0.29283354,-0.19906572,-0.093767814,move
-0.25467646,0.8412051,0.8646326,0.29283354,-0.19906572,-0.093767814,move
-0.5954604,1.035552,1.3985586,0.42050436,0.04100433,0.05589417,move
-0.5954604,1.035552,1.3985586,0.42050436,0.04100433,0.05589417,move
-0.59119177,0.95825243,1.4457912,0.521908,0.20105103,0.2434298,move
-0.59119177,0.95825243,1.4457912,0.521908,0.20105103,0.2434298,move
-0.85675955,1.6724682,1.7332592,0.5115233,0.33788484,0.410196,move
-0.85675955,1.6724682,1.7332592,0.5115233,0.33788484,0.410196,move
-1.2517934,2.8246322,1.729353,0.38507417,0.5474116,0.464563,move
-1.2517934,2.8246322,1.729353,0.38507417,0.5474116,0.464563,move
-1.6781096,2.621686,0.08756447,0.4076762,0.3684281,0.4364632,move
-1.6781096,2.621686,0.08756447,0.4076762,0.3684281,0.4364632,move
-2.005114,1.8381553,-1.1879349,0.099189244,0.10025826,0.46211955,move
-2.005114,1.8381553,-1.1879349,0.099189244,0.10025826,0.46211955,move
-2.0473619,1.8420944,-1.1964083,-0.8262716,-0.25404358,0.46273044,move
-2.0473619,1.8420944,-1.1964083,-0.8262716,-0.25404358,0.46273044,move
0.34133834,-1.0469537,5.6186857,-1.6710982,-0.53565246,0.4700608,move
0.34133834,-1.0469537,5.6186857,-1.6710982,-0.53565246,0.4700608,move
0.3532459,-1.0419035,8.425411,-1.2031754,-0.44219008,0.41325033,move
0.3532459,-1.0419035,8.425411,-1.2031754,-0.44219008,0.41325033,move
0.43618354,-0.90199614,3.967575,-0.09567677,0.12713633,0.3839288,move
0.43618354,-0.90199614,3.967575,-0.09567677,0.12713633,0.3839288,move
0.05720657,-0.71962786,-0.6881423,0.35025486,0.31772628,0.31429017,move
0.05720657,-0.71962786,-0.6881423,0.35025486,0.31772628,0.31429017,move
-0.44463718,-0.5633707,-2.3644958,0.26412287,0.3751476,0.24587326,move
-0.44463718,-0.5633707,-2.3644958,0.26412287,0.3751476,0.24587326,move
-0.8462353,-0.73144674,-2.8416924,0.12851077,0.3635412,0.2489276,move
-0.8462353,-0.73144674,-2.8416924,0.12851077,0.3635412,0.2489276,move
-0.57524425,-1.059855,-3.2914858,-0.027870728,0.27924177,0.30757064,move
-0.57524425,-1.059855,-3.2914858,-0.027870728,0.27924177,0.30757064,move
-0.1774944,-1.4542327,-2.9785514,-0.20135646,0.21571179,0.31306845,move
-0.1774944,-1.4542327,-2.9785514,-0.20135646,0.21571179,0.31306845,move
-0.17387575,-1.4235325,-2.9961553,-0.21723895,0.1698969,0.2874121,move
-0.17387575,-1.4235325,-2.9961553,-0.21723895,0.1698969,0.2874121,move
0.04669553,-1.5364785,-2.7109094,-0.12072224,0.10514518,0.23548855,move
0.04669553,-1.5364785,-2.7109094,-0.12072224,0.10514518,0.23548855,move
0.02093923,-1.1663563,-2.0590253,-0.005879578,-0.11598804,0.2415972,move
0.02093923,-1.1663563,-2.0590253,-0.005879578,-0.11598804,0.2415972,move
-0.003985822,-0.63975334,-1.7353458,0.12056953,-0.26259568,0.24709499,move
-0.003985822,-0.63975334,-1.7353458,0.12056953,-0.26259568,0.24709499,move
-0.003985822,-0.63975334,-1.7353458,0.2176971,-0.18196149,0.29168814,move
0.071338594,-0.23977375,-1.4735308,0.2176971,-0.18196149,0.29168814,move
0.33162516,-0.09925985,-1.6023049,0.3111595,-0.1501965,0.31306845,move
0.33162516,-0.09925985,-1.6023049,0.3111595,-0.1501965,0.31306845,move
0.48849013,-0.07669306,-1.2321739,0.20792326,-0.17890716,0.2593123,move
0.48849013,-0.07669306,-1.2321739,0.20792326,-0.17890716,0.2593123,move
0.42266983,-0.15186548,0.049656868,0.08575021,-0.13370313,0.18661933,move
0.42266983,-0.15186548,0.049656868,0.08575021,-0.13370313,0.18661933,move
0.40165576,-0.30043983,1.3646612,0.13400856,0.06299548,0.12492194,move
0.40165576,-0.30043983,1.3646612,0.13400856,0.06299548,0.12492194,move
0.20021045,-0.19383669,1.963769,0.23724478,0.21876612,0.06688975,move
0.20021045,-0.19383669,1.963769,0.23724478,0.21876612,0.06688975,move
0.20289555,0.055858612,1.4235888,0.3600287,0.18028161,0.036957346,move
0.20289555,0.055858612,1.4235888,0.3600287,0.18028161,0.036957346,move
0.60236037,0.30105877,1.3799801,0.28367054,-0.07383834,-0.018020526,move
0.60236037,0.30105877,1.3799801,0.28367054,-0.07383834,-0.018020526,move
1.2591298,0.7723489,2.8061886,0.17860173,-0.16119206,-0.10842858,move
1.2591298,0.7723489,2.8061886,0.17860173,-0.16119206,-0.10842858,move
1.2278454,1.2414312,3.7478685,0.2830597,-0.1483639,-0.2415972,move
1.2278454,1.2414312,3.7478685,0.2830597,-0.1483639,-0.2415972,move
1.8831394,1.4437056,2.3933277,0.6159812,-0.2485458,-0.38759398,move
1.8831394,1.4437056,2.3933277,0.6159812,-0.2485458,-0.38759398,move
2.1397665,1.0945163,-0.92750883,0.6501897,-0.19478965,-0.50488013,move
2.1397665,1.0945163,-0.92750883,0.6501897,-0.19478965,-0.50488013,move
1.3533845,0.97995996,-0.67445564,-0.069409564,-0.034742963,-0.65209866,move
1.3533845,0.97995996,-0.67445564,-0.069409564,-0.034742963,-0.65209866,move
-0.263022,0.41708803,0.6708565,-0.7260897,0.5083162,-0.72051555,move
-0.263022,0.41708803,0.6708565,-0.7260897,0.5083162,-0.72051555,move
-1.2448794,-0.23444128,2.1621675,-1.0437397,0.8326857,-0.66859204,move
-1.2448794,-0.23444128,2.1621675,-1.0437397,0.8326857,-0.66859204,move
-1.1682203,-0.33893776,2.6552172,-1.0119747,0.8485682,-0.60994893,move
-1.1682203,-0.33893776,2.6552172,-1.0119747,0.8485682,-0.60994893,move
-0.5696163,-0.6627302,1.4158697,-0.63751423,0.37270415,-0.57696223,move
-0.5696163,-0.6627302,1.4158697,-0.63751423,0.37270415,-0.57696223,move
0.736362,-0.6810622,0.103569984,-0.31680998,-0.26503915,-0.50976706,move
0.736362,-0.6810622,0.103569984,-0.31680998,-0.26503915,-0.50976706,move
1.268464,-0.9155612,-0.6019244,-0.31680998,-0.5796348,-0.50854534,move
1.268464,-0.9155612,-0.6019244,-0.31680998,-0.5796348,-0.50854534,move
1.0878623,-1.1585679,-0.63601065,-0.425544,-0.49472448,-0.4877759,move
1.0878623,-1.1585679,-0.63601065,-0.425544,-0.49472448,-0.4877759,move
0.5193764,-1.3340976,-0.25563717,-0.31009048,-0.28092167,-0.355829,move
0.5193764,-1.3340976,-0.25563717,-0.31009048,-0.28092167,-0.355829,move
0.5193764,-1.3340976,-0.25563717,-0.06452264,-0.051847186,-0.18600847,move
0.57134813,-1.1918616,-1.0028896,-0.06452264,-0.051847186,-0.18600847,move
0.3555296,-0.9649675,-1.4855237,0.0613156,-0.05062546,-0.10354166,move
0.3555296,-0.9649675,-1.4855237,0.0613156,-0.05062546,-0.10354166,move
0.1646905,-0.6644883,-1.458148,0.13645202,0.004352415,-0.09987647,move
0.1646905,-0.6644883,-1.458148,0.13645202,0.004352415,-0.09987647,move
-0.14148235,-0.20367861,-1.4883485,0.2738967,0.014126259,-0.12064589,move
-0.14148235,-0.20367861,-1.4883485,0.2738967,0.014126259,-0.12064589,move
-0.13098526,-0.2542286,-1.4594626,0.4302782,-0.0603993,-0.14630222,move
-0.13098526,-0.2542286,-1.4594626,0.4302782,-0.0603993,-0.14630222,move
0.012203932,0.6511035,-1.8797474,0.44982588,-0.17524196,-0.18173242,move
0.012203932,0.6511035,-1.8797474,0.44982588,-0.17524196,-0.18173242,move
0.08795118,0.80030155,-0.93958235,0.43333253,-0.27786732,-0.21288654,move
0.08795118,0.80030155,-0.93958235,0.43333253,-0.27786732,-0.21288654,move
0.2706915,0.6124401,-0.29803848,0.4779257,-0.40065125,-0.23426682,move
0.2706915,0.6124401,-0.29803848,0.4779257,-0.40065125,-0.23426682,move
0.3890354,0.23165607,0.091846466,0.46509752,-0.42447498,-0.22204952,move
0.3890354,0.23165607,0.091846466,0.46509752,-0.42447498,-0.22204952,move
0.24218398,0.059862137,1.0234728,0.426613,-0.22166772,-0.124311075,move
0.24218398,0.059862137,1.0234728,0.426613,-0.22166772,-0.124311075,move
0.030062914,-0.09993935,1.4854841,0.5054146,0.012293663,-0.006414085,move
0.030062914,-0.09993935,1.4854841,0.5054146,0.012293663,-0.006414085,move
-0.14786291,0.06493664,0.8377991,0.5921575,0.20044015,0.13958271,move
-0.14786291,0.06493664,0.8377991,0.5921575,0.20044015,0.13958271,move
-0.5977328,0.23015404,1.5174179,0.48892128,0.17600554,0.27152961,move
-0.5977328,0.23015404,1.5174179,0.48892128,0.17600554,0.27152961,move
-0.8675717,0.28333807,2.5797806,0.39545888,0.17905988,0.4120286,move
-0.8675717,0.28333807,2.5797806,0.39545888,0.17905988,0.4120286,move
-1.1977913,1.1869564,3.1359892,0.4162283,0.26580274,0.5305365,move
-1.1977913,1.1869564,3.1359892,0.4162283,0.26580274,0.5305365,move
-1.3719654,1.944231,0.8219757,0.5994879,0.4020257,0.6215554,move
-1.3719654,1.944231,0.8219757,0.5994879,0.4020257,0.6215554,move
-1.3939407,1.703989,-1.5562348,0.40156755,0.18333593,0.6600399,move
-1.3939407,1.703989,-1.5562348,0.40156755,0.18333593,0.6600399,move
-0.072797894,0.6507764,-1.1821542,-0.28015807,-0.05551238,0.6582073,move
-0.072797894,0.6507764,-1.1821542,-0.28015807,-0.05551238,0.6582073,move
0.77109784,-0.5885649,3.1127934,-1.105437,-0.34078646,0.5323691,move
0.77109784,-0.5885649,3.1127934,-1.105437,-0.34078646,0.5323691,move
0.67053473,-0.64339733,5.6149883,-1.0498483,-0.27786732,0.36987892,move
0.67053473,-0.64339733,5.6149883,-1.0498483,-0.27786732,0.36987892,move
0.40264118,-0.9398718,3.0145779,-0.36506835,0.008628472,0.27152961,move
0.40264118,-0.9398718,3.0145779,-0.36506835,0.008628472,0.27152961,move
-0.33422482,-0.78944874,0.0023651123,-0.004046982,0.16317739,0.1908954,move
-0.33422482,-0.78944874,0.0023651123,-0.004046982,0.16317739,0.1908954,move
-0.9891262,-0.89914083,-0.91954994,-0.037644573,0.23098342,0.18600847,move
-0.9891262,-0.89914083,-0.91954994,-0.037644573,0.23098342,0.18600847,move
-1.0635989,-1.1260815,-1.272429,-0.09506591,0.13691017,0.24281894,move
-1.0635989,-1.1260815,-1.272429,-0.09506591,0.13691017,0.24281894,move
-0.36353618,-1.4060392,-2.0640936,-0.06818783,-0.04268421,0.2996294,move
-0.36353618,-1.4060392,-2.0640936,-0.06818783,-0.04268421,0.2996294,move
0.5244225,-1.6215732,-3.1619658,-0.0828486,-0.18196149,0.27580565,move
0.5244225,-1.6215732,-3.1619658,-0.0828486,-0.18196149,0.27580565,move
0.5244225,-1.6215732,-3.1619658,-0.17081319,-0.32001704,0.16340645,move
0.7716565,-1.8760657,-3.1567159,-0.17081319,-0.32001704,0.16340645,move
0.49722713,-1.7029853,-2.0338516,-0.20013472,-0.41775545,0.083383106,move
0.49722713,-1.7029853,-2.0338516,-0.20013472,-0.41775545,0.083383106,move
0.31232712,-1.3009691,-1.1604052,-0.019318614,-0.5509241,0.06688975,move
0.31232712,-1.3009691,-1.1604052,-0.019318614,-0.5509241,0.06688975,move
0.5427988,-0.49976492,-1.3261771,0.263512,-0.4574617,0.10170906,move
0.5427988,-0.49976492,-1.3261771,0.263512,-0.4574617,0.10170906,move
0.6372808,0.07356787,-2.4628615,0.48403436,-0.32429308,0.089491755,move
0.6372808,0.07356787,-2.4628615,0.48403436,-0.32429308,0.089491755,move
0.26402333,0.416142,-2.4636436,0.45959973,-0.21800253,0.03145956,move
0.26402333,0.416142,-2.4636436,0.45959973,-0.21800253,0.03145956,move
-0.34766355,0.31483984,-1.2340035,0.29283354,-0.044516806,-0.013744468,move
-0.34766355,0.31483984,-1.2340035,0.29283354,-0.044516806,-0.013744468,move
-0.58592904,0.20272684,0.05791092,0.13461943,0.31161764,-0.0106901415,move
-0.58592904,0.20272684,0.05791092,0.13461943,0.31161764,-0.0106901415,move
-0.7558907,-0.097613335,1.1020441,0.16821702,0.30978504,-0.032070424,move
-0.7558907,-0.097613335,1.1020441,0.16821702,0.30978504,-0.032070424,move
-0.61433864,-0.06271124,1.5925856,0.27206412,0.13874277,-0.046120327,move
-0.61433864,-0.06271124,1.5925856,0.27206412,0.13874277,-0.046120327,move
-0.4599644,0.14415216,1.9746075,0.37041342,-0.2008983,-0.033292156,move
-0.4599644,0.14415216,1.9746075,0.37041342,-0.2008983,-0.033292156,move
0.3172168,0.56289434,1.5654812,0.4095088,-0.4751768,-0.023518313,move
0.3172168,0.56289434,1.5654812,0.4095088,-0.4751768,-0.023518313,move
1.0617447,0.72635174,2.0484104,0.34903312,-0.4983897,-0.07238753,move
1.0617447,0.72635174,2.0484104,0.34903312,-0.4983897,-0.07238753,move
1.0617447,0.72635174,2.0484104,0.35880697,-0.26320657,-0.19333886,move
1.4036099,2.0773911,2.458506,0.35880697,-0.26320657,-0.19333886,move
1.4036099,2.0773911,2.458506,0.35880697,-0.26320657,-0.19333886,move
1.7811356,1.7491555,0.25584984,0.44066292,-0.1642464,-0.3747658,move
1.7811356,1.7491555,0.25584984,0.17799085,-0.35483634,-0.46944994,move
1.577046,1.3706484,-0.110076904,0.17799085,-0.35483634,-0.46944994,move
0.8652146,0.4592843,0.17547083,-0.44081563,-0.18257235,-0.5329799,move
0.8652146,0.4592843,0.17547083,-0.44081563,-0.18257235,-0.5329799,move
-0.14360541,-0.63629484,3.5307817,-1.0449613,0.23587035,-0.48472157,move
-0.14360541,-0.63629484,3.5307817,-1.0449613,0.23587035,-0.48472157,move
-0.73157215,-0.64621353,5.446686,-1.0742829,0.7422776,-0.40530908,move
-0.73157215,-0.64621353,5.446686,-1.0742829,0.7422776,-0.40530908,move
-0.80700064,-0.6004939,3.1362839,-0.5776495,0.7514406,-0.33383787,move
-0.80700064,-0.6004939,3.1362839,-0.5776495,0.7514406,-0.33383787,move
-0.80700064,-0.6004939,3.1362839,-0.13416128,0.17295122,-0.31490102,move
-0.40422273,-0.70801306,0.02235508,-0.13416128,0.17295122,-0.31490102,move
0.31932423,-0.8794956,-1.4333344,-0.02603813,-0.32612568,-0.34238997,move
0.31932423,-0.8794956,-1.4333344,-0.02603813,-0.32612568,-0.34238997,move
0.85839236,-0.9098978,-1.298717,-0.04008803,-0.5264895,-0.34788775,move
0.85839236,-0.9098978,-1.298717,-0.04008803,-0.5264895,-0.34788775,move
0.95165557,-1.1122832,-1.0164871,-0.08040514,-0.35972327,-0.32711834,move
0.95165557,-1.1122832,-1.0164871,-0.08040514,-0.35972327,-0.32711834,move
0.69806814,-1.3734989,-1.3972478,-0.16287194,0.035506543,-0.2782491,move
0.69806814,-1.3734989,-1.3972478,-0.16287194,0.035506543,-0.2782491,move
0.6345879,-1.4165585,-1.9224796,-0.19280434,0.14973834,-0.21777347,move
0.6345879,-1.4165585,-1.9224796,-0.19280434,0.14973834,-0.21777347,move
0.50139093,-1.4141815,-1.9068298,-0.14698945,-0.06834055,-0.20555615,move
0.50139093,-1.4141815,-1.9068298,-0.14698945,-0.06834055,-0.20555615,move
0.44707844,-1.1605711,-1.6986547,-0.025427265,-0.19784398,-0.21655174,move
0.44707844,-1.1605711,-1.6986547,-0.025427265,-0.19784398,-0.21655174,move
0.54007614,-0.7614112,-1.8046403,0.16027577,-0.20700696,-0.25625798,move
0.54007614,-0.7614112,-1.8046403,0.16027577,-0.20700696,-0.25625798,move
0.71149737,-0.2883873,-1.9459443,0.24640776,-0.11904237,-0.30085114,move
0.71149737,-0.2883873,-1.9459443,0.24640776,-0.11904237,-0.30085114,move
0.3919063,0.1467514,-1.8592868,0.22869268,-0.048181996,-0.30940324,move
0.3919063,0.1467514,-1.8592868,0.22869268,-0.048181996,-0.30940324,move
0.06725186,0.34376478,-1.2847781,0.15905404,-0.05551238,-0.2678644,move
0.06725186,0.34376478,-1.2847781,0.15905404,-0.05551238,-0.2678644,move
0.07069594,0.32648945,-0.91497993,0.12179126,-0.09399689,-0.20066923,move
0.07069594,0.32648945,-0.91497993,0.12179126,-0.09399689,-0.20066923,move
-0.14045697,0.103577614,0.05941677,0.05337435,-0.11598804,-0.14446963,move
-0.14045697,0.103577614,0.05941677,0.05337435,-0.11598804,-0.14446963,move
-0.18471402,0.06630087,1.1273823,0.11385001,-0.11476631,-0.08032878,move
-0.18471402,0.06630087,1.1273823,0.11385001,-0.11476631,-0.08032878,move
-0.21349949,0.12177086,1.7593908,0.23419046,-0.034132097,-0.018020526,move
-0.21349949,0.12177086,1.7593908,0.23419046,-0.034132097,-0.018020526,move
-0.35403895,0.32952356,2.1012707,0.3759112,0.07460192,0.090713486,move
-0.35403895,0.32952356,2.1012707,0.3759112,0.07460192,0.090713486,move
-0.73152447,0.45840025,2.1006126,0.4815909,0.18516853,0.22143865,move
-0.73152447,0.45840025,2.1006126,0.4815909,0.18516853,0.22143865,move
-0.47485042,0.5075865,2.223937,0.4883104,0.31833714,0.35643986,move
-0.47485042,0.5075865,2.223937,0.4883104,0.31833714,0.35643986,move
-0.44460183,1.7783709,1.8717346,0.5286275,0.48388162,0.42302418,move
-0.44460183,1.7783709,1.8717346,0.5286275,0.48388162,0.42302418,move
-0.6422475,1.9127522,-0.15240526,0.64224845,0.47655123,0.3979787,move
-0.6422475,1.9127522,-0.15240526,0.64224845,0.47655123,0.3979787,move
-0.8544404,1.9404974,-1.0141473,0.50174946,0.3458261,0.40469822,move
-0.8544404,1.9404974,-1.0141473,0.50174946,0.3458261,0.40469822,move
-0.3763981,0.7783003,-1.8530889,-0.08040514,0.34399348,0.38759398,move
-0.3763981,0.7783003,-1.8530889,-0.08040514,0.34399348,0.38759398,move
-0.042856336,-0.4268813,1.5187249,-1.2074515,-0.2186134,0.3594942,move
-0.042856336,-0.4268813,1.5187249,-1.2074515,-0.2186134,0.3594942,move
-0.031787753,-0.7874727,5.276951,-1.3442854,-0.2955824,0.34238997,move
-0.031787753,-0.7874727,5.276951,-1.3442854,-0.2955824,0.34238997,move
-0.70798165,-0.77201176,4.438306,-0.7083746,-0.1202641,0.35460728,move
-0.70798165,-0.77201176,4.438306,-0.7083746,-0.1202641,0.35460728,move
-0.3019418,-1.1692953,1.8036194,-0.21968241,0.0012980887,0.33078352,move
-0.3019418,-1.1692953,1.8036194,-0.21968241,0.0012980887,0.33078352,move
-0.3740626,-1.1043482,0.18642998,-0.092622444,0.05627596,0.29718593,move
-0.3740626,-1.1043482,0.18642998,-0.092622444,0.05627596,0.29718593,move
-0.41038656,-1.0825834,-0.2173357,-0.10361802,-0.017027868,0.2770274,move
-0.41038656,-1.0825834,-0.2173357,-0.10361802,-0.017027868,0.2770274,move
0.02295953,-1.2020526,-1.0703282,0.014278975,-0.13553573,0.27030787,move
0.02295953,-1.2020526,-1.0703282,0.014278975,-0.13553573,0.27030787,move
0.659894,-1.2657495,-2.3800092,0.0894154,-0.19662225,0.20189096,move
0.659894,-1.2657495,-2.3800092,0.0894154,-0.19662225,0.20189096,move
0.60922587,-1.2778254,-2.3750024,-0.0028252518,-0.20517437,0.058337633,move
0.60922587,-1.2778254,-2.3750024,-0.0028252518,-0.20517437,0.058337633,move
0.74683917,-1.1676664,-1.4423747,0.035659257,-0.26870435,-0.038179077,move
0.74683917,-1.1676664,-1.4423747,0.035659257,-0.26870435,-0.038179077,move
0.5076452,-0.9654436,-1.2401366,0.29710957,-0.2906955,-0.07788532,move
0.5076452,-0.9654436,-1.2401366,0.29710957,-0.2906955,-0.07788532,move
0.28316015,-0.4258461,-2.1440172,0.55489475,-0.26992607,-0.03023783,move
0.28316015,-0.4258461,-2.1440172,0.55489475,-0.26992607,-0.03023783,move
0.4992646,0.2900529,-3.1408134,0.6746243,-0.27786732,-0.0290161,move
0.4992646,0.2900529,-3.1408134,0.6746243,-0.27786732,-0.0290161,move
0.13667095,0.2932644,-3.1809669,0.49441907,-0.22655465,-0.10293079,move
0.13667095,0.2932644,-3.1809669,0.49441907,-0.22655465,-0.10293079,move
-0.404635,0.12523556,-1.6536174,0.15905404,-0.071394876,-0.13530666,move
-0.404635,0.12523556,-1.6536174,0.15905404,-0.071394876,-0.13530666,move
-0.50981146,-0.06999493,0.061617374,0.05642868,-0.017638734,-0.1414153,move
-0.50981146,-0.06999493,0.061617374,0.05642868,-0.017638734,-0.1414153,move
-0.4707309,-0.17830658,0.9303851,0.1633301,-0.04024075,-0.11575896,move
-0.4707309,-0.17830658,0.9303851,0.1633301,-0.04024075,-0.11575896,move
-0.25091246,-0.14184713,0.82305145,0.25557074,-0.10682506,-0.086437434,move
-0.25091246,-0.14184713,0.82305145,0.25557074,-0.10682506,-0.086437434,move
-0.084443465,-0.035433292,0.85841703,0.18837558,-0.35300374,-0.06688975,move
-0.084443465,-0.035433292,0.85841703,0.18837558,-0.35300374,-0.06688975,move
0.51862895,0.14989614,1.7374368,0.09063713,-0.501444,-0.07360926,move
0.51862895,0.14989614,1.7374368,0.09063713,-0.501444,-0.07360926,move
0.8159415,0.56589794,3.1293721,0.118126065,-0.3542255,-0.14935656,move
0.8159415,0.56589794,3.1293721,0.118126065,-0.3542255,-0.14935656,move
0.8474451,2.2778096,2.174624,0.28733575,-0.021914791,-0.2941316,move
0.8474451,2.2778096,2.174624,0.28733575,-0.021914791,-0.2941316,move
1.2257824,1.4231234,-0.11490631,0.3282637,-0.13736832,-0.44929138,move
1.2257824,1.4231234,-0.11490631,0.3282637,-0.13736832,-0.44929138,move
0.9262946,1.2555709,0.52833605,-0.20685424,-0.19112447,-0.56596667,move
0.9262946,1.2555709,0.52833605,-0.20685424,-0.19112447,-0.56596667,move
-0.05265285,0.25545406,2.5041828,-0.74991345,0.059941154,-0.605062,move
-0.05265285,0.25545406,2.5041828,-0.74991345,0.059941154,-0.605062,move
-0.38829017,-0.30618238,5.343826,-0.98020965,0.47166434,-0.52687126,move
-0.38829017,-0.30618238,5.343826,-0.98020965,0.47166434,-0.52687126,move
-0.8468993,-0.24781418,5.072197,-0.67477703,0.6970736,-0.464563,move
-0.8468993,-0.24781418,5.072197,-0.67477703,0.6970736,-0.464563,move
-0.8468993,-0.24781418,5.072197,-0.17692184,0.24992025,-0.36254853,move
-0.7060503,-0.31698322,1.574233,-0.17692184,0.24992025,-0.36254853,move
-0.7060503,-0.31698322,1.574233,-0.024816401,-0.3468951,-0.29046643,move
-0.20464092,-0.47725773,-0.17408037,-0.024816401,-0.3468951,-0.29046643,move
0.61066496,-0.7103481,-0.45356417,-0.061468314,-0.61139977,-0.24770586,move
0.61066496,-0.7103481,-0.45356417,-0.061468314,-0.61139977,-0.24770586,move
1.0417396,-0.9464526,-0.13813686,-0.09506591,-0.44646615,-0.20677789,move
1.0417396,-0.9464526,-0.13813686,-0.09506591,-0.44646615,-0.20677789,move
0.7646982,-1.1910439,-0.41603708,-0.10056369,-0.017027868,-0.16768251,move
0.7646982,-1.1910439,-0.41603708,-0.10056369,-0.017027868,-0.16768251,move
0.12680912,-1.6101377,-0.5992789,-0.07124216,0.26519188,-0.0852157,move
0.12680912,-1.6101377,-0.5992789,-0.07124216,0.26519188,-0.0852157,move
0.0714429,-1.629206,-1.4244151,0.10407617,0.24197899,0.043066,move
0.0714429,-1.629206,-1.4244151,0.10407617,0.24197899,0.043066,move
0.0576784,-1.5521007,-2.2331347,0.23846652,0.13385585,0.10293079,move
0.0576784,-1.5521007,-2.2331347,0.23846652,0.13385585,0.10293079,move
0.16618776,-1.2397165,-2.5854278,0.29283354,0.099647395,0.10781772,move
0.16618776,-1.2397165,-2.5854278,0.29283354,0.099647395,0.10781772,move
0.1614666,-0.86830235,-2.7311087,0.3093269,0.114308156,0.058337633,move
0.1614666,-0.86830235,-2.7311087,0.3093269,0.114308156,0.058337633,move
0.20863971,-0.57265234,-2.8377476,0.2616794,0.121638544,0.022296581,move
0.20863971,-0.57265234,-2.8377476,0.2616794,0.121638544,0.022296581,move
0.2283645,-0.4534402,-2.247079,0.17004961,0.10881037,0.003970624,move
0.2283645,-0.4534402,-2.247079,0.17004961,0.10881037,0.003970624,move
0.37719455,-0.5573864,-1.4864044,0.11568261,0.050167307,-0.0021380284,move
0.37719455,-0.5573864,-1.4864044,0.11568261,0.050167307,-0.0021380284,move
0.48571923,-0.66063166,-0.6743908,0.10896309,-0.0011453723,0.011911872,move
0.48571923,-0.66063166,-0.6743908,0.10896309,-0.0011453723,0.011911872,move
0.4815385,-0.8839412,-0.58513975,0.22441661,-0.045738537,0.033292156,move
0.4815385,-0.8839412,-0.58513975,0.22441661,-0.045738537,0.033292156,move
0.4815385,-0.8839412,-0.58513975,0.2757293,-0.0017562376,0.063224554,move
0.6210064,-0.7700033,-0.933928,0.2757293,-0.0017562376,0.063224554,move
0.4920689,-0.61621,-0.817678,0.18837558,0.09720393,0.08827003,move
0.4920689,-0.61621,-0.817678,0.18837558,0.09720393,0.08827003,move
0.07364881,-0.5972338,0.2194171,0.103465304,0.13385585,0.15485434,move
0.07364881,-0.5972338,0.2194171,0.103465304,0.13385585,0.15485434,move
0.07091087,-0.6168928,0.23347855,0.21158844,-0.0066431593,0.28191432,move
0.07091087,-0.6168928,0.23347855,0.21158844,-0.0066431593,0.28191432,move
-0.54317075,-1.7678213,2.379918,0.5848271,-0.3029128,0.4089743,move
-0.54317075,-1.7678213,2.379918,0.5848271,-0.3029128,0.4089743,move
0.44716898,-0.3147292,1.4754877,0.8285623,-0.6156758,0.5122105,move
0.44716898,-0.3147292,1.4754877,0.8285623,-0.6156758,0.5122105,move
0.44716898,-0.3147292,1.4754877,1.4113278,-0.18073976,0.35338554,move
0.015063584,0.8610492,2.5082974,1.4113278,-0.18073976,0.35338554,move
-2.3347275,1.5252709,-0.3299222,1.0759628,0.62438065,0.38515055,move
-2.3347275,1.5252709,-0.3299222,1.0759628,0.62438065,0.38515055,move
-2.965975,1.0953074,2.1316957,0.17493653,0.83146393,0.56169057,move
-2.965975,1.0953074,2.1316957,0.17493653,0.83146393,0.56169057,stop
-2.965975,1.0953074,2.1316957,0.17493653,0.83146393,0.56169057,stop
-1.2951293,-1.1387849,3.6160336,-0.5776495,0.68058026,0.6783658,stop
-1.0339165,-2.9179525,8.007066,-1.6961437,0.65797824,0.57757306,stop
-1.0339165,-2.9179525,8.007066,-1.6961437,0.65797824,0.57757306,stop
-1.6057487,-4.073738,12.137688,-1.9875264,0.69279754,0.2782491,stop
-1.6057487,-4.073738,12.137688,-1.9875264,0.69279754,0.2782491,stop
-0.86093473,-3.0427492,10.078835,-1.1457541,0.5651267,0.28802297,stop
-0.86093473,-3.0427492,10.078835,-1.1457541,0.5651267,0.28802297,stop
0.37655362,-1.8599617,3.8344593,0.028328875,0.15645786,0.2489276,stop
0.37655362,-1.8599617,3.8344593,0.028328875,0.15645786,0.2489276,stop
1.334048,-1.4974294,-0.9770708,0.013057245,-0.09399689,0.06872234,stop
1.334048,-1.4974294,-0.9770708,0.013057245,-0.09399689,0.06872234,stop
1.4838885,-1.2749825,0.6888342,-0.49273917,-0.17035505,-0.054061573,stop
1.4838885,-1.2749825,0.6888342,-0.49273917,-0.17035505,-0.054061573,stop
0.846219,-1.3051538,2.789754,-0.51411945,0.0025198192,-0.08582657,stop
0.846219,-1.3051538,2.789754,-0.51411945,0.0025198192,-0.08582657,stop
0.1304569,-1.4518204,2.2376232,-0.1427134,0.27496573,-3.0543262E-4,stop
0.1304569,-1.4518204,2.2376232,-0.1427134,0.27496573,-3.0543262E-4,stop
-0.19385642,-1.7583239,0.43779755,0.21219932,0.35559994,0.10842858,stop
-0.19385642,-1.7583239,0.43779755,0.21219932,0.35559994,0.10842858,stop
-0.54889065,-2.1655893,-1.0345135,0.29649872,0.3543782,0.19761491,stop
-0.54889065,-2.1655893,-1.0345135,0.29649872,0.3543782,0.19761491,stop
-0.46120358,-2.2422206,-1.5614047,0.23907739,0.30917418,0.2519819,stop
-0.46120358,-2.2422206,-1.5614047,0.23907739,0.30917418,0.2519819,stop
-0.33818722,-2.224525,-0.6820073,0.23357959,0.22120957,0.24465153,stop
-0.33818722,-2.224525,-0.6820073,0.23357959,0.22120957,0.24465153,stop
0.0056068897,-2.126295,0.1874609,0.34292448,0.24442245,0.20372356,stop
0.0056068897,-2.126295,0.1874609,0.34292448,0.24442245,0.20372356,stop
0.15807694,-2.1715775,0.58290625,0.46326494,0.28657216,0.15363261,stop
0.15807694,-2.1715775,0.58290625,0.46326494,0.28657216,0.15363261,stop
0.35875502,-2.162574,0.4310708,0.51885366,0.34399348,0.11209377,stop
0.35875502,-2.162574,0.4310708,0.51885366,0.34399348,0.11209377,stop
0.49090737,-1.9095311,0.37326813,0.49625164,0.18639025,0.052839845,stop
0.49090737,-1.9095311,0.37326813,0.49625164,0.18639025,0.052839845,stop
0.27260023,-1.2571278,0.5353403,0.38568506,-0.02985604,-0.023518313,stop
0.27260023,-1.2571278,0.5353403,0.38568506,-0.02985604,-0.023518313,stop
0.36109823,-0.68068695,0.23749065,0.34292448,-0.28214338,-0.102319926,stop
0.36109823,-0.68068695,0.23749065,0.34292448,-0.28214338,-0.102319926,stop
0.5894319,-0.5550437,-0.046080112,0.25251642,-0.4085925,-0.16035213,stop
0.5894319,-0.5550437,-0.046080112,0.25251642,-0.4085925,-0.16035213,stop
0.5894319,-0.5550437,-0.046080112,0.02649628,-0.37132972,-0.20311269,stop
0.81830597,-0.8566332,0.655148,0.02649628,-0.37132972,-0.20311269,stop
0.89797217,-1.2296538,1.2194085,-0.12560916,-0.034132097,-0.23304509,stop
0.89797217,-1.2296538,1.2194085,-0.12560916,-0.034132097,-0.23304509,stop
0.8058549,-1.5428667,1.2084827,-0.057803124,0.2260965,-0.21471913,stop
0.8058549,-1.5428667,1.2084827,-0.057803124,0.2260965,-0.21471913,stop
0.62942356,-1.362534,0.5085583,0.096134916,0.19188805,-0.17745635,stop
0.62942356,-1.362534,0.5085583,0.096134916,0.19188805,-0.17745635,stop
0.5125327,-1.0546122,-0.6623888,0.22991441,0.12224941,-0.13164146,stop
0.5125327,-1.0546122,-0.6623888,0.22991441,0.12224941,-0.13164146,stop
0.40599486,-0.6717615,-1.2773042,0.27634016,0.023900103,-0.10293079,stop
0.40599486,-0.6717615,-1.2773042,0.27634016,0.023900103,-0.10293079,stop
0.17976546,-0.25799847,-1.3917117,0.32459852,0.075212784,-0.04734206,stop
0.17976546,-0.25799847,-1.3917117,0.32459852,0.075212784,-0.04734206,stop
-0.065757394,-0.0065732,-1.3999996,0.3551418,0.16256651,-0.022296581,stop
-0.065757394,-0.0065732,-1.3999996,0.3551418,0.16256651,-0.022296581,stop
-0.07085526,0.35207176,-1.15171,0.26473373,0.350713,0.003970624,stop
-0.07085526,0.35207176,-1.15171,0.26473373,0.350713,0.003970624,stop
-0.2860837,0.22705555,-0.8990779,0.075976364,0.44173193,-0.008246681,stop
-0.2860837,0.22705555,-0.8990779,0.075976364,0.44173193,-0.008246681,stop
-0.35207564,-0.08198023,-0.49182367,-0.069409564,0.24808764,-0.026572637,stop
-0.35207564,-0.08198023,-0.49182367,-0.069409564,0.24808764,-0.026572637,stop
-0.07919729,-0.5593777,0.027715683,-0.1530981,-0.09705122,-0.09560041,stop
-0.07919729,-0.5593777,0.027715683,-0.1530981,-0.09705122,-0.09560041,stop
0.26568615,-0.91384363,0.66905975,-0.30703613,-0.23327416,-0.13225232,stop
0.26568615,-0.91384363,0.66905975,-0.30703613,-0.23327416,-0.13225232,stop
0.26747662,-1.0552516,1.4983206,-0.39133555,-0.25343272,-0.14508049,stop
0.26747662,-1.0552516,1.4983206,-0.39133555,-0.25343272,-0.14508049,stop
0.35972232,-0.9076977,1.429616,-0.22640193,-0.21006128,-0.113926366,stop
0.35972232,-0.9076977,1.429616,-0.22640193,-0.21006128,-0.113926366,stop
0.49919608,-0.5926719,0.64733267,-0.038255434,-0.12148582,-0.09132435,stop
0.49919608,-0.5926719,0.64733267,-0.038255434,-0.12148582,-0.09132435,stop
0.38577813,-0.36180592,-0.13895512,0.07841983,-0.051236324,-0.08277224,stop
0.38577813,-0.36180592,-0.13895512,0.07841983,-0.051236324,-0.08277224,stop
0.15885872,-0.106420994,-0.44170856,0.087582804,-0.007254025,-0.0870483,stop
0.15885872,-0.106420994,-0.44170856,0.087582804,-0.007254025,-0.0870483,stop
-0.029572427,0.0049467087,-1.1263032,0.043600507,-0.02069306,-0.09193522,stop
-0.029572427,0.0049467087,-1.1263032,0.043600507,-0.02069306,-0.09193522,stop
-0.06040728,0.038396835,-0.7803302,-0.16348282,-0.06956228,-0.10170906,stop
-0.06040728,0.038396835,-0.7803302,-0.16348282,-0.06956228,-0.10170906,stop
-0.1960823,-0.086607456,0.40436172,-0.34063372,-0.021914791,-0.101098195,stop
-0.1960823,-0.086607456,0.40436172,-0.34063372,-0.021914791,-0.101098195,stop
-0.22516984,-0.24739122,1.0958958,-0.31803173,-0.027412578,-0.08827003,stop
-0.22516984,-0.24739122,1.0958958,-0.31803173,-0.027412578,-0.08827003,stop
0.035236657,-0.28341913,1.3832407,-0.22029328,-0.050014593,-0.070554934,stop
0.035236657,-0.28341913,1.3832407,-0.22029328,-0.050014593,-0.070554934,stop
0.08338243,-0.29656172,1.1314282,-0.12194397,-0.0603993,-0.060170226,stop
0.08338243,-0.29656172,1.1314282,-0.12194397,-0.0603993,-0.060170226,stop
0.15081275,-0.25060368,0.8043232,-0.04008803,-0.08055785,-0.046120327,stop
0.15081275,-0.25060368,0.8043232,-0.04008803,-0.08055785,-0.046120327,stop
0.103636265,-0.2316804,0.36945534,-0.019318614,-0.117820635,-0.04550946,stop
0.103636265,-0.2316804,0.36945534,-0.019318614,-0.117820635,-0.04550946,stop
-0.03780043,-0.23146439,0.23463535,-0.042531494,-0.13859005,-0.040011674,stop
-0.03780043,-0.23146439,0.23463535,-0.042531494,-0.13859005,-0.040011674,stop
-0.114819825,-0.20619297,0.46802664,-0.029092457,-0.1288162,-0.01740966,stop
-0.114819825,-0.20619297,0.46802664,-0.029092457,-0.1288162,-0.01740966,stop
-0.16740596,-0.21676826,0.16633606,-0.0046578473,-0.056123246,0.009468411,stop
-0.16740596,-0.21676826,0.16633606,-0.0046578473,-0.056123246,0.009468411,stop
-0.12056571,-0.18900537,0.11642456,-0.014431692,0.00496328,0.019242255,stop
-0.12056571,-0.18900537,0.11642456,-0.014431692,0.00496328,0.019242255,stop
-0.2065478,-0.16682243,0.14772272,-0.034590244,0.031230485,0.024129177,stop
-0.2065478,-0.16682243,0.14772272,-0.034590244,0.031230485,0.024129177,stop
-0.1901403,-0.11772585,0.26562405,-0.03397938,0.012293663,0.03145956,stop
-0.1901403,-0.11772585,0.26562405,-0.03397938,0.012293663,0.03145956,stop
-0.15324003,-0.16271734,0.33309412,-0.04314236,-0.03901902,0.03756821,stop
-0.15324003,-0.16271734,0.33309412,-0.04314236,-0.03901902,0.03756821,stop
-0.117005765,-0.15237951,0.17680979,-0.013209961,-0.07078401,0.04428773,stop
-0.117005765,-0.15237951,0.17680979,-0.013209961,-0.07078401,0.04428773,stop
-0.13308418,-0.151083,0.1740117,-0.016875152,-0.061010167,0.04550946,stop
-0.13308418,-0.151083,0.1740117,-0.016875152,-0.061010167,0.04550946,stop
-0.067798674,-0.22111464,0.068193436,0.0026725354,-0.051847186,0.044898596,stop
-0.067798674,-0.22111464,0.068193436,0.0026725354,-0.051847186,0.044898596,stop
-0.07021916,-0.18584108,0.24450731,-0.0071013086,0.0055741454,0.046731193,stop
-0.07021916,-0.18584108,0.24450731,-0.0071013086,0.0055741454,0.046731193,stop
-0.045229435,-0.18058395,0.05726385,0.001450805,0.051999904,0.046731193,stop
-0.045229435,-0.18058395,0.05726385,0.001450805,0.051999904,0.046731193,stop
-0.01473242,-0.21557331,0.18606758,-0.02603813,0.034895677,0.046731193,stop
-0.01473242,-0.21557331,0.18606758,-0.02603813,0.034895677,0.046731193,stop
-0.021635532,-0.15731668,0.1260252,-0.014431692,-0.02985604,0.060170226,stop
-0.021635532,-0.15731668,0.1260252,-0.014431692,-0.02985604,0.060170226,stop
0.0471552,-0.16222048,0.25704908,-0.037644573,-0.0041996986,0.076052725,stop
0.0471552,-0.16222048,0.25704908,-0.037644573,-0.0041996986,0.076052725,stop
0.041939914,-0.1935234,0.006239891,-0.021762075,0.022678372,0.08093964,stop
0.041939914,-0.1935234,0.006239891,-0.021762075,0.022678372,0.08093964,stop
0.18058473,-0.17922401,-0.032168865,-0.03214678,-0.008475755,0.079107046,stop
0.18058473,-0.17922401,-0.032168865,-0.03214678,-0.008475755,0.079107046,stop
0.23397046,-0.18326473,0.09690857,-0.05841399,0.0110719325,0.05955936,stop
0.23397046,-0.18326473,0.09690857,-0.05841399,0.0110719325,0.05955936,stop
0.25136846,-0.14183187,-0.05561018,-0.04375322,-0.04512767,0.043066,stop
0.25136846,-0.14183187,-0.05561018,-0.04375322,-0.04512767,0.043066,stop
0.25450295,-0.08385992,0.052177906,-0.07735081,-0.0322995,0.034513887,stop
0.25450295,-0.08385992,0.052177906,-0.07735081,-0.0322995,0.034513887,stop
0.1640603,-0.06736088,0.25576353,-0.09323331,-0.025579982,0.036957346,stop
0.1640603,-0.06736088,0.25576353,-0.09323331,-0.025579982,0.036957346,stop
0.21149409,-0.064433575,0.37542105,-0.082237735,-0.008475755,0.028405234,stop
0.21149409,-0.064433575,0.37542105,-0.082237735,-0.008475755,0.028405234,stop
0.08737415,-0.08871031,0.5570488,-0.046196684,0.026343564,0.003970624,stop
0.08737415,-0.08871031,0.5570488,-0.046196684,0.026343564,0.003970624,stop
0.054846942,-0.066131115,0.11326885,0.0075594573,0.036728274,-0.018020526,stop
0.054846942,-0.066131115,0.11326885,0.0075594573,0.036728274,-0.018020526,stop
-0.008117259,-0.036067486,0.074419975,-0.013820826,0.026343564,-0.04550946,stop
-0.008117259,-0.036067486,0.074419975,-0.013820826,0.026343564,-0.04550946,stop
-0.043985188,-0.04873991,0.2495594,-0.029703323,0.024510968,-0.046120327,stop
-0.043985188,-0.04873991,0.2495594,-0.029703323,0.024510968,-0.046120327,stop
-0.043985188,-0.04873991,0.2495594,-0.0028252518,6.872234E-4,-0.025961773,stop
-0.024178028,-0.05858898,0.10822487,-0.0028252518,6.872234E-4,-0.025961773,stop
-0.021885216,-0.057426453,0.10761261,-0.0028252518,6.872234E-4,-0.025961773,stop
-0.021885216,-0.057426453,0.10761261,-0.013209961,0.01656972,-0.0070249503,stop
-0.07319558,-0.05309677,0.24066544,0.0051159966,0.019013181,-3.0543262E-4,stop
-0.07319558,-0.05309677,0.24066544,0.0051159966,0.019013181,-3.0543262E-4,stop
-0.0022233725,-0.059823513,0.113087654,0.022220224,0.031230485,-0.010079277,stop
-0.0022233725,-0.059823513,0.113087654,0.022220224,0.031230485,-0.010079277,stop
-0.0022233725,-0.059823513,0.113087654,0.006948592,0.042836927,-0.03756821,stop
-0.07173246,-0.04058695,0.057883263,0.006948592,0.042836927,-0.03756821,stop
-0.07173246,-0.04058695,0.057883263,-0.014431692,0.0067958757,-0.04062254,stop
-0.19348586,-0.00805378,0.103777885,-0.014431692,0.0067958757,-0.04062254,stop
-0.19348586,-0.00805378,0.103777885,-0.010155635,-0.022525655,-0.020463986,stop
-0.1369682,0.047723293,0.113687515,-0.010155635,-0.022525655,-0.020463986,stop
-0.1369682,0.047723293,0.113687515,-0.013820826,-0.008475755,0.005192355,stop
-0.07094574,0.029838562,0.12156677,-0.013820826,-0.008475755,0.005192355,stop
0.028707862,-0.0013155937,0.18043518,-0.01198823,-0.02985604,0.005192355,stop
0.028707862,-0.0013155937,0.18043518,-0.01198823,-0.02985604,0.005192355,stop
0.0056326985,-0.020206928,0.21921921,8.399397E-4,-0.04085161,-0.005192355,stop
0.0056326985,-0.020206928,0.21921921,8.399397E-4,-0.04085161,-0.005192355,stop
-0.023698807,-6.1130524E-4,0.17373562,0.025274549,-0.053679783,-0.004581489,stop
-0.023698807,-6.1130524E-4,0.17373562,0.025274549,-0.053679783,-0.004581489,stop
-0.062341034,0.058237553,0.04473591,0.04298964,0.0025198192,0.011911872,stop
-0.062341034,0.058237553,0.04473591,0.04298964,0.0025198192,0.011911872,stop
-0.10528916,0.08106184,-0.076131344,0.03443753,0.046502117,0.042455133,stop
-0.10528916,0.08106184,-0.076131344,0.03443753,0.046502117,0.042455133,stop
-0.1964547,0.0809412,-0.09363556,0.017944166,0.06421721,0.07238753,stop
-0.1964547,0.0809412,-0.09363556,0.017944166,0.06421721,0.07238753,stop
-0.1964547,0.0809412,-0.09363556,0.010002919,0.07704538,0.09865474,stop
-0.33103913,0.07489109,-0.10051918,0.010002919,0.07704538,0.09865474,stop
-0.33103913,0.07489109,-0.10051918,0.01366811,0.05933029,0.12492194,stop
-0.48351777,0.09068346,-0.26572704,0.01366811,0.05933029,0.12492194,stop
-0.66045254,0.12521219,-0.26595688,-0.010155635,0.072158456,0.14752395,stop
-0.66045254,0.12521219,-0.26595688,-0.010155635,0.072158456,0.14752395,stop
-1.0797884,0.24218845,-0.2133174,-0.01198823,0.13629931,0.183565,stop
-1.0797884,0.24218845,-0.2133174,-0.01198823,0.13629931,0.183565,stop
-1.65501,0.33349752,-0.3213911,0.0026725354,0.28901562,0.24770586,stop
-1.65501,0.33349752,-0.3213911,0.0026725354,0.28901562,0.24770586,stop
-2.1203728,0.14612675,-0.109009266,0.006337727,0.5577963,0.36254853,stop
-2.1203728,0.14612675,-0.109009266,0.006337727,0.5577963,0.36254853,stop
-2.1203728,0.14612675,-0.109009266,0.050320026,0.8839984,0.5103779,stop
-2.7484505,0.073265076,-0.06339216,0.050320026,0.8839984,0.5103779,stop
-2.8345633,0.5274067,-2.029469,0.1333977,1.0788643,0.6759224,stop
-2.8345633,0.5274067,-2.029469,0.1333977,1.0788643,0.6759224,stop
-4.1361656,-0.5372925,-1.305809,-0.2111303,0.4020257,0.7461719,stop
-4.1361656,-0.5372925,-1.305809,-0.2111303,0.4020257,0.7461719,stop
-3.1814895,-0.6058469,1.0679145,-0.35651624,0.5064837,0.9636399,stop
-3.1814895,-0.6058469,1.0679145,-0.35651624,0.5064837,0.9636399,stop
-2.9661903,-0.8300991,1.2970257,-0.13110696,0.5040402,1.1187997,stop
-2.9661903,-0.8300991,1.2970257,-0.13110696,0.5040402,1.1187997,stop
-2.1733575,-0.5599241,0.32875824,0.14866933,0.49243376,1.1548407,stop
-2.1733575,-0.5599241,0.32875824,0.14866933,0.49243376,1.1548407,stop
-2.1545024,-0.6697631,-0.93714046,0.22075143,0.42279512,1.1670581,stop
-2.1545024,-0.6697631,-0.93714046,0.22075143,0.42279512,1.1670581,stop
-2.2846394,-0.87441254,-1.1188397,0.021609358,0.38003454,1.2592987,stopLeft
-2.2846394,-0.87441254,-1.1188397,0.021609358,0.38003454,1.2592987,stopLeft
-1.591455,-0.5025525,0.60823584,-0.31436652,0.500375,1.3808609,stopLeft
-1.591455,-0.5025525,0.60823584,-0.31436652,0.500375,1.3808609,stopLeft
-1.7127755,-0.79563,1.7138705,-0.4011094,0.6341545,1.4223998,stopLeft
-1.7127755,-0.79563,1.7138705,-0.4011094,0.6341545,1.4223998,stopLeft
-1.6329669,-0.8904133,2.2770405,-0.31619912,0.7954229,1.4669929,stopLeft
-1.6329669,-0.8904133,2.2770405,-0.31619912,0.7954229,1.4669929,stopLeft
-1.526919,-0.85754156,2.1370955,-0.12805262,0.9530261,1.5054774,stopLeft
-1.526919,-0.85754156,2.1370955,-0.12805262,0.9530261,1.5054774,stopLeft
-1.3894074,-0.46319818,1.5691528,0.032604933,1.0978012,1.5457945,stopLeft
-1.3894074,-0.46319818,1.5691528,0.032604933,1.0978012,1.5457945,stopLeft
-1.094892,7.8105927E-4,0.603755,0.16027577,1.1546117,1.5537357,stopLeft
-1.094892,7.8105927E-4,0.603755,0.16027577,1.1546117,1.5537357,stopLeft
-0.94313616,-0.27232647,0.119912624,0.16577356,1.2193633,1.5170839,stopLeft
-0.94313616,-0.27232647,0.119912624,0.16577356,1.2193633,1.5170839,stopLeft
-0.8699647,-0.649508,0.9338503,0.011224649,1.4197272,1.5018122,stopLeft
-0.8699647,-0.649508,0.9338503,0.011224649,1.4197272,1.5018122,stopLeft
-0.9624714,-0.7896199,1.8958545,-0.012599096,1.5754979,1.5262468,stopLeft
-0.9624714,-0.7896199,1.8958545,-0.012599096,1.5754979,1.5262468,stopLeft
-0.9378976,-0.9254923,0.9634199,0.20425807,1.5742761,1.5971072,stopLeft
-0.9378976,-0.9254923,0.9634199,0.20425807,1.5742761,1.5971072,stopLeft
-0.676093,-1.0119343,-0.30893373,0.32765284,1.4777594,1.7076738,stopLeft
-0.676093,-1.0119343,-0.30893373,0.32765284,1.4777594,1.7076738,stopLeft
-0.44216245,-1.2321367,-0.8740735,0.23296873,1.447827,1.8261817,stopLeft
-0.44216245,-1.2321367,-0.8740735,0.23296873,1.447827,1.8261817,stopLeft
-0.46851617,-1.4842744,-0.22302914,-0.111559264,1.5064701,1.9636264,stopLeft
-0.46851617,-1.4842744,-0.22302914,-0.111559264,1.5064701,1.9636264,stopLeft
-0.51559013,-2.0964556,1.0621023,-0.2777146,1.5461763,2.0906863,stopLeft
-0.51559013,-2.0964556,1.0621023,-0.2777146,1.5461763,2.0906863,stopLeft
-0.3512085,-2.4325237,1.537528,-0.31192306,1.5351807,2.2317963,stopLeft
-0.3512085,-2.4325237,1.537528,-0.31192306,1.5351807,2.2317963,stopLeft
-0.21338266,-2.61418,1.9601674,-0.32291865,1.484479,2.3374758,stopLeft
-0.21338266,-2.61418,1.9601674,-0.32291865,1.484479,2.3374758,stopLeft
-0.2632053,-2.601972,1.9454012,-0.25755605,1.4857006,2.4181101,stopLeft
-0.2632053,-2.601972,1.9454012,-0.25755605,1.4857006,2.4181101,stopLeft
0.020467341,-2.428173,1.3953419,-0.16470455,1.5583936,2.4749205,stopLeft
0.020467341,-2.428173,1.3953419,-0.16470455,1.5583936,2.4749205,stopLeft
0.21026337,-2.1398146,0.7626605,-0.12988523,1.6158149,2.5121834,stopLeft
0.21026337,-2.1398146,0.7626605,-0.12988523,1.6158149,2.5121834,stopLeft
0.17111176,-2.0063272,0.54920197,-0.21540636,1.6921731,2.5085182,stopLeft
0.17111176,-2.0063272,0.54920197,-0.21540636,1.6921731,2.5085182,stopLeft
0.027228773,-2.0107832,0.87839127,-0.27404943,1.7874681,2.5060747,stopLeft
0.027228773,-2.0107832,0.87839127,-0.27404943,1.7874681,2.5060747,stopLeft
-0.054977477,-2.0938158,0.90633154,-0.27832547,1.8766544,2.5127943,stopLeft
-0.054977477,-2.0938158,0.90633154,-0.27832547,1.8766544,2.5127943,stopLeft
-0.40992284,-2.338373,1.2312202,-0.32230777,1.8907043,2.5072963,stopLeft
-0.40992284,-2.338373,1.2312202,-0.32230777,1.8907043,2.5072963,stopLeft
-0.59903586,-2.4687605,1.8179092,-0.33513594,1.8809304,2.5170703,stopLeft
-0.59903586,-2.4687605,1.8179092,-0.33513594,1.8809304,2.5170703,stopLeft
-0.6063807,-2.6836474,2.1624403,-0.24594963,1.8143462,2.540894,stopLeft
-0.6063807,-2.6836474,2.1624403,-0.24594963,1.8143462,2.540894,stopLeft
-0.6915064,-2.8293843,2.2286105,-0.21846068,1.9566778,2.586098,stopLeft
-0.6915064,-2.8293843,2.2286105,-0.21846068,1.9566778,2.586098,stopLeft
-0.77580667,-2.9530826,2.2489123,-0.16592628,1.9933296,2.654515,stopLeft
-0.77580667,-2.9530826,2.2489123,-0.16592628,1.9933296,2.654515,stopLeft
-0.5356598,-2.8173242,2.1124172,-0.1512655,1.9805015,2.726597,stopLeft
-0.5356598,-2.8173242,2.1124172,-0.1512655,1.9805015,2.726597,stopLeft
-0.3564849,-2.6788914,1.7059388,-0.16714801,1.9108628,2.762638,stopLeft
-0.3564849,-2.6788914,1.7059388,-0.16714801,1.9108628,2.762638,stopLeft
-0.9742941,-3.340878,1.8428779,-0.3308599,1.9310215,2.7516425,stopLeft
-0.9742941,-3.340878,1.8428779,-0.3308599,1.9310215,2.7516425,stopLeft
-1.1709123,-3.7042968,3.3775887,-0.49640438,2.0153208,2.7913487,stopLeft
-1.1709123,-3.7042968,3.3775887,-0.49640438,2.0153208,2.7913487,stopLeft
-1.0465982,-3.3985705,4.0018516,-0.35468364,2.0525837,2.79929,stopLeft
-1.0465982,-3.3985705,4.0018516,-0.35468364,2.0525837,2.79929,stopLeft
-1.0034156,-3.065735,2.482122,-0.12560916,1.9157498,2.780353,stopLeft
-1.0034156,-3.065735,2.482122,-0.12560916,1.9157498,2.780353,stopLeft
-0.61921674,-2.4723346,1.0165539,-0.02115121,1.5138004,2.7461448,stopLeft
-0.61921674,-2.4723346,1.0165539,-0.02115121,1.5138004,2.7461448,stopLeft
-0.23335603,-2.2990718,0.9683461,-0.198913,1.2572371,2.6557367,stopLeft
-0.23335603,-2.2990718,0.9683461,-0.198913,1.2572371,2.6557367,stopLeft
0.1505876,-2.2328696,2.4337463,-0.38400516,1.2364676,2.528066,stopLeft
0.1505876,-2.2328696,2.4337463,-0.38400516,1.2364676,2.528066,stopLeft
0.4255787,-2.2596097,3.402616,-0.30825788,1.3274865,2.3796256,stopLeft
0.4255787,-2.2596097,3.402616,-0.30825788,1.3274865,2.3796256,stopLeft
0.40528804,-2.3014235,3.3117733,-0.096898496,1.461266,2.2562308,stopLeft
0.40528804,-2.3014235,3.3117733,-0.096898496,1.461266,2.2562308,stopLeft
0.12166634,-2.3176923,2.6916895,0.053985216,1.5834391,2.1615467,stopLeft
0.12166634,-2.3176923,2.6916895,0.053985216,1.5834391,2.1615467,stopLeft
-0.33384085,-2.2026157,2.1523867,0.16821702,1.6048193,2.1071796,stopLeft
-0.33384085,-2.2026157,2.1523867,0.16821702,1.6048193,2.1071796,stopLeft
-0.56424534,-2.0070455,1.3267498,0.26045766,1.6463583,2.0717494,stopLeft
-0.56424534,-2.0070455,1.3267498,0.26045766,1.6463583,2.0717494,stopLeft
-0.56424534,-2.0070455,1.3267498,0.24518603,1.701947,2.0265455,stopLeft
-0.9167725,-1.8820329,0.48315096,0.24518603,1.701947,2.0265455,stopLeft
-0.9167725,-1.8820329,0.48315096,0.24518603,1.701947,2.0265455,stopLeft
-1.1804334,-1.7377582,0.2593484,0.15661058,1.7349336,1.9886718,stopLeft
-1.1804334,-1.7377582,0.2593484,0.055206947,1.7392097,1.969735,stopLeft
-1.5762297,-1.8721538,0.64172745,0.055206947,1.7392097,1.969735,stopLeft
-1.7003175,-2.038157,1.1140766,0.0313832,1.7147751,1.9947804,stopLeft
-1.7003175,-2.038157,1.1140766,0.0313832,1.7147751,1.9947804,stopLeft
-1.7094941,-2.1392648,1.0929446,0.024663685,1.7043904,2.0528126,stopLeft
-1.7094941,-2.1392648,1.0929446,0.024663685,1.7043904,2.0528126,stopLeft
-1.4128141,-2.1541212,1.1909919,0.0045051314,1.6127607,2.0955732,stopLeft
-1.4128141,-2.1541212,1.1909919,0.0045051314,1.6127607,2.0955732,stopLeft
-1.0144459,-1.7358274,1.2839255,-0.0016035213,1.5162439,2.10046,stopLeft
-1.0144459,-1.7358274,1.2839255,-0.0016035213,1.5162439,2.10046,stopLeft
-0.70270586,-1.418397,1.2901068,0.0173333,1.4282793,2.0638082,stopLeft
-0.70270586,-1.418397,1.2901068,0.0173333,1.4282793,2.0638082,stopLeft
-0.3913187,-1.8866587,1.375124,-0.02603813,1.3696363,2.0314324,stopLeft
-0.3913187,-1.8866587,1.375124,-0.02603813,1.3696363,2.0314324,stopLeft
-0.41647962,-1.891469,1.3774848,-0.13232869,1.429501,2.0204368,stopLeft
-0.41647962,-1.891469,1.3774848,-0.13232869,1.429501,2.0204368,stopLeft
-0.011865497,-2.425704,2.237486,-0.14210252,1.7410423,2.0076087,stopLeft
-0.011865497,-2.425704,2.237486,-0.14210252,1.7410423,2.0076087,stopLeft
0.088345975,-2.2807472,2.5860171,0.14256068,1.9224693,2.0387628,stopLeft
0.088345975,-2.2807472,2.5860171,0.14256068,1.9224693,2.0387628,stopLeft
0.17382115,-1.837717,0.46826124,0.32398766,1.7764724,2.0955732,stopLeft
0.17382115,-1.837717,0.46826124,0.32398766,1.7764724,2.0955732,stopLeft
0.32945716,-1.4596863,-0.60933685,0.07414377,1.624978,2.1065688,stopLeft
0.32945716,-1.4596863,-0.60933685,0.07414377,1.624978,2.1065688,stopLeft
0.29181516,-1.5239158,0.38504028,-0.26366472,1.4673747,2.0613647,stopLeft
0.29181516,-1.5239158,0.38504028,-0.26366472,1.4673747,2.0613647,stopLeft
0.6458756,-1.5307813,1.5008702,-0.40538543,1.3409256,2.006387,stopLeft
0.6458756,-1.5307813,1.5008702,-0.40538543,1.3409256,2.006387,stopLeft
0.8672319,-1.7860398,2.3858757,-0.45791987,1.275563,1.9526308,stopLeft
0.8672319,-1.7860398,2.3858757,-0.45791987,1.275563,1.9526308,stopLeft
1.0005146,-1.9479208,2.8424072,-0.41393757,1.2554045,1.9587394,stopLeft
1.0005146,-1.9479208,2.8424072,-0.41393757,1.2554045,1.9587394,stopLeft
0.9629095,-1.8984942,2.8035336,-0.27527115,1.2328024,2.038152,stopLeft
0.9629095,-1.8984942,2.8035336,-0.27527115,1.2328024,2.038152,stopLeft
0.7764137,-1.9065208,1.9015312,-0.08590292,1.2975541,2.160325,stopLeft
0.7764137,-1.9065208,1.9015312,-0.08590292,1.2975541,2.160325,stopLeft
0.57546556,-1.8286524,0.9604459,-0.029092457,1.4740942,2.2592852,stopLeft
0.57546556,-1.8286524,0.9604459,-0.029092457,1.4740942,2.2592852,stopLeft
0.42019203,-1.8188505,0.62836313,-0.044974953,1.5706109,2.3044891,stopLeft
0.42019203,-1.8188505,0.62836313,-0.044974953,1.5706109,2.3044891,stopLeft
0.42019203,-1.8188505,0.62836313,-0.041309763,1.5590044,2.313652,stopLeft
0.11522783,-1.7873735,0.78548336,-0.041309763,1.5590044,2.313652,stopLeft
-0.14301264,-1.7617297,0.65366554,0.0026725354,1.5425111,2.3228152,stopLeft
-0.14301264,-1.7617297,0.65366554,0.0026725354,1.5425111,2.3228152,stopLeft
-0.36555636,-1.7750492,0.16438341,8.399397E-4,1.5669457,2.3417518,stopLeft
-0.36555636,-1.7750492,0.16438341,8.399397E-4,1.5669457,2.3417518,stopLeft
-0.64230573,-1.9114356,0.33384943,-0.105450615,1.6035976,2.3545802,stopLeft
-0.64230573,-1.9114356,0.33384943,-0.105450615,1.6035976,2.3545802,stopLeft
-0.8792158,-1.9957714,0.95728207,-0.22945626,1.6512451,2.377182,stopLeft
-0.8792158,-1.9957714,0.95728207,-0.22945626,1.6512451,2.377182,stopLeft
-0.78868794,-2.1323211,1.7352619,-0.23006712,1.6481907,2.395508,stopLeft
-0.78868794,-2.1323211,1.7352619,-0.23006712,1.6481907,2.395508,stopLeft
-0.80246145,-2.100209,1.7117658,-0.13599387,1.6903405,2.410169,stopLeft
-0.80246145,-2.100209,1.7117658,-0.13599387,1.6903405,2.410169,stopLeft
-0.56927174,-2.504141,2.1516318,-0.027259862,1.7813594,2.427273,stopLeft
-0.56927174,-2.504141,2.1516318,-0.027259862,1.7813594,2.427273,stopLeft
-0.5451856,-2.5943625,1.6459861,0.042378776,1.8192331,2.4657576,stopLeft
-0.5451856,-2.5943625,1.6459861,0.042378776,1.8192331,2.4657576,stopLeft
-0.5451856,-2.5943625,1.6459861,0.025274549,1.814957,2.5066855,stopLeft
-0.5216265,-2.6969047,1.5695467,0.025274549,1.814957,2.5066855,stopLeft
-0.417965,-2.4745967,1.9090891,0.014278975,1.7563139,2.5207355,stopLeft
-0.417965,-2.4745967,1.9090891,0.014278975,1.7563139,2.5207355,stopLeft
-0.42676324,-2.4783704,1.9117203,0.031994067,1.7544813,2.503631,stopLeft
-0.42676324,-2.4783704,1.9117203,0.031994067,1.7544813,2.503631,stopLeft
-0.3701979,-2.1237247,0.5963402,-0.061468314,1.701336,2.4541512,stopLeft
-0.3701979,-2.1237247,0.5963402,-0.061468314,1.701336,2.4541512,stopLeft
-0.97573096,-2.9163067,1.2648616,-0.3094796,1.69706,2.4083362,stopLeft
-0.97573096,-2.9163067,1.2648616,-0.3094796,1.69706,2.4083362,stopLeft
-1.5475672,-3.4516075,2.985959,-0.51473033,1.7935767,2.4303274,stopLeft
-1.5475672,-3.4516075,2.985959,-0.51473033,1.7935767,2.4303274,stopLeft
-1.5158418,-3.5532613,4.398986,-0.46036333,1.8540524,2.5115724,stopLeft
-1.5158418,-3.5532613,4.398986,-0.46036333,1.8540524,2.5115724,stopLeft
-1.5521932,-3.4831753,3.8915453,-0.13965906,1.7856355,2.6099217,stopLeft
-1.5521932,-3.4831753,3.8915453,-0.13965906,1.7856355,2.6099217,stopLeft
-1.3447453,-3.1060658,2.0996885,0.093080595,1.6261996,2.6911669,stopLeft
-1.3447453,-3.1060658,2.0996885,0.093080595,1.6261996,2.6911669,stopLeft
-1.2268617,-2.777012,1.3143682,0.122402124,1.4722615,2.6783388,stopLeft
-1.2268617,-2.777012,1.3143682,0.122402124,1.4722615,2.6783388,stopLeft
-0.9561343,-2.3518293,1.0812149,0.042378776,1.5101353,2.5940392,stopLeft
-0.9561343,-2.3518293,1.0812149,0.042378776,1.5101353,2.5940392,stopLeft
-0.992783,-2.3494437,1.0796471,-0.029703323,1.5125787,2.4474316,stopLeft
-0.992783,-2.3494437,1.0796471,-0.029703323,1.5125787,2.4474316,stopLeft
-1.0649709,-2.2946637,1.2712431,-0.07368562,1.515633,2.2879958,stopLeft
-1.0649709,-2.2946637,1.2712431,-0.07368562,1.515633,2.2879958,stopLeft
-1.0375314,-2.370869,1.811779,-0.15187638,1.5199091,2.1786509,stopLeft
-1.0375314,-2.370869,1.811779,-0.15187638,1.5199091,2.1786509,stopLeft
-1.0910736,-2.3300655,2.3396807,-0.17203492,1.5254068,2.0851886,stopLeft
-1.0910736,-2.3300655,2.3396807,-0.17203492,1.5254068,2.0851886,stopLeft
-1.1071744,-2.2562625,2.0916023,-0.08040514,1.5052483,1.9941696,stopLeft
-1.1071744,-2.2562625,2.0916023,-0.08040514,1.5052483,1.9941696,stopLeft
-1.1555253,-2.1941736,1.7876701,0.009392053,1.4997505,1.9037615,stopLeft
-1.1555253,-2.1941736,1.7876701,0.009392053,1.4997505,1.9037615,stopLeft
-1.1791943,-2.0156512,1.0822821,0.04665483,1.5125787,1.8787161,stopLeft
-1.1791943,-2.0156512,1.0822821,0.04665483,1.5125787,1.8787161,stopLeft
-1.1936903,-1.9206457,0.96669483,0.028328875,1.4777594,1.8952094,stopLeft
-1.1936903,-1.9206457,0.96669483,0.028328875,1.4777594,1.8952094,stopLeft
-1.0270331,-1.7452781,0.69467354,-0.0022143866,1.4215598,1.9434677,stopLeft
-1.0270331,-1.7452781,0.69467354,-0.0022143866,1.4215598,1.9434677,stopLeft
-0.9145334,-1.7446344,0.9028425,-0.05535966,1.320767,1.9788979,stopLeft
-0.9145334,-1.7446344,0.9028425,-0.05535966,1.320767,1.9788979,stopLeft
-0.72183466,-1.7151668,1.1178656,-0.082237735,1.3128258,1.9813415,stopLeft
-0.72183466,-1.7151668,1.1178656,-0.082237735,1.3128258,1.9813415,stopLeft
-0.57781684,-1.5650725,1.2493305,-0.08345947,1.3195453,1.9581286,stopLeft
-0.57781684,-1.5650725,1.2493305,-0.08345947,1.3195453,1.9581286,stopLeft
-0.44535995,-1.3709769,1.7026854,-0.04192063,1.3085498,1.9269744,stopLeft
-0.44535995,-1.3709769,1.7026854,-0.04192063,1.3085498,1.9269744,stopLeft
-0.32898194,-1.1338301,1.5734978,0.052763484,1.3329843,1.8903224,stopLeft
-0.32898194,-1.1338301,1.5734978,0.052763484,1.3329843,1.8903224,stopLeft
-0.44026303,-0.6531577,1.1336136,0.119347796,1.3189344,1.842675,stopLeft
-0.44026303,-0.6531577,1.1336136,0.119347796,1.3189344,1.842675,stopLeft
-0.33249068,-0.66478014,0.48567295,0.1437824,1.2334133,1.7895297,stopLeft
-0.33249068,-0.66478014,0.48567295,0.1437824,1.2334133,1.7895297,stopLeft
0.09429347,-0.8934097,0.31350708,0.04848743,1.1772137,1.707063,stopLeft
0.09429347,-0.8934097,0.31350708,0.04848743,1.1772137,1.707063,stopLeft
0.09429347,-0.8934097,0.31350708,-0.124387436,1.2004266,1.6074919,stopLeft
0.21756811,-1.5958042,1.7899818,-0.124387436,1.2004266,1.6074919,stopLeft
0.15728125,-1.3037581,2.4498615,-0.06085745,1.3048846,1.5732834,stopLeft
0.15728125,-1.3037581,2.4498615,-0.06085745,1.3048846,1.5732834,stopLeft
0.59284586,-1.2739558,1.14573,0.19876029,1.3818536,1.6001616,stopLeft
0.59284586,-1.2739558,1.14573,0.19876029,1.3818536,1.6001616,stopLeft
0.49702233,-1.134511,-0.33033752,0.21708624,1.4178946,1.6380352,stopLeft
0.49702233,-1.134511,-0.33033752,0.21708624,1.4178946,1.6380352,stopLeft
0.6342788,-0.8949461,-0.7977915,0.02649628,1.4075099,1.6471981,stopLeft
0.6342788,-0.8949461,-0.7977915,0.02649628,1.4075099,1.6471981,stopLeft
0.61548257,-0.88066816,-0.21046972,-0.2270128,1.388573,1.6270396,stopLeft
0.61548257,-0.88066816,-0.21046972,-0.2270128,1.388573,1.6270396,stopLeft
0.8068652,-1.0388727,0.5821953,-0.3742313,1.303052,1.6062702,stopLeft
0.8068652,-1.0388727,0.5821953,-0.3742313,1.303052,1.6062702,stopLeft
1.2069638,-1.17524,1.4402475,-0.4359287,1.1142945,1.5952746,stopLeft
1.2069638,-1.17524,1.4402475,-0.4359287,1.1142945,1.5952746,stopLeft
1.3232528,-1.220952,2.2087584,-0.41943535,0.98112595,1.6129897,stopLeft
1.3232528,-1.220952,2.2087584,-0.41943535,0.98112595,1.6129897,stopLeft
1.4908136,-1.2032819,2.3009176,-0.29054278,0.9902889,1.6685784,stopLeft
1.4908136,-1.2032819,2.3009176,-0.29054278,0.9902889,1.6685784,stopLeft
1.787786,-1.0303612,1.4706717,-0.12194397,0.9872346,1.7217237,stopLeft
1.787786,-1.0303612,1.4706717,-0.12194397,0.9872346,1.7217237,stopLeft
2.0060923,-0.84631777,0.6562872,-0.018096883,0.9573022,1.7321084,stopLeft
2.0060923,-0.84631777,0.6562872,-0.018096883,0.9573022,1.7321084,stopLeft
2.1126118,-0.71391296,0.4442091,0.027107146,0.96279997,1.7009543,stopLeft
2.1126118,-0.71391296,0.4442091,0.027107146,0.96279997,1.7009543,stopLeft
1.973832,-0.711802,0.32970238,0.053985216,1.0196104,1.642922,stopLeft
1.973832,-0.711802,0.32970238,0.053985216,1.0196104,1.642922,stopLeft
1.7753463,-0.7068453,0.24595737,0.03443753,1.0385473,1.5787812,stopLeft
1.7753463,-0.7068453,0.24595737,0.03443753,1.0385473,1.5787812,stopLeft
1.5953829,-0.74403954,0.29526138,-0.016875152,0.9915106,1.4950926,stopLeft
1.5953829,-0.74403954,0.29526138,-0.016875152,0.9915106,1.4950926,stopLeft
1.4193497,-0.89899826,0.6832886,-0.07124216,0.876668,1.3863586,stopLeft
1.4193497,-0.89899826,0.6832886,-0.07124216,0.876668,1.3863586,stopLeft
1.4774652,-0.9483347,1.2887201,-0.020540344,0.7795404,1.2684617,stopLeft
1.4774652,-0.9483347,1.2887201,-0.020540344,0.7795404,1.2684617,stopLeft
1.4061935,-0.9905653,1.0688438,0.12912165,0.640874,1.1322387,stopLeft
1.4061935,-0.9905653,1.0688438,0.12912165,0.640874,1.1322387,stopLeft
2.1031506,-0.15492725,-1.538517,0.34475708,0.19188805,1.0412198,stopLeft
2.1031506,-0.15492725,-1.538517,0.34475708,0.19188805,1.0412198,stopLeft
2.701747,0.024786472,-0.8244171,0.29588786,0.13935363,0.91721416,stopLeft
2.701747,0.024786472,-0.8244171,0.29588786,0.13935363,0.91721416,stopLeft
1.8521876,-0.33781004,0.29527664,-0.2777146,0.7239517,0.7699956,stopLeft
1.8521876,-0.33781004,0.29527664,-0.2777146,0.7239517,0.7699956,stopLeft
1.4441986,-0.45957613,1.830553,-0.45242208,0.8797223,0.7699956,stopLeft
1.4441986,-0.45957613,1.830553,-0.45242208,0.8797223,0.7699956,stopLeft
1.259709,-0.4776721,2.4791517,-0.37362045,0.8638398,0.74189585,stopLeft
1.259709,-0.4776721,2.4791517,-0.37362045,0.8638398,0.74189585,stopLeft
1.4595513,-0.3301077,1.2376833,-0.19097175,0.6109416,0.68386364,stopLeft
1.4595513,-0.3301077,1.2376833,-0.19097175,0.6109416,0.68386364,stopLeft
1.45772,-0.31109238,1.2252226,-0.01198823,-0.0041996986,0.5665775,stop
1.45772,-0.31109238,1.2252226,-0.01198823,-0.0041996986,0.5665775,stop
1.918215,-0.77834797,0.8849745,-0.1249983,-0.0017562376,0.40408736,stop
1.918215,-0.77834797,0.8849745,-0.1249983,-0.0017562376,0.40408736,stop
2.2383687,-0.33458567,1.2856464,-0.021762075,0.20105103,0.19272798,stop
2.2383687,-0.33458567,1.2856464,-0.021762075,0.20105103,0.19272798,stop
1.6112711,-0.35744286,0.29405594,0.2176971,0.31589368,0.008246681,stop
1.6112711,-0.35744286,0.29405594,0.2176971,0.31589368,0.008246681,stop
1.0395151,-0.17640352,-0.65015936,0.20670153,0.3403283,-0.11209377,stop
1.0395151,-0.17640352,-0.65015936,0.20670153,0.3403283,-0.11209377,stop
0.4319633,-0.04829359,-0.3833022,0.10896309,0.17234036,-0.21838433,stop
0.4319633,-0.04829359,-0.3833022,0.10896309,0.17234036,-0.21838433,stop
0.14158332,-0.19268131,0.18458748,0.014278975,-0.07078401,-0.2678644,stop
0.14158332,-0.19268131,0.18458748,0.014278975,-0.07078401,-0.2678644,stop
0.11691609,-0.3455577,1.0699444,-0.05841399,-0.16180293,-0.31306845,stop
0.11691609,-0.3455577,1.0699444,-0.05841399,-0.16180293,-0.31306845,stop
0.14313065,-0.39539146,1.0684528,0.010613783,-0.14225525,-0.33628133,stop
0.14313065,-0.39539146,1.0684528,0.010613783,-0.14225525,-0.33628133,stop
-0.11278421,-0.48572922,0.7901697,0.09796751,-0.04757113,-0.31490102,stop
-0.11278421,-0.48572922,0.7901697,0.09796751,-0.04757113,-0.31490102,stop
-0.29027513,-0.33310556,0.29868126,0.14805846,0.07582365,-0.21655174,stop
-0.29027513,-0.33310556,0.29868126,0.14805846,0.07582365,-0.21655174,stop
-0.48200113,-0.18360853,-0.043481827,0.17799085,0.09659307,-0.09682214,stop
-0.48200113,-0.18360853,-0.043481827,0.17799085,0.09659307,-0.09682214,stop
-0.467656,-0.109116554,-0.4396901,0.18593211,0.10147999,0.0076358155,stop
-0.467656,-0.109116554,-0.4396901,0.18593211,0.10147999,0.0076358155,stop
-0.32153335,-0.07794809,-0.5490899,0.15538885,-0.014584408,0.061391957,stop
-0.32153335,-0.07794809,-0.5490899,0.15538885,-0.014584408,0.061391957,stop
-0.048531413,-0.10247517,-0.47345448,0.1297325,-0.16974418,0.07238753,stop
-0.048531413,-0.10247517,-0.47345448,0.1297325,-0.16974418,0.07238753,stop
0.33067113,-0.060225487,-0.12433624,0.10590876,-0.20822869,0.038179077,stop
0.33067113,-0.060225487,-0.12433624,0.10590876,-0.20822869,0.038179077,stop
0.43480933,0.022653103,-0.15233135,0.13584116,-0.15447254,-0.0027488936,stop
0.43480933,0.022653103,-0.15233135,0.13584116,-0.15447254,-0.0027488936,stop
0.5307193,0.09713125,-0.7715173,0.16394097,-0.10560333,-0.03573562,stop
0.5307193,0.09713125,-0.7715173,0.16394097,-0.10560333,-0.03573562,stop
0.37321532,0.018542767,-0.90179443,0.08697194,-0.07994699,-0.076052725,stop
0.37321532,0.018542767,-0.90179443,0.08697194,-0.07994699,-0.076052725,stop
0.4407512,0.0013766289,-0.73212194,8.399397E-4,-0.059788436,-0.10842858,stop
0.4407512,0.0013766289,-0.73212194,8.399397E-4,-0.059788436,-0.10842858,stop
0.30596375,-0.10550356,-0.28659916,-0.08590292,-0.081779584,-0.14508049,stop
0.30596375,-0.10550356,-0.28659916,-0.08590292,-0.081779584,-0.14508049,stop
0.10714695,-0.14502382,0.4026556,-0.12377657,-0.038408153,-0.15302174,stop
0.10714695,-0.14502382,0.4026556,-0.12377657,-0.038408153,-0.15302174,stop
0.031008601,-0.18003082,0.43879223,-0.049861874,-0.028634308,-0.12797627,stop
0.031008601,-0.18003082,0.43879223,-0.049861874,-0.028634308,-0.12797627,stop
-0.1079126,-0.14361,0.4938059,-0.018707749,6.872234E-4,-0.09254608,stop
-0.1079126,-0.14361,0.4938059,-0.018707749,6.872234E-4,-0.09254608,stop
0.04807216,0.0013699532,-0.004611969,0.04054618,0.046502117,-0.055283304,stop
0.04807216,0.0013699532,-0.004611969,0.04054618,0.046502117,-0.055283304,stop
-0.031656414,0.07671547,-0.36845684,0.028328875,0.05138904,-0.025961773,stop
-0.031656414,0.07671547,-0.36845684,0.028328875,0.05138904,-0.025961773,stop
0.061478615,0.09292126,-0.37551498,-0.024205536,0.0129045285,-0.02107485,stop
0.061478615,0.09292126,-0.37551498,-0.024205536,0.0129045285,-0.02107485,stop
0.050605446,0.10752392,0.27556896,-0.07551821,-0.005421429,-0.03634648,stop
0.050605446,0.10752392,0.27556896,-0.07551821,-0.005421429,-0.03634648,stop
0.06623137,0.04577446,0.33813477,-0.019318614,-0.065897085,-0.04550946,stop
0.06623137,0.04577446,0.33813477,-0.019318614,-0.065897085,-0.04550946,stop
0.09046206,0.02508688,0.51283455,-0.015653422,-0.024969118,-0.04917465,stop
0.09046206,0.02508688,0.51283455,-0.015653422,-0.024969118,-0.04917465,stop
0.049874038,6.084442E-4,0.21002293,0.020998493,0.0055741454,-0.038789943,stop
0.049874038,6.084442E-4,0.21002293,0.020998493,0.0055741454,-0.038789943,stop
0.07625103,0.033141613,0.13598347,0.025274549,0.032452215,-0.013133603,stop
0.07625103,0.033141613,0.13598347,0.025274549,0.032452215,-0.013133603,stop
0.038247615,0.005035877,-0.11932278,0.045433104,0.06666067,0.0021380284,stop
0.038247615,0.005035877,-0.11932278,0.045433104,0.06666067,0.0021380284,stop
0.022082865,-0.026154518,-0.3699522,0.019776762,0.041615196,0.0021380284,stop
0.022082865,-0.026154518,-0.3699522,0.019776762,0.041615196,0.0021380284,stop
0.03883335,0.006044388,-0.23709488,-0.010155635,-0.002977968,-0.005192355,stop
0.03883335,0.006044388,-0.23709488,-0.010155635,-0.002977968,-0.005192355,stop
-0.07759181,-0.04718733,-0.19760656,-0.027870728,0.0129045285,-0.005192355,stop
-0.07759181,-0.04718733,-0.19760656,-0.027870728,0.0129045285,-0.005192355,stop
-0.07759181,-0.04718733,-0.19760656,-0.047418416,0.028176159,0.0125227375,stop
-0.13945824,-0.08242226,0.040602684,-0.047418416,0.028176159,0.0125227375,stop
-0.022023976,0.0039000511,0.10515499,-0.030925052,0.019624045,0.021685716,stop
-0.022023976,0.0039000511,0.10515499,-0.030925052,0.019624045,0.021685716,stop
0.009525448,0.008567333,0.06367016,-0.044974953,0.024510968,0.022296581,stop
0.009525448,0.008567333,0.06367016,-0.044974953,0.024510968,0.022296581,stop
-0.013022423,-0.0013065338,0.06395817,-0.046196684,0.019624045,0.02107485,stop
-0.013022423,-0.0013065338,0.06395817,-0.046196684,0.019624045,0.02107485,stop
-0.044679165,0.061063766,0.07104397,-0.05169447,0.045280386,0.0290161,stop
-0.044679165,0.061063766,0.07104397,-0.05169447,0.045280386,0.0290161,stop
0.0032449663,0.10741091,-0.0037326813,-0.046196684,0.010461068,0.038789943,stop
0.0032449663,0.10741091,-0.0037326813,-0.046196684,0.010461068,0.038789943,stop
0.069903195,0.13234329,0.032108307,-0.055970527,0.008017606,0.04734206,stop
0.069903195,0.13234329,0.032108307,-0.055970527,0.008017606,0.04734206,stop
0.16128668,0.15539074,0.17611599,-0.05719226,0.031841353,0.041233405,stop
0.16128668,0.15539074,0.17611599,-0.05719226,0.031841353,0.041233405,stop
0.12590322,0.14244747,0.094861984,-0.026648996,0.045280386,0.025961773,stop
0.12590322,0.14244747,0.094861984,-0.026648996,0.045280386,0.025961773,stop
0.1126872,0.18862057,-0.17411184,-0.005879578,0.04100433,0.01863139,stop
0.1126872,0.18862057,-0.17411184,-0.005879578,0.04100433,0.01863139,stop
-0.032787293,0.092166424,-0.11642885,-0.054748796,0.024510968,9.162979E-4,stop
-0.032787293,0.092166424,-0.11642885,-0.054748796,0.024510968,9.162979E-4,stop
-0.04422027,0.034017563,0.15210152,-0.07490735,0.0031306844,-0.0033597588,stop
-0.04422027,0.034017563,0.15210152,-0.07490735,0.0031306844,-0.0033597588,stop
-0.052667618,0.019031525,0.37095928,-0.05047274,-0.024358252,-9.162979E-4,stop
-0.052667618,0.019031525,0.37095928,-0.05047274,-0.024358252,-9.162979E-4,stop
-0.0038585663,0.044278145,0.24283218,0.0045051314,-0.045738537,0.008246681,stop
-0.0038585663,0.044278145,0.24283218,0.0045051314,-0.045738537,0.008246681,stop
0.07960296,0.113199234,-0.12037039,0.030772336,-0.034742963,0.026572637,stop
0.07960296,0.113199234,-0.12037039,0.030772336,-0.034742963,0.026572637,stop
0.021640748,0.09908962,0.066690445,-0.024816401,0.015958855,0.023518313,stop
0.021640748,0.09908962,0.066690445,-0.024816401,0.015958855,0.023518313,stop
-0.054407448,0.041084766,0.18189335,0.011835515,0.0012980887,0.008857546,stop
-0.054407448,0.041084766,0.18189335,0.011835515,0.0012980887,0.008857546,stop
-0.10387069,0.008563995,-0.02148819,0.038713586,-0.0182496,9.162979E-4,stop
-0.10387069,0.008563995,-0.02148819,0.038713586,-0.0182496,9.162979E-4,stop
-0.023476899,0.024645805,0.14262295,0.018555032,0.028787024,-0.004581489,stop
-0.023476899,0.024645805,0.14262295,0.018555032,0.028787024,-0.004581489,stop
-0.15339783,0.019199848,0.11153221,0.03810272,0.03428481,0.0125227375,stop
-0.15339783,0.019199848,0.11153221,0.03810272,0.03428481,0.0125227375,stop
-0.11795348,0.03796482,-0.1608882,0.045433104,0.0129045285,0.025961773,stop
-0.11795348,0.03796482,-0.1608882,0.045433104,0.0129045285,0.025961773,stop
-0.14593026,0.06375599,-0.14280939,0.006337727,0.040393464,0.023518313,stop
-0.14593026,0.06375599,-0.14280939,0.006337727,0.040393464,0.023518313,stop
-0.12533903,0.057374477,-0.13731813,0.0026725354,0.028176159,0.020463986,stop
-0.12533903,0.057374477,-0.13731813,0.0026725354,0.028176159,0.020463986,stop
-0.057322294,0.031787395,0.076402664,-0.01198823,0.031841353,0.0106901415,stop
-0.057322294,0.031787395,0.076402664,-0.01198823,0.031841353,0.0106901415,stop
-0.037499398,0.03167057,0.08618164,0.0045051314,0.023289237,0.0125227375,stop
-0.037499398,0.03167057,0.08618164,0.0045051314,0.023289237,0.0125227375,stop
-0.070258945,0.0037117004,0.1788969,0.0020616702,0.019013181,0.025350908,stop
-0.070258945,0.0037117004,0.1788969,0.0020616702,0.019013181,0.025350908,stop
-0.046771854,0.05622101,0.03888893,0.01488984,0.0092393365,0.03940081,stop
-0.046771854,0.05622101,0.03888893,0.01488984,0.0092393365,0.03940081,stop
-0.026119202,0.026835442,0.018029213,0.008781188,0.011682798,0.043066,stop
-0.026119202,0.026835442,0.018029213,0.008781188,0.011682798,0.043066,stop
0.07663971,0.052617073,0.23163223,0.005726862,0.015958855,0.036957346,stop
0.07663971,0.052617073,0.23163223,0.005726862,0.015958855,0.036957346,stop
0.03309256,0.010832787,0.11816692,0.027718011,0.018402316,0.030848695,stop
0.03309256,0.010832787,0.11816692,0.027718011,0.018402316,0.030848695,stop
0.08475247,0.06669378,-0.19457102,0.047876563,0.009850202,0.03145956,stop
0.08475247,0.06669378,-0.19457102,0.047876563,0.009850202,0.03145956,stop
0.10363546,0.06825352,-0.2644062,0.02405282,6.872234E-4,0.032070424,stop
0.10363546,0.06825352,-0.2644062,0.02405282,6.872234E-4,0.032070424,stop
0.10363546,0.06825352,-0.2644062,-0.005879578,0.007406741,0.022296581,stop
0.07660669,0.01929617,-0.20805025,-0.005879578,0.007406741,0.022296581,stop
0.025710344,-0.046987534,0.096933365,-0.027259862,0.01779145,0.0076358155,stop
0.025710344,-0.046987534,0.096933365,-0.027259862,0.01779145,0.0076358155,stop
-0.01947701,-0.073338985,0.1780901,-0.008933905,0.009850202,0.003970624,stop
-0.01947701,-0.073338985,0.1780901,-0.008933905,0.009850202,0.003970624,stop
-0.01570025,-0.09415817,0.17404556,0.01366811,-0.011530082,0.005192355,stop
-0.01570025,-0.09415817,0.17404556,0.01366811,-0.011530082,0.005192355,stop
-0.0061522424,-0.040583134,0.058137894,0.001450805,0.0067958757,0.011301007,stop
-0.0061522424,-0.040583134,0.058137894,0.001450805,0.0067958757,0.011301007,stop
-0.01872471,-0.02720499,-0.036456108,-9.92656E-4,0.014126259,0.013133603,stop
-0.01872471,-0.02720499,-0.036456108,-9.92656E-4,0.014126259,0.013133603,stop
0.0016562343,0.007797718,-0.02398014,-0.017486017,0.010461068,0.008246681,stop
0.0016562343,0.007797718,-0.02398014,-0.017486017,0.010461068,0.008246681,stop
-0.028188437,-0.020839214,0.0038318634,-0.02359467,-0.0048105638,-9.162979E-4,stop
-0.028188437,-0.020839214,0.0038318634,-0.02359467,-0.0048105638,-9.162979E-4,stop
-0.026546359,-0.013065338,0.091178894,-0.022372939,0.0019089539,-0.008246681,stop
-0.026546359,-0.013065338,0.091178894,-0.022372939,0.0019089539,-0.008246681,stop
0.025003225,0.002732277,0.09187889,8.399397E-4,0.0055741454,-0.0076358155,stop
0.025003225,0.002732277,0.09187889,8.399397E-4,0.0055741454,-0.0076358155,stop
0.08856881,0.04096985,-0.105977535,0.011224649,0.008017606,-0.008246681,stop
0.08856881,0.04096985,-0.105977535,0.011224649,0.008017606,-0.008246681,stop
0.058272004,0.06013155,-0.13075542,-0.0022143866,0.030619621,-0.0125227375,stop
0.058272004,0.06013155,-0.13075542,-0.0022143866,0.030619621,-0.0125227375,stop
0.08428046,0.04244423,-0.13879347,-0.020540344,0.027565295,-0.02107485,stop
0.08428046,0.04244423,-0.13879347,-0.020540344,0.027565295,-0.02107485,stop
0.047472984,0.03216076,0.044387817,-0.04008803,0.010461068,-0.03573562,stop
0.047472984,0.03216076,0.044387817,-0.04008803,0.010461068,-0.03573562,stop
0.02223581,0.01593399,0.23295498,-0.0388663,0.0110719325,-0.04917465,stop
0.02223581,0.01593399,0.23295498,-0.0388663,0.0110719325,-0.04917465,stop
-0.03612113,0.014965534,0.24536514,-0.017486017,0.024510968,-0.042455133,stop
-0.03612113,0.014965534,0.24536514,-0.017486017,0.024510968,-0.042455133,stop
-0.046999782,0.048434258,0.006000519,0.006948592,0.03306308,-0.025350908,stop
-0.046999782,0.048434258,0.006000519,0.006948592,0.03306308,-0.025350908,stop
0.06537613,0.106155396,-0.19503117,2.2907447E-4,0.026343564,-0.0143553335,stop
0.06537613,0.106155396,-0.19503117,2.2907447E-4,0.026343564,-0.0143553335,stop
0.053409964,0.062126637,-0.07855272,-0.016264288,-0.0041996986,-0.028405234,stop
0.053409964,0.062126637,-0.07855272,-0.016264288,-0.0041996986,-0.028405234,stop
0.07583237,0.036227226,-0.07410574,-0.0071013086,-0.008475755,-0.04062254,stop
0.07583237,0.036227226,-0.07410574,-0.0071013086,-0.008475755,-0.04062254,stop
0.10274434,0.052666664,-0.030968666,-0.021762075,0.0019089539,-0.040011674,stop
0.10274434,0.052666664,-0.030968666,-0.021762075,0.0019089539,-0.040011674,stop
0.00767377,0.056133747,-0.050168037,-0.024816401,0.024510968,-0.020463986,stop
0.00767377,0.056133747,-0.050168037,-0.024816401,0.024510968,-0.020463986,stop
0.043298006,0.10309458,0.13873672,-0.044974953,0.025732698,-0.0027488936,stop
0.043298006,0.10309458,0.13873672,-0.044974953,0.025732698,-0.0027488936,stop
-0.026125342,0.10317612,0.2054596,-0.042531494,0.025121834,0.0070249503,stop
-0.026125342,0.10317612,0.2054596,-0.042531494,0.025121834,0.0070249503,stop
-0.012895882,0.100039005,0.10835457,-0.0388663,0.0037415496,0.02107485,stop
-0.012895882,0.100039005,0.10835457,-0.0388663,0.0037415496,0.02107485,stop
0.07593161,0.09722614,0.15941334,-0.032757647,0.019624045,0.0290161,stop
0.07593161,0.09722614,0.15941334,-0.032757647,0.019624045,0.0290161,stop
0.13275692,0.14826012,-0.011389732,-0.008933905,0.0397826,0.03390302,stop
0.13275692,0.14826012,-0.011389732,-0.008933905,0.0397826,0.03390302,stop
0.1659072,0.20278788,-0.15485716,-0.003436117,0.034895677,0.035124753,stop
0.1659072,0.20278788,-0.15485716,-0.003436117,0.034895677,0.035124753,stop
0.17167132,0.1963172,-0.24251747,-0.0046578473,0.0397826,0.03145956,stop
0.17167132,0.1963172,-0.24251747,-0.0046578473,0.0397826,0.03145956,stop
0.2403028,0.16172123,-0.25375366,-0.015042556,0.04344779,0.026572637,stop
0.2403028,0.16172123,-0.25375366,-0.015042556,0.04344779,0.026572637,stop
0.3758027,0.15699673,-0.22590303,-0.022372939,0.053221636,0.013744468,stop
0.3758027,0.15699673,-0.22590303,-0.022372939,0.053221636,0.013744468,stop
0.3758027,0.15699673,-0.22590303,-0.022372939,0.053221636,0.013744468,stop
0.3758027,0.15699673,-0.22590303,-0.019929478,0.03795,-0.0015271631,stop
0.42808223,0.08382273,-0.1339202,-0.022372939,0.004352415,-0.0106901415,stop
0.42808223,0.08382273,-0.1339202,-0.022372939,0.004352415,-0.0106901415,stop
0.4430014,0.08115053,-0.18459511,-0.005879578,-0.010308351,-0.004581489,stop
0.4430014,0.08115053,-0.18459511,-0.005879578,-0.010308351,-0.004581489,stop
0.46429247,0.07476282,-0.12086153,-0.004046982,-0.014584408,0.0033597588,stop
0.46429247,0.07476282,-0.12086153,-0.004046982,-0.014584408,0.0033597588,stop
0.5886489,0.19389343,-0.38070345,0.022220224,-0.025579982,0.004581489,stop
0.5886489,0.19389343,-0.38070345,0.022220224,-0.025579982,0.004581489,stop
0.5189754,0.24615717,-0.7918496,0.030161472,-0.032910366,-0.016187929,stop
0.5189754,0.24615717,-0.7918496,0.030161472,-0.032910366,-0.016187929,stop
0.41806746,0.32523966,-0.69936514,-0.041309763,-0.02985604,-0.043066,stop
0.41806746,0.32523966,-0.69936514,-0.041309763,-0.02985604,-0.043066,stop
0.23670916,0.3765688,-0.5930457,-0.09628764,-0.02985604,-0.055283304,stop
0.23670916,0.3765688,-0.5930457,-0.09628764,-0.02985604,-0.055283304,stop
0.27194634,0.356802,-0.054409027,-0.11766792,-0.08422305,-0.05222898,stop
0.27194634,0.356802,-0.054409027,-0.11766792,-0.08422305,-0.05222898,stop
0.15337446,0.23884487,0.27126837,-0.06085745,-0.13981178,-0.036957346,stop
0.15337446,0.23884487,0.27126837,-0.06085745,-0.13981178,-0.036957346,stop
0.15337446,0.23884487,0.27126837,0.04298964,-0.065897085,-0.008246681,stop
-0.1653285,0.026636124,0.31746864,0.04298964,-0.065897085,-0.008246681,stop
-0.50460577,0.102285385,-0.21877098,0.18898644,0.048334714,0.03573562,stop
-0.50460577,0.102285385,-0.21877098,0.18898644,0.048334714,0.03573562,stop
-0.7064406,0.6705494,-1.3299298,0.31054863,0.12835807,0.053450707,stop
-0.7064406,0.6705494,-1.3299298,0.31054863,0.12835807,0.053450707,stop
-0.70609987,1.3828611,-2.8355122,0.31543553,0.0959822,0.0290161,stop
-0.70609987,1.3828611,-2.8355122,0.31543553,0.0959822,0.0290161,stop
-0.70609987,1.3828611,-2.8355122,0.11690433,0.010461068,-0.01863139,stop
-1.0728136,1.7640843,-3.47431,0.11690433,0.010461068,-0.01863139,stop
-1.0728136,1.7640843,-3.47431,-0.22212587,0.040393464,-0.061391957,stop
-1.3414776,1.6603255,-2.6945648,-0.22212587,0.040393464,-0.061391957,stop
-1.3414776,1.6603255,-2.6945648,-0.4994587,0.0129045285,-0.11942416,stop
-1.6029732,1.0947733,-1.5923572,-0.4994587,0.0129045285,-0.11942416,stop
-1.3822855,0.39076662,-0.32658243,-0.73097664,0.08071057,-0.1591304,stop
-1.3822855,0.39076662,-0.32658243,-0.73097664,0.08071057,-0.1591304,stop
-1.440383,0.17309618,1.1364474,-0.7578547,0.15034921,-0.20250183,stop
-1.440383,0.17309618,1.1364474,-0.7578547,0.15034921,-0.20250183,stop
-1.2760787,0.35235453,0.7786627,-0.45608726,0.15157095,-0.21777347,stop
-1.2760787,0.35235453,0.7786627,-0.45608726,0.15157095,-0.21777347,stop
-0.859693,0.6990204,-1.6113243,-0.12927435,0.117362484,-0.20677789,stop
-0.859693,0.6990204,-1.6113243,-0.12927435,0.117362484,-0.20677789,stop
-0.8614366,0.80108976,-2.7443461,-0.10239629,0.0025198192,-0.18784106,stop
-0.8614366,0.80108976,-2.7443461,-0.10239629,0.0025198192,-0.18784106,stop
-0.5369216,1.2654653,-2.622849,-0.1830305,0.0019089539,-0.116980694,stop
-0.5369216,1.2654653,-2.622849,-0.1830305,0.0019089539,-0.116980694,stop
-0.43403208,1.489377,-2.6556487,-0.19830213,0.015347989,-0.07971791,stop
-0.43403208,1.489377,-2.6556487,-0.19830213,0.015347989,-0.07971791,stop
-0.4576277,1.5073271,-2.5486603,-0.26061037,0.0055741454,-0.07544186,stop
-0.4576277,1.5073271,-2.5486603,-0.26061037,0.0055741454,-0.07544186,stop
-0.7705538,1.3382106,-1.383915,-0.30520356,0.0110719325,-0.06261369,stop
-0.7705538,1.3382106,-1.383915,-0.30520356,0.0110719325,-0.06261369,stop
-0.8505308,1.2764883,-0.9625287,-0.18608482,-0.13125966,-0.036957346,stop
-0.8505308,1.2764883,-0.9625287,-0.18608482,-0.13125966,-0.036957346,stop
-0.6420076,1.6026874,-2.65622,-0.13416128,-0.50022227,-0.011911872,stop
-0.6420076,1.6026874,-2.65622,-0.13416128,-0.50022227,-0.011911872,stop
1.0245303,1.7034702,-0.054488182,-0.22823453,-0.4440227,0.004581489,stop
1.0245303,1.7034702,-0.054488182,-0.22823453,-0.4440227,0.004581489,stop
-0.6682714,1.4317112,3.4721308,-0.5984189,0.3720933,-0.121256754,stop
-0.6682714,1.4317112,3.4721308,-0.5984189,0.3720933,-0.121256754,stop
-0.6682714,1.4317112,3.4721308,-0.20441078,0.41485387,-0.0729984,stop
-0.5868068,1.5166335,3.4192457,-0.20441078,0.41485387,-0.0729984,stop
-0.941556,1.6204481,1.9219103,0.16943875,0.04100433,-0.027183503,stop
-0.941556,1.6204481,1.9219103,0.16943875,0.04100433,-0.027183503,stop
-0.24655922,2.0417023,1.8194361,0.14072809,-0.086055644,-0.043066,move
-0.24655922,2.0417023,1.8194361,0.14072809,-0.086055644,-0.043066,move
0.010715455,2.4776206,3.0701714,0.04298964,0.15890132,-0.102319926,move
0.010715455,2.4776206,3.0701714,0.04298964,0.15890132,-0.102319926,move
0.43720454,3.4596415,2.8547764,0.13767375,0.36048687,-0.16707164,move
0.43720454,3.4596415,2.8547764,0.13767375,0.36048687,-0.16707164,move
0.63953257,2.5303822,1.9058199,0.13950635,0.17722727,-0.23487769,move
0.63953257,2.5303822,1.9058199,0.13950635,0.17722727,-0.23487769,move
0.4395526,2.004125,1.7357254,-0.13232869,0.056886826,-0.29046643,move
0.4395526,2.004125,1.7357254,-0.13232869,0.056886826,-0.29046643,move
-0.2893892,1.0820608,1.5175514,-0.45791987,0.19555324,-0.4034765,move
-0.2893892,1.0820608,1.5175514,-0.45791987,0.19555324,-0.4034765,move
-0.34521353,-0.022285938,4.121889,-0.7572438,0.05933029,-0.45051312,move
-0.34521353,-0.022285938,4.121889,-0.7572438,0.05933029,-0.45051312,move
-0.34253806,-0.57847214,5.4564877,-0.5312237,-0.13920091,-0.41325033,move
-0.34253806,-0.57847214,5.4564877,-0.5312237,-0.13920091,-0.41325033,move
0.30768093,-0.48095798,3.6636,0.09796751,-0.28764117,-0.3747658,move
0.30768093,-0.48095798,3.6636,0.09796751,-0.28764117,-0.3747658,move
0.57342196,-0.8083248,0.014790535,0.6062074,-0.3224605,-0.4266894,move
0.57342196,-0.8083248,0.014790535,0.6062074,-0.3224605,-0.4266894,move
0.79025406,-0.8932295,-2.2670178,0.662407,-0.40187296,-0.5543602,move
0.79025406,-0.8932295,-2.2670178,0.662407,-0.40187296,-0.5543602,move
0.85849285,-1.2676773,-2.7799573,0.52129716,-0.47762027,-0.65087694,move
0.85849285,-1.2676773,-2.7799573,0.52129716,-0.47762027,-0.65087694,move
0.8454158,-1.6071603,-2.3461685,0.4369977,-0.47273335,-0.63499445,move
0.8454158,-1.6071603,-2.3461685,0.4369977,-0.47273335,-0.63499445,move
0.26117593,-2.0137067,-2.4152951,0.43455425,-0.2784782,-0.5488624,move
0.26117593,-2.0137067,-2.4152951,0.43455425,-0.2784782,-0.5488624,move
-0.06657487,-2.2442439,-3.2017255,0.41011965,-0.02985604,-0.43890667,move
-0.06657487,-2.2442439,-3.2017255,0.41011965,-0.02985604,-0.43890667,move
-0.32124406,-2.2980945,-3.449441,0.33620495,0.03306308,-0.37965274,move
-0.32124406,-2.2980945,-3.449441,0.33620495,0.03306308,-0.37965274,move
-0.6480939,-2.1461039,-3.264557,0.34170276,-0.12209669,-0.35338554,move
-0.6480939,-2.1461039,-3.264557,0.34170276,-0.12209669,-0.35338554,move
-0.61788476,-1.7845404,-3.092924,0.37835467,-0.22655465,-0.33628133,move
-0.61788476,-1.7845404,-3.092924,0.37835467,-0.22655465,-0.33628133,move
-0.528573,-1.119832,-3.1388187,0.43272167,-0.28580856,-0.30940324,move
-0.528573,-1.119832,-3.1388187,0.43272167,-0.28580856,-0.30940324,move
-0.65807927,-0.5356126,-3.4631152,0.46326494,-0.3102432,-0.2855795,move
-0.65807927,-0.5356126,-3.4631152,0.46326494,-0.3102432,-0.2855795,move
-0.63301075,-0.10764408,-3.3583813,0.37957639,-0.36399934,-0.23304509,move
-0.63301075,-0.10764408,-3.3583813,0.37957639,-0.36399934,-0.23304509,move
-0.5764571,0.11484289,-2.4808655,0.18593211,-0.4116468,-0.16584991,move
-0.5764571,0.11484289,-2.4808655,0.18593211,-0.4116468,-0.16584991,move
-0.6731147,0.33511782,-1.1387448,-0.019318614,-0.33589953,-0.093767814,move
-0.6731147,0.33511782,-1.1387448,-0.019318614,-0.33589953,-0.093767814,move
-1.2091688,0.8153534,0.19398117,-0.21907155,-0.16974418,-0.0290161,move
-1.2091688,0.8153534,0.19398117,-0.21907155,-0.16974418,-0.0290161,move
-1.833658,1.3417454,1.8743596,-0.26305383,-0.031688634,0.08582657,move
-1.833658,1.3417454,1.8743596,-0.26305383,-0.031688634,0.08582657,move
-2.0158517,1.7183123,2.727398,-0.12377657,0.10636691,0.24709499,move
-2.0158517,1.7183123,2.727398,-0.12377657,0.10636691,0.24709499,move
-1.8140055,2.3173652,3.4075289,-0.038255434,0.28840476,0.41386122,move
-1.8140055,2.3173652,3.4075289,-0.038255434,0.28840476,0.41386122,move
-1.6142164,3.178792,2.8836093,0.045433104,0.4423428,0.52687126,move
-1.6142164,3.178792,2.8836093,0.045433104,0.4423428,0.52687126,move
-2.4788995,2.5986753,1.0756164,-0.06452264,0.4881577,0.605062,move
-2.4788995,2.5986753,1.0756164,-0.06452264,0.4881577,0.605062,move
-2.475177,1.3516979,-0.58167267,-0.6998225,0.3403283,0.6197228,move
-2.475177,1.3516979,-0.58167267,-0.6998225,0.3403283,0.6197228,move
-1.2794673,-1.0398436,3.2508392,-1.6301702,-0.2577088,0.5439755,move
-1.2794673,-1.0398436,3.2508392,-1.6301702,-0.2577088,0.5439755,move
-0.32084638,-1.4341989,7.7947893,-1.7028632,-0.5222134,0.41996986,move
-0.32084638,-1.4341989,7.7947893,-1.7028632,-0.5222134,0.41996986,move
-0.30991513,-1.2192011,7.7174826,-0.73158747,-0.3279583,0.33567044,move
-0.30991513,-1.2192011,7.7174826,-0.73158747,-0.3279583,0.33567044,move
-0.15558453,-0.87662506,1.9124403,0.29405525,0.01779145,0.2947425,move
-0.15558453,-0.87662506,1.9124403,0.29405525,0.01779145,0.2947425,move
-0.5635775,-0.9076953,-1.7866597,0.45959973,0.23098342,0.23732115,move
-0.5635775,-0.9076953,-1.7866597,0.45959973,0.23098342,0.23732115,move
-0.9554043,-0.7744098,-3.2774935,0.20059288,0.31589368,0.21105394,move
-0.9554043,-0.7744098,-3.2774935,0.20059288,0.31589368,0.21105394,move
-1.6791936,-1.2349095,-3.396399,-0.10178542,0.22548564,0.22510384,move
-1.6791936,-1.2349095,-3.396399,-0.10178542,0.22548564,0.22510384,move
-1.549554,-1.5386145,-2.2752876,-0.2746603,0.19860756,0.28985557,move
-1.549554,-1.5386145,-2.2752876,-0.2746603,0.19860756,0.28985557,move
-0.9789071,-1.5199156,-1.787777,-0.21601722,0.25175285,0.3368922,move
-0.9789071,-1.5199156,-1.787777,-0.21601722,0.25175285,0.3368922,move
-0.3852531,-1.5015306,-2.3741603,-0.033368513,0.27924177,0.35216382,move
-0.3852531,-1.5015306,-2.3741603,-0.033368513,0.27924177,0.35216382,move
-0.051088378,-1.232183,-2.751587,0.0332158,0.098425664,0.32589662,move
-0.051088378,-1.232183,-2.751587,0.0332158,0.098425664,0.32589662,move
-0.2911641,-0.83736706,-1.2853408,-0.03397938,-0.16241379,0.28619036,move
-0.2911641,-0.83736706,-1.2853408,-0.03397938,-0.16241379,0.28619036,move
0.051636808,-0.16270685,-0.2421608,0.15355626,-0.25160012,0.2660318,move
0.051636808,-0.16270685,-0.2421608,0.15355626,-0.25160012,0.2660318,move
0.35037118,0.2131505,-0.4396844,0.43883032,-0.1501965,0.23304509,move
0.35037118,0.2131505,-0.4396844,0.43883032,-0.1501965,0.23304509,move
0.40349925,0.5230112,-0.5030441,0.53656876,-0.0463494,0.17073683,move
0.40349925,0.5230112,-0.5030441,0.53656876,-0.0463494,0.17073683,move
0.09597879,0.48744106,0.5395775,0.45288023,0.025121834,0.06505715,move
0.09597879,0.48744106,0.5395775,0.45288023,0.025121834,0.06505715,move
-0.47906685,0.32300854,2.092535,0.4974734,0.047112983,-0.06383542,move
-0.47906685,0.32300854,2.092535,0.4974734,0.047112983,-0.06383542,move
-0.7669154,0.19846249,2.7011356,0.69722635,-0.0017562376,-0.1133155,move
-0.7669154,0.19846249,2.7011356,0.69722635,-0.0017562376,-0.1133155,move
-0.63634926,0.17388582,2.7102213,0.85605127,-0.14103352,-0.09254608,move
-0.63634926,0.17388582,2.7102213,0.85605127,-0.14103352,-0.09254608,move
-0.12870632,0.21574831,2.8922405,0.85482955,-0.22105686,-0.082161374,move
-0.12870632,0.21574831,2.8922405,0.85482955,-0.22105686,-0.082161374,move
0.11235227,0.15569782,3.216628,0.83589274,-0.23021984,-0.13713925,move
0.11235227,0.15569782,3.216628,0.83589274,-0.23021984,-0.13713925,move
0.31358737,1.6791239,2.8231916,0.9293551,-0.2167808,-0.26358834,move
0.31358737,1.6791239,2.8231916,0.9293551,-0.2167808,-0.26358834,move
1.1890361,1.2391233,0.17453003,0.96050924,-0.37071884,-0.4456262,move
1.1890361,1.2391233,0.17453003,0.96050924,-0.37071884,-0.4456262,move
0.9807519,1.4827561,-0.52089596,0.46937358,-0.4641812,-0.6404922,move
0.9807519,1.4827561,-0.52089596,0.46937358,-0.4641812,-0.6404922,move
0.01306304,-0.2331028,0.67983675,-0.3656792,-0.17524196,-0.7779369,move
0.01306304,-0.2331028,0.67983675,-0.3656792,-0.17524196,-0.7779369,move
-0.34405237,-0.94269705,4.848155,-1.0138072,0.24136813,-0.8011498,move
-0.34405237,-0.94269705,4.848155,-1.0138072,0.24136813,-0.8011498,move
-0.73336935,-1.0947604,5.5006785,-0.6301839,0.33605224,-0.8078693,move
-0.73336935,-1.0947604,5.5006785,-0.6301839,0.33605224,-0.8078693,move
-0.69828796,-1.1898584,1.8865795,0.030161472,-0.021914791,-0.7162395,move
-0.69828796,-1.1898584,1.8865795,0.030161472,-0.021914791,-0.7162395,move
-0.29304156,-1.2316732,-0.092453,0.27634016,-0.30535626,-0.6270532,move
-0.29304156,-1.2316732,-0.092453,0.27634016,-0.30535626,-0.6270532,move
-0.145428,-1.3762131,-0.45300865,0.30688342,-0.25160012,-0.5335908,move
-0.145428,-1.3762131,-0.45300865,0.30688342,-0.25160012,-0.5335908,move
-0.2037667,-1.6499772,-1.1035638,0.28916833,0.047112983,-0.4529566,move
-0.2037667,-1.6499772,-1.1035638,0.28916833,0.047112983,-0.4529566,move
-0.39825547,-1.8108168,-1.3047242,0.21708624,0.15706873,-0.36682457,move
-0.39825547,-1.8108168,-1.3047242,0.21708624,0.15706873,-0.36682457,move
-0.56732196,-2.0117555,-1.6660242,0.31665727,-0.008475755,-0.28496864,move
-0.56732196,-2.0117555,-1.6660242,0.31665727,-0.008475755,-0.28496864,move
-0.76493603,-1.9374609,-2.35571,0.41378483,-0.12148582,-0.22449298,move
-0.76493603,-1.9374609,-2.35571,0.41378483,-0.12148582,-0.22449298,move
-0.6490916,-1.8108149,-2.675694,0.47548223,-0.14225525,-0.20372356,move
-0.6490916,-1.8108149,-2.675694,0.47548223,-0.14225525,-0.20372356,move
-0.40243918,-1.458405,-2.9484468,0.5109124,-0.0603993,-0.23609942,move
-0.40243918,-1.458405,-2.9484468,0.5109124,-0.0603993,-0.23609942,move
-0.076521754,-0.8603444,-2.7677794,0.4724279,-0.089109965,-0.2678644,move
-0.076521754,-0.8603444,-2.7677794,0.4724279,-0.089109965,-0.2678644,move
-0.12198466,-0.71278286,-2.04312,0.372246,-0.09216429,-0.29046643,move
-0.12198466,-0.71278286,-2.04312,0.372246,-0.09216429,-0.29046643,move
-0.39079624,-0.7063427,-1.0167317,0.35269833,-0.07506007,-0.25625798,move
-0.39079624,-0.7063427,-1.0167317,0.35269833,-0.07506007,-0.25625798,move
-0.36886257,-0.75590086,-0.970593,0.372246,0.018402316,-0.19272798,move
-0.36886257,-0.75590086,-0.970593,0.372246,0.018402316,-0.19272798,move
-0.6072638,-0.8585534,-0.35490847,0.3282637,0.2083814,-0.11026118,move
-0.6072638,-0.8585534,-0.35490847,0.3282637,0.2083814,-0.11026118,move
-0.6789081,-0.33623457,-0.021535873,0.3111595,0.26702446,-0.003970624,move
-0.6789081,-0.33623457,-0.021535873,0.3111595,0.26702446,-0.003970624,move
-0.27094096,-0.5459933,1.5365677,0.39790234,0.24258986,0.052839845,move
-0.27094096,-0.5459933,1.5365677,0.39790234,0.24258986,0.052839845,move
-1.2734047,0.09905434,0.7766018,0.5225189,0.19921842,0.118202426,move
-1.2734047,0.09905434,0.7766018,0.5225189,0.19921842,0.118202426,move
-1.9659992,0.15857077,1.2724457,0.49686253,0.019624045,0.23304509,move
-1.9659992,0.15857077,1.2724457,0.49686253,0.019624045,0.23304509,move
-1.0754354,0.6527653,2.8527265,0.44249552,-0.049403727,0.40958515,move
-1.0754354,0.6527653,2.8527265,0.44249552,-0.049403727,0.40958515,move
-0.6879261,1.8860359,3.5852747,0.5243515,0.11980595,0.39675698,move
-0.6879261,1.8860359,3.5852747,0.5243515,0.11980595,0.39675698,move
-1.3352419,2.319242,0.8670163,0.78396916,0.3299436,0.3295618,move
-1.3352419,2.319242,0.8670163,0.78396916,0.3299436,0.3295618,move
-0.7916878,2.2436213,-0.74826574,0.81634504,-0.057344973,0.42424592,move
-0.7916878,2.2436213,-0.74826574,0.81634504,-0.057344973,0.42424592,move
0.3223554,1.9492774,-2.083827,0.5573382,-0.43241623,0.41386122,move
0.3223554,1.9492774,-2.083827,0.5573382,-0.43241623,0.41386122,move
0.38312137,0.55967855,-0.06376791,-0.17570011,-0.60956717,0.2098322,move
0.38312137,0.55967855,-0.06376791,-0.17570011,-0.60956717,0.2098322,move
-0.5522586,-0.51197004,1.4632387,-0.7774024,-0.0463494,0.015577064,move
-0.5522586,-0.51197004,1.4632387,-0.7774024,-0.0463494,0.015577064,move
-2.7818747,-1.5362754,0.8009486,-0.99548125,0.45517096,-0.04917465,move
-2.7818747,-1.5362754,0.8009486,-0.99548125,0.45517096,-0.04917465,move
-3.7155824,-2.2567945,0.84844065,-0.90751666,0.18272507,0.2593123,move
-3.7155824,-2.2567945,0.84844065,-0.90751666,0.18272507,0.2593123,move
-2.8464553,-2.2244463,0.5708394,-0.66072714,-0.22411118,0.59712076,move
-2.8464553,-2.2244463,0.5708394,-0.66072714,-0.22411118,0.59712076,move
-1.3431683,-2.2071862,1.1245918,-0.45853072,-0.5252678,0.7431176,move
-1.3431683,-2.2071862,1.1245918,-0.45853072,-0.5252678,0.7431176,move
-0.34345585,-2.300867,1.3818135,-0.2373975,-0.32490396,0.7162395,move
-0.34345585,-2.300867,1.3818135,-0.2373975,-0.32490396,0.7162395,move
-0.09526509,-2.5573788,-0.50739336,-0.09017898,0.07338019,0.59773165,move
-0.09526509,-2.5573788,-0.50739336,-0.09017898,0.07338019,0.59773165,move
0.08826003,-2.3871422,-2.0943737,-0.11033753,0.13446671,0.4908302,move
0.08826003,-2.3871422,-2.0943737,-0.11033753,0.13446671,0.4908302,move
-0.1607672,-2.2592058,-2.14188,-0.19952387,-0.08972083,0.3998113,move
-0.1607672,-2.2592058,-2.14188,-0.19952387,-0.08972083,0.3998113,move
-0.21621567,-1.7299023,-1.3989673,-0.2129629,-0.2344959,0.38759398,move
-0.21621567,-1.7299023,-1.3989673,-0.2129629,-0.2344959,0.38759398,move
1.8041892,-0.080495834,-0.5543194,-0.07735081,-0.13309227,0.37293324,move
1.8041892,-0.080495834,-0.5543194,-0.07735081,-0.13309227,0.37293324,move
2.3155594,0.9984908,-1.3897729,0.11629347,0.17417295,-0.010079277,move
2.3155594,0.9984908,-1.3897729,0.11629347,0.17417295,-0.010079277,move
0.07664047,0.47977877,-1.6324592,0.19326249,0.025121834,-0.22449298,move
0.07664047,0.47977877,-1.6324592,0.19326249,0.025121834,-0.22449298,move
-1.3388473,-0.25953484,-0.4412136,0.3056617,-0.17402023,-0.1328632,move
-1.3388473,-0.25953484,-0.4412136,0.3056617,-0.17402023,-0.1328632,move
-1.5238825,-0.9188347,-0.6895199,0.3355941,-0.10560333,0.032070424,move
-1.5238825,-0.9188347,-0.6895199,0.3355941,-0.10560333,0.032070424,move
-1.0139713,-0.7636814,0.41319847,0.13095424,0.06604981,0.14630222,move
-1.0139713,-0.7636814,0.41319847,0.13095424,0.06604981,0.14630222,move
-0.6245934,-0.48093414,1.0854359,-9.92656E-4,0.050167307,0.10476339,move
-0.6245934,-0.48093414,1.0854359,-9.92656E-4,0.050167307,0.10476339,move
0.28368825,-0.014361858,1.7806888,-0.12805262,-0.27053696,0.03634648,move
0.28368825,-0.014361858,1.7806888,-0.12805262,-0.27053696,0.03634648,move
0.9306929,0.29881573,3.9438825,-0.27527115,-0.5668066,-0.102319926,move
0.9306929,0.29881573,3.9438825,-0.27527115,-0.5668066,-0.102319926,move
0.6036811,1.4407535,5.3541164,-0.14943291,-0.37132972,-0.22876903,move
0.6036811,1.4407535,5.3541164,-0.14943291,-0.37132972,-0.22876903,move
1.9466703,2.3627,2.444861,0.31482467,-0.07689266,-0.27030787,move
1.9466703,2.3627,2.444861,0.31482467,-0.07689266,-0.27030787,move
1.9714949,1.4440417,0.41528606,0.25495988,-0.36399934,-0.39492437,move
1.9714949,1.4440417,0.41528606,0.25495988,-0.36399934,-0.39492437,move
0.9407489,1.1785126,0.023422718,-0.30764702,-0.09155343,-0.4896085,move
0.9407489,1.1785126,0.023422718,-0.30764702,-0.09155343,-0.4896085,move
0.079583764,0.1982379,1.6428761,-0.8262716,0.3580434,-0.55924714,move
0.079583764,0.1982379,1.6428761,-0.8262716,0.3580434,-0.55924714,move
-0.30541715,-0.119077206,2.602437,-1.0492374,0.75938183,-0.68691796,move
-0.30541715,-0.119077206,2.602437,-1.0492374,0.75938183,-0.68691796,move
-1.0260228,-0.8318815,2.261035,-0.9179014,0.71539956,-0.7651087,move
-1.0260228,-0.8318815,2.261035,-0.9179014,0.71539956,-0.7651087,move
-1.0579062,-1.1702061,1.3819399,-0.5953645,0.21998784,-0.6637051,move
-1.0579062,-1.1702061,1.3819399,-0.5953645,0.21998784,-0.6637051,move
0.0352374,-1.3676286,0.7102337,-0.25755605,-0.37377316,-0.55924714,move
0.0352374,-1.3676286,0.7102337,-0.25755605,-0.37377316,-0.55924714,move
0.20139988,-1.8096056,0.15377331,-0.17508925,-0.44035748,-0.4859433,move
0.20139988,-1.8096056,0.15377331,-0.17508925,-0.44035748,-0.4859433,move
-0.18484935,-2.0526547,-0.7613783,-0.115835324,-0.25831965,-0.37293324,move
-0.18484935,-2.0526547,-0.7613783,-0.115835324,-0.25831965,-0.37293324,move
-0.48239386,-2.2511554,-1.9904861,-0.057803124,-0.08361218,-0.23487769,move
-0.48239386,-2.2511554,-1.9904861,-0.057803124,-0.08361218,-0.23487769,move
-0.84340227,-2.3840454,-2.3669958,-0.039477166,0.024510968,-0.10293079,move
-0.84340227,-2.3840454,-2.3669958,-0.039477166,0.024510968,-0.10293079,move
-1.2302747,-2.2238817,-1.9957447,-0.04314236,0.12530373,-0.0033597588,move
-1.2302747,-2.2238817,-1.9957447,-0.04314236,0.12530373,-0.0033597588,move
-0.96440756,-1.5427518,-1.8798981,-0.0016035213,0.11919508,0.093767814,move
-0.96440756,-1.5427518,-1.8798981,-0.0016035213,0.11919508,0.093767814,move
-0.4383803,-0.96111965,-1.8559632,0.036270123,0.030619621,0.124311075,move
-0.4383803,-0.96111965,-1.8559632,0.036270123,0.030619621,0.124311075,move
0.036151826,-0.7074747,-0.7398076,0.077198096,0.0067958757,0.089491755,move
0.036151826,-0.7074747,-0.7398076,0.077198096,0.0067958757,0.089491755,move
0.07723352,-0.1777091,-0.02853489,0.2616794,0.031230485,0.013744468,move
0.07723352,-0.1777091,-0.02853489,0.2616794,0.031230485,0.013744468,move
-0.29091695,-0.054036617,0.007050991,0.45715627,-0.04879286,-0.024740042,move
-0.29091695,-0.054036617,0.007050991,0.45715627,-0.04879286,-0.024740042,move
-0.120743096,0.21550846,0.045212746,0.5567273,-0.20334177,0.0076358155,move
-0.120743096,0.21550846,0.045212746,0.5567273,-0.20334177,0.0076358155,move
0.25267962,0.51051855,0.33129692,0.594601,-0.15447254,0.0106901415,move
0.25267962,0.51051855,0.33129692,0.594601,-0.15447254,0.0106901415,move
-0.070372045,0.5329108,0.6630678,0.49319732,0.26519188,0.027794369,move
-0.070372045,0.5329108,0.6630678,0.49319732,0.26519188,0.027794369,move
-1.047485,0.27383947,0.90954304,0.3862959,0.5810092,0.17134771,move
-1.047485,0.27383947,0.90954304,0.3862959,0.5810092,0.17134771,move
-0.5597076,1.1983914,0.7653675,0.39057195,0.47288606,0.38515055,move
-0.5597076,1.1983914,0.7653675,0.39057195,0.47288606,0.38515055,move
-0.5597076,1.1983914,0.7653675,0.34170276,0.12041681,0.36254853,move
0.26970953,1.7872529,1.3877845,0.34170276,0.12041681,0.36254853,move
-0.43044674,2.3420305,3.382361,0.199982,0.17661642,0.24831672,move
-0.43044674,2.3420305,3.382361,0.199982,0.17661642,0.24831672,move
-1.8883257,2.5273876,3.2600546,0.34720054,0.4441754,0.22204952,move
-1.8883257,2.5273876,3.2600546,0.34720054,0.4441754,0.22204952,move
-2.1793416,1.8100901,1.4902787,0.63858324,0.11552989,0.4156938,move
-2.1793416,1.8100901,1.4902787,0.63858324,0.11552989,0.4156938,move
-0.29252514,1.65417,-0.3692298,0.4657084,-0.29008463,0.6221663,move
-0.29252514,1.65417,-0.3692298,0.4657084,-0.29008463,0.6221663,move
-0.29252514,1.65417,-0.3692298,-0.25389087,-0.6651559,0.47861293,move
1.2629008,0.09738493,1.6377287,-0.25389087,-0.6651559,0.47861293,move
1.2629008,0.09738493,1.6377287,-0.76029813,-0.34139732,0.29718593,move
0.21761721,-1.073822,4.850306,-0.76029813,-0.34139732,0.29718593,move
-0.98792344,-1.4933538,3.2521548,-0.5648213,0.4899903,0.20433442,move
-0.98792344,-1.4933538,3.2521548,-0.5648213,0.4899903,0.20433442,move
-1.6201614,-1.9748759,-0.7487278,-0.28076893,0.7441102,0.24587326,move
-1.6201614,-1.9748759,-0.7487278,-0.28076893,0.7441102,0.24587326,move
-1.4474908,-1.7774696,-2.237073,-0.31803173,0.3928627,0.30757064,move
-1.4474908,-1.7774696,-2.237073,-0.31803173,0.3928627,0.30757064,move
-1.3780167,-2.0739822,-1.836009,-0.35162932,-0.21372648,0.30879238,move
-1.3780167,-2.0739822,-1.836009,-0.35162932,-0.21372648,0.30879238,move
-0.60674465,-2.1337109,-1.0427909,-0.339412,-0.45623997,0.35216382,move
-0.60674465,-2.1337109,-1.0427909,-0.339412,-0.45623997,0.35216382,move
-0.60674465,-2.1337109,-1.0427909,-0.33574682,-0.18440494,0.32895094,move
0.07461174,-2.295989,-1.1700253,-0.33574682,-0.18440494,0.32895094,move
0.5818606,-2.3544006,-2.1779656,-0.36201403,0.16317739,0.21105394,move
0.5818606,-2.3544006,-2.1779656,-0.36201403,0.16317739,0.21105394,move
0.65926677,-2.230648,-2.1983767,-0.43043092,0.21754439,0.0852157,move
0.65926677,-2.230648,-2.1983767,-0.43043092,0.21754439,0.0852157,move
-0.20125367,-2.2135186,-1.4063783,-0.38705948,0.20777054,0.050396383,move
-0.20125367,-2.2135186,-1.4063783,-0.38705948,0.20777054,0.050396383,move
-0.20125367,-2.2135186,-1.4063783,-0.10728321,0.121638544,0.21227567,move
-0.68611866,-1.8988309,-1.3229904,-0.10728321,0.121638544,0.21227567,move
0.012870003,-0.84329176,-1.6300793,0.07414377,0.06299548,0.33933565,move
0.012870003,-0.84329176,-1.6300793,0.07414377,0.06299548,0.33933565,move
0.49482965,-0.049173832,-1.1208997,0.033826664,0.2523637,0.30451632,move
0.49482965,-0.049173832,-1.1208997,0.033826664,0.2523637,0.30451632,move
0.7245323,0.8918805,-0.37209845,0.008781188,0.34460434,0.16890424,move
0.7245323,0.8918805,-0.37209845,0.008781188,0.34460434,0.16890424,move
0.0025008768,0.7287092,0.23299026,0.12423472,0.16562083,-0.020463986,move
0.0025008768,0.7287092,0.23299026,0.12423472,0.16562083,-0.020463986,move
-0.6441405,0.2823162,1.0919094,0.29710957,-0.104992464,-0.032070424,move
-0.6441405,0.2823162,1.0919094,0.29710957,-0.104992464,-0.032070424,move
-0.59758407,0.28867674,1.2139091,0.5225189,-0.283976,0.08032878,move
-0.59758407,0.28867674,1.2139091,0.5225189,-0.283976,0.08032878,move
0.5621543,0.70524836,2.2135587,0.58604884,-0.29741502,0.11575896,move
0.5621543,0.70524836,2.2135587,0.58604884,-0.29741502,0.11575896,move
1.3366408,1.2420659,1.8658013,0.7448738,-0.12209669,-0.01863139,move
1.3366408,1.2420659,1.8658013,0.7448738,-0.12209669,-0.01863139,move
1.2530651,1.2818274,1.2395144,0.5933792,-0.02985604,-0.28680122,move
1.2530651,1.2818274,1.2395144,0.5933792,-0.02985604,-0.28680122,move
1.2530651,1.2818274,1.2395144,0.372246,-0.1605812,-0.5653558,move
-0.10807517,0.7295947,1.1967015,0.372246,-0.1605812,-0.5653558,move
-1.4814782,1.1169529,1.7090135,0.18837558,-0.29497156,-0.5934556,move
-1.4814782,1.1169529,1.7090135,0.18837558,-0.29497156,-0.5934556,move
-0.45145914,0.84783745,1.656187,0.037491854,-0.3279583,-0.47433686,move
-0.45145914,0.84783745,1.656187,0.037491854,-0.3279583,-0.47433686,move
-0.45145914,0.84783745,1.656187,-0.2868776,-0.1923462,-0.50243664,move
0.06932356,1.370328,1.8737097,-0.2868776,-0.1923462,-0.50243664,move
0.7430036,0.5368848,1.7021308,-0.70959634,0.032452215,-0.700357,move
0.7430036,0.5368848,1.7021308,-0.70959634,0.032452215,-0.700357,move
-0.35572252,-0.5861554,2.3690286,-1.2343296,0.32505667,-1.0021244,move
-0.35572252,-0.5861554,2.3690286,-1.2343296,0.32505667,-1.0021244,move
-1.6379938,-1.5169191,3.1717596,-1.2160037,0.35987598,-0.93126404,move
-1.6379938,-1.5169191,3.1717596,-1.2160037,0.35987598,-0.93126404,move
-2.1070018,-2.009922,2.949329,-0.82199556,0.2945134,-0.6105598,move
-2.1070018,-2.009922,2.949329,-0.82199556,0.2945134,-0.6105598,move
-1.4644505,-1.9536448,1.4512057,-0.30214924,0.058108557,-0.19394971,move
-1.4644505,-1.9536448,1.4512057,-0.30214924,0.058108557,-0.19394971,move
-0.42634684,-1.7827182,0.37002516,0.11140655,-0.45501825,0.11942416,move
-0.42634684,-1.7827182,0.37002516,0.11140655,-0.45501825,0.11942416,move
0.7417258,-1.3774586,-0.6702752,0.2561816,-0.5912412,0.21899518,move
0.7417258,-1.3774586,-0.6702752,0.2561816,-0.5912412,0.21899518,move
0.78082955,-1.3050194,-0.9688239,0.059483003,-0.3395647,0.10598512,move
0.78082955,-1.3050194,-0.9688239,0.059483003,-0.3395647,0.10598512,move
0.43007076,-1.4085441,-1.0761166,-0.07185303,-0.042073343,-0.0143553335,move
0.43007076,-1.4085441,-1.0761166,-0.07185303,-0.042073343,-0.0143553335,move
0.024673998,-1.5020299,-1.4567008,-0.009544769,-0.015195273,-0.09987647,move
0.024673998,-1.5020299,-1.4567008,-0.009544769,-0.015195273,-0.09987647,move
-0.3513931,-1.3699598,-1.5961151,0.14622587,-0.23205243,-0.10842858,move
-0.3513931,-1.3699598,-1.5961151,0.14622587,-0.23205243,-0.10842858,move
-0.3513931,-1.3699598,-1.5961151,0.32276592,-0.42447498,-0.110872045,move
-0.12647197,-0.8287945,-1.9716296,0.32276592,-0.42447498,-0.110872045,move
-0.010222703,-0.4947691,-2.3023462,0.2946661,-0.3395647,-0.20189096,move
-0.010222703,-0.4947691,-2.3023462,0.2946661,-0.3395647,-0.20189096,move
-0.21104968,-0.2401247,-2.2982855,0.13584116,-0.13187054,-0.30024028,move
-0.21104968,-0.2401247,-2.2982855,0.13584116,-0.13187054,-0.30024028,move
-0.6159799,-0.10225248,-1.8507419,-0.0052687125,-0.023747386,-0.3820962,move
-0.6159799,-0.10225248,-1.8507419,-0.0052687125,-0.023747386,-0.3820962,move
-0.9823141,0.035528183,-1.1259842,-0.056581393,-0.017638734,-0.40408736,move
-0.9823141,0.035528183,-1.1259842,-0.056581393,-0.017638734,-0.40408736,move
-1.132509,0.1651206,0.3937497,-0.076739945,-0.024969118,-0.34055737,move
-1.132509,0.1651206,0.3937497,-0.076739945,-0.024969118,-0.34055737,move
-1.132509,0.1651206,0.3937497,0.068645984,-0.050014593,-0.23060162,move
-1.042572,0.3327813,1.6829634,0.068645984,-0.050014593,-0.23060162,move
-1.3106871,0.517941,1.9608402,0.23602305,0.038560867,-0.11759156,move
-1.3106871,0.517941,1.9608402,0.23602305,0.038560867,-0.11759156,move
-1.5940773,0.54133224,2.0502124,0.28061622,0.20227276,0.07788532,move
-1.5940773,0.54133224,2.0502124,0.28061622,0.20227276,0.07788532,move
-1.5940773,0.54133224,2.0502124,0.28061622,0.20227276,0.07788532,move
-1.4779134,0.7979326,2.6859932,0.31054863,0.23587035,0.24648413,move
-1.4779134,0.7979326,2.6859932,0.4217261,0.1924989,0.3491095,move
-1.242244,0.8911872,2.9419398,0.4217261,0.1924989,0.3491095,move
-1.242244,0.8911872,2.9419398,0.5408448,0.24625506,0.42363504,move
-1.7711291,1.6530023,4.0037103,0.5408448,0.24625506,0.42363504,move
-2.4069715,2.3199286,1.3915348,0.7430412,0.57306796,0.5726862,move
-2.4069715,2.3199286,1.3915348,0.7430412,0.57306796,0.5726862,move
-2.4069715,2.3199286,1.3915348,0.7430412,0.57306796,0.5726862,move
-1.4810481,2.7687144,-1.2432723,0.58421624,0.2926808,0.68325275,move
0.96616995,2.1733084,-1.5016007,0.051541757,-0.29985848,0.54275376,move
0.96616995,2.1733084,-1.5016007,0.051541757,-0.29985848,0.54275376,move
1.673512,0.5357766,2.1157222,-0.60574925,-0.6480517,0.109650314,move
1.673512,0.5357766,2.1157222,-0.60574925,-0.6480517,0.109650314,move
0.14613253,-1.2847404,5.0178237,-0.7786241,-0.10560333,-0.20372356,move
0.14613253,-1.2847404,5.0178237,-0.7786241,-0.10560333,-0.20372356,move
-2.4458997,-2.225986,2.7355518,-0.4188245,0.6683629,-0.22082779,move
-2.4458997,-2.225986,2.7355518,-0.4188245,0.6683629,-0.22082779,move
-2.746755,-2.2330146,-0.66291904,-0.118889645,0.74349934,0.12614368,move
-2.746755,-2.2330146,-0.66291904,-0.118889645,0.74349934,0.12614368,move
-1.128866,-1.2178078,-2.4291863,0.01366811,0.24625506,0.40042216,move
-1.128866,-1.2178078,-2.4291863,0.01366811,0.24625506,0.40042216,move
0.14827204,-0.9766555,-2.5320425,0.010002919,-0.28764117,0.31429017,move
0.14827204,-0.9766555,-2.5320425,0.010002919,-0.28764117,0.31429017,move
0.6468322,-1.2605929,-1.9667692,-0.11339186,-0.33773214,0.086437434,move
0.6468322,-1.2605929,-1.9667692,-0.11339186,-0.33773214,0.086437434,move
0.31517392,-1.9710574,-1.4088397,-0.2514474,-0.086055644,-0.13836098,move
0.31517392,-1.9710574,-1.4088397,-0.2514474,-0.086055644,-0.13836098,move
-0.05113864,-2.5985928,-1.3354397,-0.29176453,0.1381319,-0.2012801,move
-0.05113864,-2.5985928,-1.3354397,-0.29176453,0.1381319,-0.2012801,move
-0.24097839,-2.6757786,-0.48617554,-0.26061037,0.10392345,-0.14630222,move
-0.24097839,-2.6757786,-0.48617554,-0.26061037,0.10392345,-0.14630222,move
-0.35957536,-2.3687224,0.7263818,-0.052916203,0.015347989,-0.043676864,move
-0.35957536,-2.3687224,0.7263818,-0.052916203,0.015347989,-0.043676864,move
-0.05377367,-1.8887691,0.13206577,0.40278926,0.058108557,0.061391957,move
-0.05377367,-1.8887691,0.13206577,0.40278926,0.058108557,0.061391957,move
0.14890565,-1.418242,-1.2668834,0.51396674,0.13446671,0.026572637,move
0.14890565,-1.418242,-1.2668834,0.51396674,0.13446671,0.026572637,move
-0.21227366,-1.2914734,-1.583808,0.40706533,0.0959822,-0.083383106,move
-0.21227366,-1.2914734,-1.583808,0.40706533,0.0959822,-0.083383106,move
-0.65646034,-1.5562568,-0.63658524,0.31604642,0.023900103,-0.17440203,move
-0.65646034,-1.5562568,-0.63658524,0.31604642,0.023900103,-0.17440203,move
-1.0056816,-1.9178686,0.11001015,0.29588786,0.060552016,-0.20250183,move
-1.0056816,-1.9178686,0.11001015,0.29588786,0.060552016,-0.20250183,move
-0.9388362,-1.8960791,0.18282986,0.30260736,0.12041681,-0.16035213,move
-0.9388362,-1.8960791,0.18282986,0.30260736,0.12041681,-0.16035213,move
-0.63272226,-1.4523673,0.13137865,0.26656634,-0.0066431593,-0.11575896,move
-0.63272226,-1.4523673,0.13137865,0.26656634,-0.0066431593,-0.11575896,move
0.06794134,-0.7938256,1.2282982,0.13523029,-0.29741502,-0.11026118,move
0.06794134,-0.7938256,1.2282982,0.13523029,-0.29741502,-0.11026118,move
0.36926675,-0.37546635,2.676888,-0.015653422,-0.4311945,-0.19822577,move
0.36926675,-0.37546635,2.676888,-0.015653422,-0.4311945,-0.19822577,move
0.21684915,0.056129932,4.1520867,-0.085292056,-0.3365104,-0.29840767,move
0.21684915,0.056129932,4.1520867,-0.085292056,-0.3365104,-0.29840767,move
-0.72502446,0.9215512,3.5467162,0.015500706,0.12835807,-0.24709499,move
-0.72502446,0.9215512,3.5467162,0.015500706,0.12835807,-0.24709499,move
-0.16800898,1.1035833,0.74463034,0.10163271,0.40569088,-0.09743301,move
-0.16800898,1.1035833,0.74463034,0.10163271,0.40569088,-0.09743301,move
-0.16800898,1.1035833,0.74463034,-0.115835324,0.19310978,-0.1255328,move
0.8451362,2.207024,-1.0149446,-0.115835324,0.19310978,-0.1255328,move
1.088402,1.9617424,-1.2334228,-0.5446627,-0.2680935,-0.464563,move
1.088402,1.9617424,-1.2334228,-0.5446627,-0.2680935,-0.464563,move
1.088402,1.9617424,-1.2334228,-1.0535135,-0.43730316,-0.8011498,move
0.069355845,0.77868795,1.3255334,-1.0535135,-0.43730316,-0.8011498,move
-1.5375845,-0.3710251,3.007049,-1.2465469,-0.087277375,-0.93676186,move
-1.5375845,-0.3710251,3.007049,-1.2465469,-0.087277375,-0.93676186,move
-2.8170543,-1.3773298,2.8821254,-1.073672,0.24686591,-0.76083267,move
-2.8170543,-1.3773298,2.8821254,-1.073672,0.24686591,-0.76083267,move
-1.7175742,-1.2904859,1.706831,-0.66194886,0.07704538,-0.28985557,move
-1.7175742,-1.2904859,1.706831,-0.66194886,0.07704538,-0.28985557,move
0.2673846,-0.73903227,1.1706281,-0.23006712,-0.44952047,0.029626964,move
0.2673846,-0.73903227,1.1706281,-0.23006712,-0.44952047,0.029626964,move
1.2782686,-0.31894255,0.70342827,0.110795684,-0.60651284,-0.0015271631,move
1.2782686,-0.31894255,0.70342827,0.110795684,-0.60651284,-0.0015271631,move
0.7364612,-0.6771107,-0.3085928,0.14500414,-0.28153253,-0.16035213,move
0.7364612,-0.6771107,-0.3085928,0.14500414,-0.28153253,-0.16035213,move
0.1925922,-0.8819032,-1.3899922,0.12301299,-0.074449204,-0.22510384,move
0.1925922,-0.8819032,-1.3899922,0.12301299,-0.074449204,-0.22510384,move
-0.11472249,-0.9207277,-1.2958131,0.17066048,-0.14958562,-0.22143865,move
-0.11472249,-0.9207277,-1.2958131,0.17066048,-0.14958562,-0.22143865,move
-0.13051152,-0.59718895,-1.3030457,0.33498323,-0.31574097,-0.21044308,move
