accX,accY,accZ,angleX,angleY,angleZ,label
-0.0031466202,3.8693973E-4,0.061182976,1.5271631E-4,1.5271631E-4,7.6358156E-5,stop
-0.0035409555,8.6500036E-4,0.061039526,1.5271631E-4,1.5271631E-4,6.872234E-4,stop
-0.001335477,0.002761143,0.06379627,1.5271631E-4,-4.5814895E-4,7.6358156E-5,stop
3.67221E-5,0.0024662043,0.06418756,-4.5814895E-4,1.5271631E-4,7.6358156E-5,stop
3.67221E-5,0.0024662043,0.06418756,-4.5814895E-4,1.5271631E-4,7.6358156E-5,stop
0.0011755275,0.0022257066,0.06451379,1.5271631E-4,1.5271631E-4,7.6358156E-5,stop
0.0011755275,0.0022257066,0.06451379,1.5271631E-4,1.5271631E-4,7.6358156E-5,stop
0.0011755275,0.0022257066,0.06451379,1.5271631E-4,1.5271631E-4,7.6358156E-5,stop
0.0033398136,0.0020195697,0.06478533,1.5271631E-4,-4.5814895E-4,7.6358156E-5,stop
0.0033398136,0.0020195697,0.06478533,1.5271631E-4,-4.5814895E-4,7.6358156E-5,stop
0.0039518885,0.0034486442,0.06501146,1.5271631E-4,1.5271631E-4,6.872234E-4,stop
0.0039518885,0.0034486442,0.06501146,1.5271631E-4,1.5271631E-4,6.872234E-4,stop
0.0039518885,0.0034486442,0.06501146,1.5271631E-4,1.5271631E-4,6.872234E-4,stop
0.0020644285,0.0038273425,0.06519989,7.6358154E-4,-4.5814895E-4,-0.0011453723,stop
0.0020644285,0.0038273425,0.06519989,7.6358154E-4,-4.5814895E-4,-0.0011453723,stop
0.0032711583,0.0029318603,0.06854951,1.5271631E-4,1.5271631E-4,-5.345071E-4,stop
0.0032711583,0.0029318603,0.06854951,1.5271631E-4,1.5271631E-4,-5.345071E-4,stop
0.0032711583,0.0029318603,0.06854951,1.5271631E-4,1.5271631E-4,-5.345071E-4,stop
0.0014683792,0.0057698013,0.07014399,1.5271631E-4,1.5271631E-4,-0.0011453723,stop
0.0014683792,0.0057698013,0.07014399,1.5271631E-4,1.5271631E-4,-0.0011453723,stop
0.002785234,0.006044744,0.0686791,1.5271631E-4,1.5271631E-4,-0.0011453723,stop
0.002785234,0.006044744,0.0686791,7.6358154E-4,-0.0010690142,6.872234E-4,stop
0.002785234,0.006044744,0.0686791,7.6358154E-4,-0.0010690142,6.872234E-4,stop
0.0034159606,0.0021162806,0.067858584,1.5271631E-4,-4.5814895E-4,7.6358156E-5,stop
0.0034159606,0.0021162806,0.067858584,1.5271631E-4,-4.5814895E-4,7.6358156E-5,stop
0.0034159606,0.0021162806,0.067858584,-4.5814895E-4,1.5271631E-4,-5.345071E-4,stop
0.0051370044,0.0016286796,0.07116515,-4.5814895E-4,1.5271631E-4,-5.345071E-4,stop
0.0051370044,0.0016286796,0.07116515,-4.5814895E-4,1.5271631E-4,-5.345071E-4,stop
0.006094194,0.002464552,0.07112858,1.5271631E-4,1.5271631E-4,7.6358156E-5,stop
0.006094194,0.002464552,0.07112858,1.5271631E-4,1.5271631E-4,7.6358156E-5,stop
0.006094194,0.002464552,0.07112858,1.5271631E-4,-0.0041233404,6.872234E-4,stop
0.0068965484,0.001958517,0.067107454,1.5271631E-4,-0.0041233404,6.872234E-4,stop
0.0068965484,0.001958517,0.067107454,1.5271631E-4,-0.0041233404,6.872234E-4,stop
0.004691692,-4.7402197E-4,0.07253652,1.5271631E-4,-0.0041233404,6.872234E-4,stop
0.004691692,-4.7402197E-4,0.07253652,-4.5814895E-4,1.5271631E-4,-5.345071E-4,stop
0.005641941,-0.0033040333,0.07307057,7.6358154E-4,7.6358154E-4,6.872234E-4,stop
0.005641941,-0.0033040333,0.07307057,7.6358154E-4,7.6358154E-4,6.872234E-4,stop
0.0012645505,0.0011155553,0.073914565,7.6358154E-4,1.5271631E-4,6.872234E-4,stop
0.0012645505,0.0011155553,0.073914565,7.6358154E-4,1.5271631E-4,6.872234E-4,stop
8.0249895E-4,0.0011924063,0.07302176,-4.5814895E-4,1.5271631E-4,7.6358156E-5,stop
8.0249895E-4,0.0011924063,0.07302176,-4.5814895E-4,1.5271631E-4,7.6358156E-5,stop
-7.7024114E-4,3.7664743E-4,0.070681624,7.6358154E-4,1.5271631E-4,7.6358156E-5,stop
-7.7024114E-4,3.7664743E-4,0.070681624,7.6358154E-4,1.5271631E-4,7.6358156E-5,stop
-4.8954546E-4,0.0020832745,0.069130465,1.5271631E-4,1.5271631E-4,-5.345071E-4,stop
-4.8954546E-4,0.0020832745,0.069130465,1.5271631E-4,1.5271631E-4,-5.345071E-4,stop
1.6079546E-4,0.0011087264,0.06863558,1.5271631E-4,1.5271631E-4,-5.345071E-4,stop
1.6079546E-4,0.0011087264,0.06863558,1.5271631E-4,7.6358154E-4,6.872234E-4,stop
-0.0012760559,0.0038618012,0.06503075,1.5271631E-4,1.5271631E-4,7.6358156E-5,stop
-0.0012760559,0.0038618012,0.06503075,1.5271631E-4,1.5271631E-4,7.6358156E-5,stop
-3.3019307E-5,9.1579085E-4,0.062823996,1.5271631E-4,1.5271631E-4,7.6358156E-5,stop
-3.3019307E-5,9.1579085E-4,0.062823996,1.5271631E-4,1.5271631E-4,7.6358156E-5,stop
-3.3019307E-5,9.1579085E-4,0.062823996,-4.5814895E-4,7.6358154E-4,-5.345071E-4,stop
6.1968854E-4,6.07384E-5,0.06497521,-4.5814895E-4,7.6358154E-4,-5.345071E-4,stop
0.0043215007,-0.0026013835,0.06477328,1.5271631E-4,1.5271631E-4,6.872234E-4,stop
0.0043215007,-0.0026013835,0.06477328,1.5271631E-4,1.5271631E-4,6.872234E-4,stop
0.005736761,-0.0020003906,0.064606115,-4.5814895E-4,-4.5814895E-4,-5.345071E-4,stop
0.005736761,-0.0020003906,0.064606115,-4.5814895E-4,-4.5814895E-4,-5.345071E-4,stop
0.0046988563,-0.0031084085,0.06486942,-0.0010690142,1.5271631E-4,7.6358156E-5,stop
0.0046988563,-0.0031084085,0.06486942,-0.0010690142,1.5271631E-4,7.6358156E-5,stop
0.0030416164,-0.0032155167,0.063492395,1.5271631E-4,7.6358154E-4,-5.345071E-4,stop
0.0030416164,-0.0032155167,0.063492395,1.5271631E-4,7.6358154E-4,-5.345071E-4,stop
0.0024642574,-0.0017039176,0.061945915,1.5271631E-4,1.5271631E-4,7.6358156E-5,stop
0.0024642574,-0.0017039176,0.061945915,1.5271631E-4,1.5271631E-4,7.6358156E-5,stop
7.9388823E-4,-0.0016462452,0.063051224,-4.5814895E-4,1.5271631E-4,7.6358156E-5,stop
7.9388823E-4,-0.0016462452,0.063051224,-4.5814895E-4,1.5271631E-4,7.6358156E-5,stop
0.0029901953,-0.0011864896,0.061977226,7.6358154E-4,-4.5814895E-4,6.872234E-4,stop
0.0029901953,-0.0011864896,0.061977226,7.6358154E-4,-4.5814895E-4,6.872234E-4,stop
0.004405506,-0.0032011897,0.061880615,7.6358154E-4,1.5271631E-4,-5.345071E-4,stop
0.004405506,-0.0032011897,0.061880615,7.6358154E-4,1.5271631E-4,-5.345071E-4,stop
0.0063796854,-0.003697537,0.06140115,-4.5814895E-4,-4.5814895E-4,-5.345071E-4,stop
0.0063796854,-0.003697537,0.06140115,-4.5814895E-4,-4.5814895E-4,-5.345071E-4,stop
0.0076227714,-0.0044974503,0.060602482,-4.5814895E-4,1.5271631E-4,6.872234E-4,stop
0.0076227714,-0.0044974503,0.060602482,-4.5814895E-4,1.5271631E-4,6.872234E-4,stop
0.0076227714,-0.0044974503,0.060602482,1.5271631E-4,-4.5814895E-4,6.872234E-4,stop
0.004965133,-0.0026933071,0.061135698,1.5271631E-4,-4.5814895E-4,6.872234E-4,stop
0.004965133,-0.0026933071,0.061135698,0.0032070426,0.012980887,7.6358156E-5,stop
0.00609839,-0.0020347757,0.069558166,0.0032070426,0.012980887,7.6358156E-5,stop
0.0030486141,-0.0031894522,0.07377738,0.004428773,0.019700404,6.872234E-4,stop
0.0030486141,-0.0031894522,0.07377738,0.004428773,0.019700404,6.872234E-4,stop
-0.0015984721,-0.0026777782,0.06890312,0.006872234,0.021533,7.6358156E-5,stop
-0.0015984721,-0.0026777782,0.06890312,0.006872234,0.021533,7.6358156E-5,stop
0.0026046007,-0.0019947684,0.07161741,-0.00290161,-0.011453724,7.6358156E-5,stop
0.0026046007,-0.0019947684,0.07161741,-0.00290161,-0.011453724,7.6358156E-5,stop
0.0011688818,-0.0017072501,0.07548372,-0.00290161,-0.011453724,7.6358156E-5,stop
0.0011688818,-0.0017072501,0.07548372,-0.00290161,-0.011453724,0.0012980887,stop
5.420338E-4,-6.836262E-4,0.073920734,1.5271631E-4,0.0025961774,6.872234E-4,stop
5.420338E-4,-6.836262E-4,0.073920734,1.5271631E-4,0.0025961774,6.872234E-4,stop
-0.0035162286,5.614394E-4,0.074213594,-0.0010690142,-0.0065668016,-0.0011453723,stop
-0.0035162286,5.614394E-4,0.074213594,-0.0010690142,-0.0065668016,-0.0011453723,stop
-0.001096471,-3.159146E-4,0.07326348,-0.0016798794,-0.0035124752,7.6358156E-5,stop
-0.001096471,-3.159146E-4,0.07326348,-0.0016798794,-0.0035124752,7.6358156E-5,stop
-2.0335268E-4,-2.48237E-4,0.07366747,0.001985312,0.0050396384,-5.345071E-4,stop
-2.0335268E-4,-2.48237E-4,0.07366747,0.001985312,0.0050396384,-5.345071E-4,stop
-9.295291E-4,1.731862E-4,0.0680168,0.001985312,0.0050396384,-5.345071E-4,stop
-9.295291E-4,1.731862E-4,0.0680168,0.001985312,0.0038179078,-5.345071E-4,stop
5.469839E-4,0.0012555774,0.07288327,1.5271631E-4,-0.0010690142,6.872234E-4,stop
5.469839E-4,0.0012555774,0.07288327,1.5271631E-4,-0.0010690142,6.872234E-4,stop
0.0022263462,0.002802901,0.07893312,0.001985312,0.00870483,6.872234E-4,stop
0.0022263462,0.002802901,0.07893312,0.001985312,0.00870483,6.872234E-4,stop
3.396615E-4,0.003212205,0.07040292,0.001985312,0.006872234,7.6358156E-5,stop
3.396615E-4,0.003212205,0.07040292,0.001985312,0.006872234,7.6358156E-5,stop
-0.0010967267,0.0035155613,0.063292354,0.0013744468,1.5271631E-4,6.872234E-4,stop
-0.0010967267,0.0035155613,0.063292354,0.0013744468,1.5271631E-4,6.872234E-4,stop
0.0020798384,0.011258224,0.061357535,0.0013744468,0.0032070426,7.6358156E-5,stop
0.0020798384,0.011258224,0.061357535,0.0013744468,0.0032070426,7.6358156E-5,stop
0.019448256,0.06137939,0.06333783,1.5271631E-4,0.0355829,-0.015195273,stop
0.019448256,0.06137939,0.06333783,1.5271631E-4,0.0355829,-0.015195273,stop
0.029822864,0.088045776,0.065138124,0.0025961774,0.02275473,-0.20028745,stop
0.029822864,0.088045776,0.065138124,0.0025961774,0.02275473,-0.20028745,stop
-0.09080573,0.17049079,0.060244303,-0.024892759,0.07467828,-0.45318565,stop
-0.09080573,0.17049079,0.060244303,-0.024892759,0.07467828,-0.45318565,stop
-0.30096146,0.4864126,0.04773309,-0.10980303,0.07345655,-0.22777638,stop
-0.30096146,0.4864126,0.04773309,-0.10980303,0.07345655,-0.22777638,stop
-0.4920893,0.8420254,0.013706346,-0.075594574,0.03313944,-0.11293371,stop
-0.4920893,0.8420254,0.013706346,-0.075594574,0.03313944,-0.11293371,stop
-0.71493596,1.0878383,0.059952375,-0.027947085,-0.054825157,0.095371336,stop
-0.71493596,1.0878383,0.059952375,-0.027947085,-0.054825157,0.095371336,stop
-0.48881853,1.4284497,-0.009226782,-0.035277467,-0.09086621,0.41485387,stop
-0.48881853,1.4284497,-0.009226782,-0.035277467,-0.09086621,0.41485387,stop
-0.11153472,1.6209339,0.048086975,0.034972034,-0.075594574,0.1698969,stop
-0.11153472,1.6209339,0.048086975,0.034972034,-0.075594574,0.1698969,stop
0.09322722,1.6758684,0.09948893,0.014813482,-0.024892759,-0.2344959,stop
0.09322722,1.6758684,0.09948893,0.014813482,-0.024892759,-0.2344959,stop
0.11053086,1.9193932,-0.008490159,0.05513059,1.5271631E-4,-0.5228243,stop
0.11053086,1.9193932,-0.008490159,0.05513059,1.5271631E-4,-0.5228243,stop
0.08083461,1.6961126,-0.009846352,0.069791354,-0.03283401,-0.5038875,stop
0.08083461,1.6961126,-0.009846352,0.069791354,-0.03283401,-0.5038875,stop
0.06922825,1.6498345,0.13871332,0.058184914,-0.018784106,-0.08666651,stop
0.06922825,1.6498345,0.13871332,0.058184914,-0.018784106,-0.08666651,stop
0.23608086,1.5358019,0.09775452,0.058184914,-0.018784106,-0.08666651,stop
0.23608086,1.5358019,0.09775452,0.024587326,-0.019394971,-0.1483639,stop
0.24392839,1.5340633,0.0022054117,0.024587326,-0.019394971,-0.1483639,stop
0.24392839,1.5340633,0.0022054117,-0.0096211275,-0.0047342055,-0.37010798,stop
0.13531591,1.3444468,-0.30566204,-0.0096211275,-0.0047342055,-0.37010798,stop
0.13531591,1.3444468,-0.30566204,0.016646078,0.007483099,-0.3487277,stop
0.060227197,1.3618555,-0.38781524,0.011759156,0.01786781,-0.36155587,stop
0.060227197,1.3618555,-0.38781524,0.011759156,0.01786781,-0.36155587,stop
0.07782957,1.076236,-0.23959456,-0.010231993,-0.045662176,-0.3169627,stop
0.07782957,1.076236,-0.23959456,-0.010231993,-0.045662176,-0.3169627,stop
0.042725842,1.1092151,-0.19148327,0.006872234,-0.005955936,-0.22594379,stop
0.042725842,1.1092151,-0.19148327,0.006872234,-0.005955936,-0.22594379,stop
0.110437706,0.9820491,-0.049227364,-0.01450805,0.036193766,-0.2308307,stop
0.110437706,0.9820491,-0.049227364,-0.01450805,0.036193766,-0.2308307,stop
0.17432882,0.8126913,-0.064779624,-0.022449298,-0.019394971,-0.44280094,stop
0.17432882,0.8126913,-0.064779624,-0.022449298,-0.019394971,-0.44280094,stop
0.118447356,0.8390332,-0.04539725,0.00992656,-0.010842858,-0.6639342,stop
0.118447356,0.8390332,-0.04539725,0.00992656,-0.010842858,-0.6639342,stop
0.103126064,0.6065281,-0.05358447,-0.0035124752,0.022143865,-0.43363798,stop
0.103126064,0.6065281,-0.05358447,-0.0035124752,0.022143865,-0.43363798,stop
0.0019891898,0.57907146,-0.31697273,-0.0096211275,-0.029168816,-0.32856914,stop
0.0019891898,0.57907146,-0.31697273,-0.0096211275,-0.029168816,-0.32856914,stop
0.04835612,0.16360685,-0.21724048,-0.008399397,0.0013744468,-0.35300374,stop
0.04835612,0.16360685,-0.21724048,-0.008399397,0.0013744468,-0.35300374,stop
0.24521491,0.44938868,-0.38871667,-0.020005837,0.04046982,-0.39698604,stop
0.24521491,0.44938868,-0.38871667,-0.020005837,0.04046982,-0.39698604,stop
0.08832339,0.21699448,-0.35086247,-0.035277467,-0.065209866,-0.46723557,stop
0.08832339,0.21699448,-0.35086247,-0.035277467,-0.065209866,-0.46723557,stop
-0.039111145,-0.040894844,-0.7056056,-0.02855795,-0.0786489,-0.3646102,stop
-0.039111145,-0.040894844,-0.7056056,-0.02855795,-0.0786489,-0.3646102,stop
-0.0702545,-0.16719663,-0.3930756,-0.0022907446,-0.02855795,-0.27908906,stop
-0.0702545,-0.16719663,-0.3930756,-0.0022907446,-0.02855795,-0.27908906,stop
-0.0702545,-0.16719663,-0.3930756,-0.018784106,0.019700404,-0.156916,stop
-0.11569361,-0.2886665,-0.16177465,-0.018784106,0.019700404,-0.156916,stop
-0.11569361,-0.2886665,-0.16177465,-0.01572978,-0.122020334,-0.034742963,stop
-0.20024826,-0.33124486,0.05609527,-0.01572978,-0.122020334,-0.034742963,stop
-0.093473256,-0.5963575,0.15306899,-0.01572978,0.055741455,-0.075670935,stop
-0.093473256,-0.5963575,0.15306899,-0.01572978,0.055741455,-0.075670935,stop
-0.093473256,-0.5963575,0.15306899,-0.0041233404,-0.019394971,-0.1605812,stop
-0.20294157,-0.8139731,0.25780126,-0.0041233404,-0.019394971,-0.1605812,stop
-0.35700655,-0.962079,0.28682232,-0.01572978,-0.019394971,0.110032104,stop
-0.35700655,-0.962079,0.28682232,-0.01572978,-0.019394971,0.110032104,stop
-0.24787058,-0.8887117,0.21763326,-0.013286319,0.019089539,0.18883371,stop
-0.24787058,-0.8887117,0.21763326,-0.013286319,0.019089539,0.18883371,stop
-0.1530761,-1.0356702,0.24135081,0.004428773,0.037415497,0.050167307,stop
-0.1530761,-1.0356702,0.24135081,0.004428773,0.037415497,0.050167307,stop
-0.2759982,-1.2418885,0.24036747,-0.018784106,-0.04016439,0.14057536,stop
-0.2759982,-1.2418885,0.24036747,-0.018784106,-0.04016439,0.14057536,stop
-0.4423823,-1.4298176,0.18687849,-0.0047342055,-0.012064588,0.47532952,stop
-0.4423823,-1.4298176,0.18687849,-0.0047342055,-0.012064588,0.47532952,stop
-0.40703484,-1.6743586,0.23326167,0.034972034,0.1217149,0.7728209,stop
-0.40703484,-1.6743586,0.23326167,0.034972034,0.1217149,0.7728209,stop
-0.14228472,-1.8484282,0.20323673,-0.00290161,0.0062613687,0.71173435,stop
-0.14228472,-1.8484282,0.20323673,-0.00290161,0.0062613687,0.71173435,stop
0.049001545,-2.128875,0.1925643,7.6358154E-4,0.014202617,0.4997641,stop
0.049001545,-2.128875,0.1925643,7.6358154E-4,0.014202617,0.4997641,stop
0.19987923,-2.3654737,0.2004052,-0.0016798794,0.016646078,0.34093916,stop
0.19987923,-2.3654737,0.2004052,-0.0016798794,0.016646078,0.34093916,stop
0.23883076,-2.4027505,0.1849768,-4.5814895E-4,0.0038179078,0.14362969,stop
0.23883076,-2.4027505,0.1849768,-4.5814895E-4,0.0038179078,0.14362969,stop
0.21089406,-2.294365,0.16532868,-0.0022907446,-0.0022907446,0.0800997,stop
0.21089406,-2.294365,0.16532868,-0.0022907446,-0.0022907446,0.0800997,stop
0.2292786,-2.142045,0.1521426,-0.0022907446,1.5271631E-4,0.17050776,stop
0.2292786,-2.142045,0.1521426,-0.0022907446,1.5271631E-4,0.17050776,stop
0.24763086,-1.9005013,0.14274524,-0.0022907446,-0.0010690142,0.09170614,stop
0.24763086,-1.9005013,0.14274524,-0.0022907446,-0.0010690142,0.09170614,stop
0.19818214,-1.596411,0.12932383,1.5271631E-4,0.006872234,0.0012980887,stop
0.19818214,-1.596411,0.12932383,1.5271631E-4,0.006872234,0.0012980887,stop
0.15836051,-1.3374311,0.119728774,0.0032070426,0.014813482,7.6358156E-5,stop
0.15836051,-1.3374311,0.119728774,0.0032070426,0.014813482,7.6358156E-5,stop
0.12526694,-1.1286144,0.11092418,0.0032070426,0.01786781,-5.345071E-4,stop
0.12526694,-1.1286144,0.11092418,0.0032070426,0.01786781,-5.345071E-4,stop
0.09781522,-0.9501185,0.10198071,0.0032070426,0.010537425,-0.0017562376,stop
0.09781522,-0.9501185,0.10198071,0.0032070426,0.010537425,-0.0017562376,stop
0.0752087,-0.8060971,0.096916616,1.5271631E-4,0.0032070426,-5.345071E-4,stop
0.0752087,-0.8060971,0.096916616,1.5271631E-4,0.0032070426,-5.345071E-4,stop
0.05682517,-0.6819828,0.09229583,1.5271631E-4,-4.5814895E-4,7.6358156E-5,stop
0.05682517,-0.6819828,0.09229583,1.5271631E-4,-4.5814895E-4,7.6358156E-5,stop
0.04468261,-0.5768619,0.08844471,-4.5814895E-4,1.5271631E-4,6.872234E-4,stop
0.04468261,-0.5768619,0.08844471,-4.5814895E-4,1.5271631E-4,6.872234E-4,stop
0.031437147,-0.4939842,0.08603176,0.0013744468,0.0050396384,-5.345071E-4,stop
0.031437147,-0.4939842,0.08603176,0.0013744468,0.0050396384,-5.345071E-4,stop
0.02176732,-0.42331278,0.08162374,7.6358154E-4,0.0038179078,6.872234E-4,stop
0.02176732,-0.42331278,0.08162374,7.6358154E-4,0.0038179078,6.872234E-4,stop
0.012090302,-0.36022025,0.07752871,7.6358154E-4,1.5271631E-4,7.6358156E-5,stop
0.012090302,-0.36022025,0.07752871,7.6358154E-4,1.5271631E-4,7.6358156E-5,stop
0.004298983,-0.3035589,0.0752838,-4.5814895E-4,-4.5814895E-4,-5.345071E-4,stop
0.004298983,-0.3035589,0.0752838,-4.5814895E-4,-4.5814895E-4,-5.345071E-4,stop
-3.297493E-4,-0.25736865,0.07419156,-4.5814895E-4,-0.0010690142,7.6358156E-5,stop
-3.297493E-4,-0.25736865,0.07419156,-4.5814895E-4,-0.0010690142,7.6358156E-5,stop
-0.0035360593,-0.21944244,0.074463755,-4.5814895E-4,-0.0010690142,7.6358156E-5,stop
-0.0035360593,-0.21944244,0.074463755,1.5271631E-4,7.6358154E-4,7.6358156E-5,stop
-0.0067958226,-0.18408038,0.07428003,0.0013744468,0.004428773,7.6358156E-5,stop
-0.0067958226,-0.18408038,0.07428003,0.0013744468,0.004428773,7.6358156E-5,stop
-0.0056959037,-0.1545059,0.06892892,7.6358154E-4,0.0032070426,7.6358156E-5,stop
-0.0056959037,-0.1545059,0.06892892,7.6358154E-4,0.0032070426,7.6358156E-5,stop
-0.0056959037,-0.1545059,0.06892892,1.5271631E-4,-4.5814895E-4,7.6358156E-5,stop
-0.0075908676,-0.12838243,0.07044905,1.5271631E-4,-4.5814895E-4,7.6358156E-5,stop
-0.008093897,-0.10605632,0.06732192,1.5271631E-4,-4.5814895E-4,6.872234E-4,stop
-0.008093897,-0.10605632,0.06732192,1.5271631E-4,-4.5814895E-4,6.872234E-4,stop
-0.0098641915,-0.08779257,0.065111436,-4.5814895E-4,-4.5814895E-4,-5.345071E-4,stop
-0.0098641915,-0.08779257,0.065111436,-4.5814895E-4,-4.5814895E-4,-5.345071E-4,stop
-0.011855755,-0.07295893,0.06565943,-4.5814895E-4,7.6358154E-4,-5.345071E-4,stop
-0.011855755,-0.07295893,0.06565943,-4.5814895E-4,7.6358154E-4,-5.345071E-4,stop
-0.008443915,-0.061801117,0.06411657,-0.0010690142,-0.0022907446,-0.0011453723,stop
-0.008443915,-0.061801117,0.06411657,-0.0010690142,-0.0022907446,-0.0011453723,stop
-0.0074474136,-0.054453194,0.06522297,-0.0010690142,-0.0041233404,-0.0011453723,stop
-0.0074474136,-0.054453194,0.06522297,-0.0010690142,-0.0041233404,-0.0011453723,stop
-0.004515008,-0.043435447,0.06574427,-4.5814895E-4,-0.0047342055,7.6358156E-5,stop
-0.004515008,-0.043435447,0.06574427,-4.5814895E-4,-0.0047342055,7.6358156E-5,stop
-0.00569322,-0.034222864,0.06498199,-4.5814895E-4,0.0013744468,-5.345071E-4,stop
-0.00569322,-0.034222864,0.06498199,-4.5814895E-4,0.0013744468,-5.345071E-4,stop
-0.0072716717,-0.03098547,0.06673809,-4.5814895E-4,0.0025961774,6.872234E-4,stop
-0.0072716717,-0.03098547,0.06673809,-4.5814895E-4,0.0025961774,6.872234E-4,stop
-0.0068441853,-0.024689458,0.06979558,0.0013744468,0.0013744468,-5.345071E-4,stop
-0.0068441853,-0.024689458,0.06979558,0.0013744468,0.0013744468,-5.345071E-4,stop
-0.0055651776,-0.021076811,0.07154367,1.5271631E-4,7.6358154E-4,7.6358156E-5,stop
-0.0055651776,-0.021076811,0.07154367,1.5271631E-4,7.6358154E-4,7.6358156E-5,stop
-0.006085867,-0.017362999,0.07220235,-4.5814895E-4,-0.0016798794,6.872234E-4,stop
-0.006085867,-0.017362999,0.07220235,-4.5814895E-4,-0.0016798794,6.872234E-4,stop
-0.0032926206,-0.013892688,0.070755675,7.6358154E-4,-4.5814895E-4,7.6358156E-5,stop
-0.0032926206,-0.013892688,0.070755675,7.6358154E-4,-4.5814895E-4,7.6358156E-5,stop
-8.889142E-4,-0.014261728,0.06994812,0.0013744468,0.0013744468,7.6358156E-5,stop
-8.889142E-4,-0.014261728,0.06994812,0.0013744468,0.0013744468,7.6358156E-5,stop
-7.7072065E-4,-0.014145211,0.07126881,0.0013744468,0.001985312,7.6358156E-5,stop
-7.7072065E-4,-0.014145211,0.07126881,0.0013744468,0.001985312,7.6358156E-5,stop
-7.7072065E-4,-0.014145211,0.07126881,1.5271631E-4,7.6358154E-4,7.6358156E-5,stop
9.780652E-4,-0.011669434,0.07196964,1.5271631E-4,7.6358154E-4,7.6358156E-5,stop
-3.4995074E-4,-0.010399745,0.07095738,-4.5814895E-4,1.5271631E-4,7.6358156E-5,stop
-3.4995074E-4,-0.010399745,0.07095738,-4.5814895E-4,1.5271631E-4,7.6358156E-5,stop
0.001753005,-0.0077411383,0.0725077,7.6358154E-4,7.6358154E-4,-0.0017562376,stop
0.001753005,-0.0077411383,0.0725077,7.6358154E-4,7.6358154E-4,-0.0017562376,stop
-0.0012690031,-0.0063380566,0.06901108,1.5271631E-4,7.6358154E-4,7.6358156E-5,stop
-0.0012690031,-0.0063380566,0.06901108,1.5271631E-4,7.6358154E-4,7.6358156E-5,stop
0.0022592847,-0.006703195,0.070884675,-4.5814895E-4,-4.5814895E-4,-0.0011453723,stop
0.0022592847,-0.006703195,0.070884675,-4.5814895E-4,-4.5814895E-4,-0.0011453723,stop
0.0028007904,-0.008597712,0.07085003,-4.5814895E-4,-0.0016798794,7.6358156E-5,stop
0.0028007904,-0.008597712,0.07085003,-4.5814895E-4,-0.0016798794,7.6358156E-5,stop
-0.010770452,-0.009696164,0.05087013,1.5271631E-4,7.6358154E-4,-5.345071E-4,stop
-0.010770452,-0.009696164,0.05087013,1.5271631E-4,7.6358154E-4,-5.345071E-4,stop
-0.006696676,-0.008348497,0.05416854,1.5271631E-4,-0.0022907446,7.6358156E-5,stop
-0.006696676,-0.008348497,0.05416854,1.5271631E-4,-0.0022907446,7.6358156E-5,stop
-0.0028961836,-0.0058835605,0.05731617,1.5271631E-4,-0.0016798794,-5.345071E-4,stop
-0.0028961836,-0.0058835605,0.05731617,1.5271631E-4,-0.0016798794,-5.345071E-4,stop
-0.0030238975,-0.0026465466,0.058743447,1.5271631E-4,7.6358154E-4,-5.345071E-4,stop
-0.0030238975,-0.0026465466,0.058743447,1.5271631E-4,7.6358154E-4,-5.345071E-4,stop
-0.0028194925,-0.0035895775,0.057939027,-0.0010690142,-0.0047342055,6.872234E-4,stop
-0.0028194925,-0.0035895775,0.057939027,-0.0010690142,-0.0047342055,6.872234E-4,stop
3.8989208E-4,-0.0024089664,0.060861964,-4.5814895E-4,-0.0065668016,7.6358156E-5,stop
3.8989208E-4,-0.0024089664,0.060861964,-4.5814895E-4,-0.0065668016,7.6358156E-5,stop
-0.0010918104,-0.0022182416,0.06090593,1.5271631E-4,-0.0022907446,7.6358156E-5,stop
-0.0010918104,-0.0022182416,0.06090593,1.5271631E-4,-0.0022907446,7.6358156E-5,stop
8.908491E-4,-0.0013251853,0.060543295,-4.5814895E-4,-0.0016798794,-5.345071E-4,stop
8.908491E-4,-0.0013251853,0.060543295,-4.5814895E-4,-0.0016798794,-5.345071E-4,stop
0.0020812484,-9.624467E-4,0.063035205,1.5271631E-4,-0.0010690142,-5.345071E-4,stop
0.0020812484,-9.624467E-4,0.063035205,1.5271631E-4,-0.0010690142,-5.345071E-4,stop
0.0029866847,-0.0028296737,0.0635171,-4.5814895E-4,-0.0010690142,-0.0011453723,stop
0.0029866847,-0.0028296737,0.0635171,-4.5814895E-4,-0.0010690142,-0.0011453723,stop
0.003642763,-0.0046777646,0.066314146,1.5271631E-4,-4.5814895E-4,7.6358156E-5,stop
0.003642763,-0.0046777646,0.066314146,1.5271631E-4,-4.5814895E-4,7.6358156E-5,stop
0.0012980337,-0.0030549783,0.06625225,1.5271631E-4,-4.5814895E-4,6.872234E-4,stop
0.0012980337,-0.0030549783,0.06625225,1.5271631E-4,-4.5814895E-4,6.872234E-4,stop
0.0021115066,-0.0037029814,0.068595186,-4.5814895E-4,-4.5814895E-4,-0.0011453723,stop
0.0021115066,-0.0037029814,0.068595186,-4.5814895E-4,-4.5814895E-4,-0.0011453723,stop
0.0034905374,-0.003089656,0.069750994,-4.5814895E-4,-4.5814895E-4,-0.0011453723,stop
0.0034905374,-0.003089656,0.069750994,1.5271631E-4,-4.5814895E-4,-5.345071E-4,stop
0.0017633836,-0.0018032007,0.06951826,7.6358154E-4,-4.5814895E-4,6.872234E-4,stop
0.0017633836,-0.0018032007,0.06951826,7.6358154E-4,-4.5814895E-4,6.872234E-4,stop
0.0019075606,-3.449934E-4,0.06932448,7.6358154E-4,1.5271631E-4,7.6358156E-5,stop
0.0019075606,-3.449934E-4,0.06932448,7.6358154E-4,1.5271631E-4,7.6358156E-5,stop
0.0019075606,-3.449934E-4,0.06932448,7.6358154E-4,-0.0010690142,7.6358156E-5,stop
0.0044474034,0.0014956046,0.06956195,7.6358154E-4,-0.0010690142,7.6358156E-5,stop
0.0052300617,0.0010031305,0.07095892,-0.0010690142,-0.0047342055,6.872234E-4,stop
0.0052300617,0.0010031305,0.07095892,-0.0010690142,-0.0047342055,6.872234E-4,stop
0.0045411894,2.2894266E-4,0.074519336,-0.0010690142,-0.0016798794,-5.345071E-4,stop
0.0045411894,2.2894266E-4,0.074519336,-0.0010690142,-0.0016798794,-5.345071E-4,stop
0.0045612613,0.0012461848,0.073498875,-4.5814895E-4,-4.5814895E-4,-0.0011453723,stop
0.0045612613,0.0012461848,0.073498875,-4.5814895E-4,-4.5814895E-4,-0.0011453723,stop
0.0065497765,1.0431632E-4,0.07504301,1.5271631E-4,1.5271631E-4,7.6358156E-5,stop
0.0065497765,1.0431632E-4,0.07504301,1.5271631E-4,1.5271631E-4,7.6358156E-5,stop
0.0029288114,-6.82245E-5,0.064360216,-0.0016798794,-0.0041233404,-0.0011453723,stop
0.0029288114,-6.82245E-5,0.064360216,-0.0016798794,-0.0041233404,-0.0011453723,stop
1.3325873E-4,-0.0020887426,0.066633366,-0.0016798794,-0.0041233404,-0.0011453723,stop
1.3325873E-4,-0.0020887426,0.066633366,-0.00290161,-0.010842858,0.0019089539,stop
-9.02985E-4,-0.0032848564,0.07012808,-0.0022907446,-0.0071776668,0.0019089539,stop
-9.02985E-4,-0.0032848564,0.07012808,-0.0022907446,-0.0071776668,0.0019089539,stop
-9.02985E-4,-0.0032848564,0.07012808,7.6358154E-4,0.001985312,-0.0011453723,stop
-0.0018011915,-0.004489668,0.07184365,7.6358154E-4,0.001985312,-0.0011453723,stop
-0.0018011915,-0.004489668,0.07184365,1.5271631E-4,0.001985312,6.872234E-4,stop
-0.0011681382,-0.0013859412,0.07047726,1.5271631E-4,0.001985312,6.872234E-4,stop
-0.0010021308,-0.001597453,0.070535,1.5271631E-4,-4.5814895E-4,-0.0011453723,stop
-0.0010021308,-0.001597453,0.070535,1.5271631E-4,-4.5814895E-4,-0.0011453723,stop
3.068316E-4,-9.722429E-4,0.07138165,-0.0010690142,-0.0035124752,6.872234E-4,stop
3.068316E-4,-9.722429E-4,0.07138165,-0.0010690142,-0.0035124752,6.872234E-4,stop
-0.0019018933,-0.0029186695,0.072088785,-0.0010690142,-0.0016798794,-5.345071E-4,stop
-0.0019018933,-0.0029186695,0.072088785,-0.0010690142,-0.0016798794,-5.345071E-4,stop
1.9487861E-4,6.6999596E-4,0.07188064,-0.0010690142,-0.0016798794,-5.345071E-4,stop
1.9487861E-4,6.6999596E-4,0.07188064,-0.0010690142,-0.0047342055,0.0012980887,stop
1.9487861E-4,6.6999596E-4,0.07188064,-0.0016798794,-0.007788532,6.872234E-4,stop
9.498085E-4,-0.0010701214,0.07490247,-0.0016798794,-0.007788532,6.872234E-4,stop
0.0010374582,-8.84685E-4,0.073432386,-0.0010690142,-0.0010690142,7.6358156E-5,stop
0.0010374582,-8.84685E-4,0.073432386,-0.0010690142,-0.0010690142,7.6358156E-5,stop
0.0019719207,-0.0039398414,0.07779283,0.0013744468,0.0056505036,-0.0011453723,stop
0.0019719207,-0.0039398414,0.07779283,0.0013744468,0.0056505036,-0.0011453723,stop
0.0034815664,-0.0017159556,0.07703233,0.004428773,0.011759156,-0.0011453723,stop
0.0034815664,-0.0017159556,0.07703233,0.004428773,0.011759156,-0.0011453723,stop
0.004957586,-0.003980774,0.07240506,0.0025961774,0.0056505036,-0.0011453723,stop
0.004957586,-0.003980774,0.07240506,0.0025961774,0.0056505036,-0.0011453723,stop
0.008968636,-0.008275115,0.06974618,1.5271631E-4,-0.0016798794,-5.345071E-4,stop
0.008968636,-0.008275115,0.06974618,1.5271631E-4,-0.0016798794,-5.345071E-4,stop
0.13116246,-0.19390644,0.06634027,7.6358154E-4,0.004428773,-0.0066431593,stop
0.13116246,-0.19390644,0.06634027,7.6358154E-4,0.004428773,-0.0066431593,stop
0.49216294,-0.7593939,0.04057297,-0.0035124752,-0.011453724,-0.28153253,stop
0.49216294,-0.7593939,0.04057297,-0.0035124752,-0.011453724,-0.28153253,stop
0.55145645,-0.9642801,0.05981417,0.004428773,0.0056505036,-0.8282569,stop
0.55145645,-0.9642801,0.05981417,0.004428773,0.0056505036,-0.8282569,stop
0.32069388,-1.0821557,0.043534838,-0.0010690142,-0.013286319,-0.7219664,stop
0.32069388,-1.0821557,0.043534838,-0.0010690142,-0.013286319,-0.7219664,stop
0.121938564,-1.422324,0.07388352,-0.00290161,-0.024281893,-0.026801713,stop
0.121938564,-1.422324,0.07388352,-0.00290161,-0.024281893,-0.026801713,stop
0.20856728,-1.586057,0.083226435,-0.0096211275,0.0025961774,0.3458261,stop
0.20856728,-1.586057,0.083226435,-0.0096211275,0.0025961774,0.3458261,stop
0.11086939,-1.4378544,0.09221509,0.0025961774,0.0154243475,0.09720393,stop
0.11086939,-1.4378544,0.09221509,0.0025961774,0.0154243475,0.09720393,stop
-0.075127274,-1.5046,0.082144365,-0.03894266,-0.02611449,-0.037797287,stop
-0.075127274,-1.5046,0.082144365,-0.03894266,-0.02611449,-0.037797287,stop
-0.075127274,-1.5046,0.082144365,0.010537425,-0.010231993,-0.002977968,stop
0.08887365,-1.526238,0.07695755,0.010537425,-0.010231993,-0.002977968,stop
0.046424095,-1.3014205,0.10017859,0.010537425,-0.024281893,-0.20150918,stop
0.046424095,-1.3014205,0.10017859,0.010537425,-0.024281893,-0.20150918,stop
-0.22683638,-1.2932202,-0.050466165,0.019700404,-0.0041233404,0.030008756,stop
-0.22683638,-1.2932202,-0.050466165,0.019700404,-0.0041233404,0.030008756,stop
-0.3279631,-1.2413971,-0.081830665,0.007483099,0.023365596,0.5217553,stop
-0.3279631,-1.2413971,-0.081830665,0.007483099,0.023365596,0.5217553,stop
-0.26863974,-1.0693333,0.1781444,0.0062613687,0.025198191,0.6005569,stop
-0.26863974,-1.0693333,0.1781444,0.0062613687,0.025198191,0.6005569,stop
-0.29791307,-1.1859328,0.061575364,-0.0053450707,0.06246097,0.39713877,stop
-0.29791307,-1.1859328,0.061575364,-0.0053450707,0.06246097,0.39713877,stop
-0.14986967,-1.1792989,0.08811764,-0.009010263,0.03436117,0.38492146,stop
-0.14986967,-1.1792989,0.08811764,-0.009010263,0.03436117,0.38492146,stop
0.15368493,-1.0446057,0.91034764,-0.025503624,-0.20754147,0.3195589,stop
0.15368493,-1.0446057,0.91034764,-0.025503624,-0.20754147,0.3195589,stop
0.10346337,-0.90634996,0.82819724,-0.010231993,-0.032223143,0.10086913,stop
0.10346337,-0.90634996,0.82819724,-0.010231993,-0.032223143,0.10086913,stop
-0.12107084,-0.70838094,0.66276497,0.0032070426,0.021533,0.18761198,stop
-0.12107084,-0.70838094,0.66276497,0.0032070426,0.021533,0.18761198,stop
-0.12107084,-0.70838094,0.66276497,-0.01450805,-0.024892759,0.39713877,stop
-0.16522652,-0.57806987,0.48660046,-0.01450805,-0.024892759,0.39713877,stop
-0.1107911,-0.6034699,1.0436842,0.10705414,0.03863723,0.37148243,stop
-0.1107911,-0.6034699,1.0436842,0.10705414,0.03863723,0.37148243,stop
-0.06788538,-0.51223356,1.5601238,-0.064599,-0.10247265,0.4722752,stop
-0.06788538,-0.51223356,1.5601238,-0.064599,-0.10247265,0.4722752,stop
-0.023697898,-0.31242993,1.2084346,0.045356743,-0.016340645,0.40691262,stop
-0.023697898,-0.31242993,1.2084346,0.045356743,-0.016340645,0.40691262,stop
0.014438811,-0.24521956,1.1775302,-0.0047342055,0.008093964,0.31711543,stop
0.014438811,-0.24521956,1.1775302,-0.0047342055,0.008093964,0.31711543,stop
-0.010413694,-0.06817391,1.0476215,0.006872234,-0.039553523,0.21082486,stop
-0.010413694,-0.06817391,1.0476215,0.006872234,-0.039553523,0.21082486,stop
-0.13540916,0.0015996934,0.9509347,-0.007788532,-0.0016798794,0.26091582,stop
-0.13540916,0.0015996934,0.9509347,-0.007788532,-0.0016798794,0.26091582,stop
-0.10731753,-0.02461339,0.9290197,0.0050396384,0.006872234,0.44845146,stop
-0.10731753,-0.02461339,0.9290197,0.0050396384,0.006872234,0.44845146,stop
-0.038779493,0.010087966,0.7615084,0.0038179078,0.02275473,0.4649448,stop
-0.038779493,0.010087966,0.7615084,0.0038179078,0.02275473,0.4649448,stop
-0.01784922,0.33587098,0.622304,0.008093964,0.05207626,0.37820193,stop
-0.01784922,0.33587098,0.622304,0.008093964,0.05207626,0.37820193,stop
0.02530166,0.18384515,0.6471466,0.008093964,0.05207626,0.37820193,stop
0.02530166,0.18384515,0.6471466,0.008093964,-0.025503624,0.3458261,stop
-0.055860747,0.2319893,0.46394235,-0.0071776668,0.038026363,0.34093916,stop
-0.055860747,0.2319893,0.46394235,-0.0071776668,0.038026363,0.34093916,stop
0.05198911,0.26073915,0.52953994,-0.01450805,0.006872234,0.29023734,stop
0.05198911,0.26073915,0.52953994,-0.01450805,0.006872234,0.29023734,stop
0.12134358,0.4146764,0.32364246,0.012980887,-0.020005837,0.10942124,stop
0.12134358,0.4146764,0.32364246,0.012980887,-0.020005837,0.10942124,stop
0.0526391,0.39531454,0.36075902,0.008093964,0.0154243475,0.20410535,stop
0.0526391,0.39531454,0.36075902,0.008093964,0.0154243475,0.20410535,stop
0.13066173,0.3537708,0.49423,-0.021227567,0.013591751,0.4282929,stop
0.13066173,0.3537708,0.49423,-0.021227567,0.013591751,0.4282929,stop
0.1449938,0.3713724,0.41270393,0.0025961774,-0.01450805,0.2523637,stop
0.1449938,0.3713724,0.41270393,0.0025961774,-0.01450805,0.2523637,stop
-0.028315222,0.54326546,0.4373463,0.0025961774,-0.01450805,0.2523637,stop
-0.028315222,0.54326546,0.4373463,0.0062613687,-0.0041233404,0.17600554,stop
0.009985534,0.5269731,0.5009667,0.0056505036,0.022143865,0.31161764,stop
0.009985534,0.5269731,0.5009667,0.0056505036,0.022143865,0.31161764,stop
0.055635486,0.6133374,0.4354578,0.00870483,-0.0016798794,0.18761198,stop
0.055635486,0.6133374,0.4354578,0.00870483,-0.0016798794,0.18761198,stop
0.03127237,0.3897363,0.34176144,0.0032070426,0.019089539,0.11614075,stop
0.03127237,0.3897363,0.34176144,0.0032070426,0.019089539,0.11614075,stop
0.05059718,0.19425155,0.217783,-0.010231993,-4.5814895E-4,0.05261077,stop
0.05059718,0.19425155,0.217783,-0.010231993,-4.5814895E-4,0.05261077,stop
0.13408846,0.118491486,0.23259164,-0.0035124752,0.020922136,0.055665094,stop
0.13408846,0.118491486,0.23259164,-0.0035124752,0.020922136,0.055665094,stop
0.10256642,0.009794366,0.28285393,-0.079870634,0.061239243,0.13935363,stop
0.10256642,0.009794366,0.28285393,-0.079870634,0.061239243,0.13935363,stop
0.14006384,0.03805849,0.24811494,0.022143865,-0.0053450707,0.21326832,stop
0.14006384,0.03805849,0.24811494,0.022143865,-0.0053450707,0.21326832,stop
0.07181336,0.26346546,0.083092354,0.020922136,0.03313944,0.05933029,stop
0.07181336,0.26346546,0.083092354,0.020922136,0.03313944,0.05933029,stop
-0.014909826,0.4513312,0.1123567,0.007483099,-0.025503624,0.10086913,stop
-0.014909826,0.4513312,0.1123567,0.007483099,-0.025503624,0.10086913,stop
-0.0022088422,0.774194,0.0908565,7.6358154E-4,-0.012675454,0.1839468,stop
-0.0022088422,0.774194,0.0908565,7.6358154E-4,-0.012675454,0.1839468,stop
0.036626793,1.106046,0.07373647,0.001985312,-0.012064588,0.17417295,stop
0.036626793,1.106046,0.07373647,0.001985312,-0.012064588,0.17417295,stop
0.01746974,1.3394669,0.0981721,0.0038179078,0.00870483,0.038560867,stop
0.01746974,1.3394669,0.0981721,0.0038179078,0.00870483,0.038560867,stop
0.05053381,1.5894039,0.107750185,-0.0010690142,-0.033444874,-0.035353824,stop
0.05053381,1.5894039,0.107750185,-0.0010690142,-0.033444874,-0.035353824,stop
-0.004396219,1.7458733,0.10376553,-0.0016798794,-0.0016798794,0.021456642,stop
-0.004396219,1.7458733,0.10376553,-0.0016798794,-0.0016798794,0.021456642,stop
0.01730475,1.8368413,0.096845664,0.001985312,0.004428773,0.055665094,stop
0.01730475,1.8368413,0.096845664,0.001985312,0.004428773,0.055665094,stop
0.07231085,1.8528341,0.092664115,0.0013744468,0.008093964,-0.024969118,stop
0.07231085,1.8528341,0.092664115,0.0013744468,0.008093964,-0.024969118,stop
0.10957266,1.7412956,0.07879397,7.6358154E-4,0.008093964,-0.046960264,stop
0.10957266,1.7412956,0.07879397,7.6358154E-4,0.008093964,-0.046960264,stop
0.08804593,1.4645667,0.07680533,-0.0022907446,-0.0065668016,-5.345071E-4,stop
0.08804593,1.4645667,0.07680533,-0.0022907446,-0.0065668016,-5.345071E-4,stop
0.06540387,1.2352059,0.07554978,-0.0035124752,-0.011453724,-0.0023671028,stop
0.06540387,1.2352059,0.07554978,-0.0035124752,-0.011453724,-0.0023671028,stop
0.048509672,1.0458757,0.076504774,-0.0035124752,-0.012675454,-0.0017562376,stop
0.048509672,1.0458757,0.076504774,-0.0035124752,-0.012675454,-0.0017562376,stop
0.03403185,0.88518035,0.076109946,-0.0022907446,-0.0053450707,-0.0017562376,stop
0.03403185,0.88518035,0.076109946,-0.0022907446,-0.0053450707,-0.0017562376,stop
0.020637155,0.74051994,0.074541144,-0.0010690142,-4.5814895E-4,-5.345071E-4,stop
0.020637155,0.74051994,0.074541144,-0.0010690142,-4.5814895E-4,-5.345071E-4,stop
0.011381321,0.608204,0.07522333,7.6358154E-4,0.0025961774,-5.345071E-4,stop
0.011381321,0.608204,0.07522333,7.6358154E-4,0.0025961774,-5.345071E-4,stop
0.003515965,0.49627036,0.074212216,7.6358154E-4,0.0025961774,-5.345071E-4,stop
0.003515965,0.49627036,0.074212216,7.6358154E-4,0.0050396384,-5.345071E-4,stop
-0.0018618774,0.40075108,0.075370744,7.6358154E-4,0.0038179078,-0.0011453723,stop
-0.008436684,0.31877524,0.07313836,7.6358154E-4,0.0038179078,-0.0011453723,stop
-0.008436684,0.31877524,0.07313836,-4.5814895E-4,1.5271631E-4,-5.345071E-4,stop
-0.011255531,0.25248757,0.070465036,-4.5814895E-4,-0.0016798794,-5.345071E-4,stop
-0.01382424,0.19716653,0.07340601,-4.5814895E-4,-0.00290161,-5.345071E-4,stop
-0.01382424,0.19716653,0.07340601,-4.5814895E-4,-0.00290161,-5.345071E-4,stop
-0.014653728,0.15288316,0.07424194,1.5271631E-4,-4.5814895E-4,7.6358156E-5,stop
-0.016838014,0.11383724,0.074521795,7.6358154E-4,0.0013744468,-0.0011453723,stop
-0.016838014,0.11383724,0.074521795,7.6358154E-4,0.0013744468,-0.0011453723,stop
-0.015708879,0.0840136,0.07393977,-4.5814895E-4,-4.5814895E-4,-5.345071E-4,stop
-0.013589403,0.06058305,0.0734422,-0.0010690142,-0.00290161,7.6358156E-5,stop
-0.013589403,0.06058305,0.0734422,-0.0010690142,-0.00290161,7.6358156E-5,stop
-0.010012132,0.04232014,0.07262033,-4.5814895E-4,-0.00290161,-0.0011453723,stop
-0.0088963015,0.02900242,0.07073286,7.6358154E-4,-0.0010690142,-0.0011453723,stop
-0.008567103,0.021629434,0.07274594,7.6358154E-4,-0.0010690142,-0.0011453723,stop
-0.008567103,0.021629434,0.07274594,1.5271631E-4,7.6358154E-4,-0.0011453723,stop
-0.006130208,0.016176095,0.07242429,1.5271631E-4,7.6358154E-4,-0.0011453723,stop
-0.006130208,0.016176095,0.07242429,1.5271631E-4,7.6358154E-4,-0.0011453723,stop
-0.0055462257,0.012620486,0.071355164,1.5271631E-4,7.6358154E-4,-0.0011453723,stop
-0.0055462257,0.012620486,0.071355164,-4.5814895E-4,7.6358154E-4,-0.0011453723,stop
-0.0055462257,0.012620486,0.071355164,-4.5814895E-4,7.6358154E-4,-0.0011453723,stop
-0.0037552207,0.008552504,0.07165902,-4.5814895E-4,1.5271631E-4,-0.0011453723,stop
-0.0037552207,0.008552504,0.07165902,-4.5814895E-4,1.5271631E-4,-0.0011453723,stop
-0.0022450164,0.005540535,0.071911596,-4.5814895E-4,1.5271631E-4,-0.0011453723,stop
-0.0022450164,0.005540535,0.071911596,-4.5814895E-4,-0.0022907446,-0.0011453723,stop
-0.0022450164,0.005540535,0.071911596,-4.5814895E-4,-0.0022907446,-0.0011453723,stop
-0.0018453634,0.0025467284,0.07292078,-0.0022907446,-0.0041233404,7.6358156E-5,stop
-0.0018453634,0.0025467284,0.07292078,-0.0022907446,-0.0041233404,7.6358156E-5,stop
-0.0019189721,-8.132209E-4,0.07176652,-0.0022907446,-0.0041233404,7.6358156E-5,stop
-0.0019189721,-8.132209E-4,0.07176652,-0.0010690142,-0.0022907446,-0.0011453723,stop
-0.0019189721,-8.132209E-4,0.07176652,-0.0010690142,-0.0022907446,-0.0011453723,stop
-3.6234953E-4,-0.0029451796,0.07000593,1.5271631E-4,-4.5814895E-4,7.6358156E-5,stop
-3.6234953E-4,-0.0029451796,0.07000593,1.5271631E-4,-4.5814895E-4,7.6358156E-5,stop
-3.6234953E-4,-0.0029451796,0.07000593,1.5271631E-4,-4.5814895E-4,7.6358156E-5,stop
5.226847E-4,-0.0029604298,0.06654385,-4.5814895E-4,1.5271631E-4,-5.345071E-4,stop
5.226847E-4,-0.0029604298,0.06654385,-4.5814895E-4,1.5271631E-4,-5.345071E-4,stop
-7.757572E-4,-0.00438835,0.06645257,1.5271631E-4,-0.0010690142,7.6358156E-5,stop
-7.757572E-4,-0.00438835,0.06645257,1.5271631E-4,-0.0010690142,7.6358156E-5,stop
-7.757572E-4,-0.00438835,0.06645257,1.5271631E-4,-0.0010690142,7.6358156E-5,stop
-0.003913005,-0.0022226172,0.06757448,-0.0010690142,-0.0022907446,-0.0011453723,stop
-0.003913005,-0.0022226172,0.06757448,-0.0010690142,-0.0022907446,-0.0011453723,stop
-0.006498989,-1.9896038E-4,0.06850908,-4.5814895E-4,-0.0022907446,-0.0011453723,stop
-0.006498989,-1.9896038E-4,0.06850908,-4.5814895E-4,-0.0022907446,-0.0011453723,stop
-0.006498989,-1.9896038E-4,0.06850908,-4.5814895E-4,-0.0022907446,-0.0011453723,stop
-0.006957205,-0.0010371797,0.07008439,1.5271631E-4,1.5271631E-4,-5.345071E-4,stop
-0.006957205,-0.0010371797,0.07008439,1.5271631E-4,1.5271631E-4,-5.345071E-4,stop
-0.0067630354,-0.0023570727,0.071394615,1.5271631E-4,0.0032070426,-0.0011453723,stop
-0.0067630354,-0.0023570727,0.071394615,1.5271631E-4,0.0032070426,-0.0011453723,stop
-0.005939342,-5.15656E-4,0.07328088,1.5271631E-4,0.001985312,-5.345071E-4,stop
-0.005939342,-5.15656E-4,0.07328088,1.5271631E-4,0.001985312,-5.345071E-4,stop
-0.0043235635,0.0022657767,0.075249806,1.5271631E-4,7.6358154E-4,-0.0017562376,stop
-0.0043235635,0.0022657767,0.075249806,1.5271631E-4,7.6358154E-4,-0.0017562376,stop
-0.0061219013,5.973448E-4,0.07649099,1.5271631E-4,1.5271631E-4,-0.0011453723,stop
-0.0061219013,5.973448E-4,0.07649099,1.5271631E-4,1.5271631E-4,-0.0011453723,stop
-0.003936704,2.4296043E-5,0.07792299,-4.5814895E-4,7.6358154E-4,-5.345071E-4,stop
-0.003936704,2.4296043E-5,0.07792299,-4.5814895E-4,7.6358154E-4,-5.345071E-4,stop
-0.004892552,-8.3809247E-4,0.07791899,7.6358154E-4,-4.5814895E-4,-0.0011453723,stop
-0.004892552,-8.3809247E-4,0.07791899,7.6358154E-4,-4.5814895E-4,-0.0011453723,stop
2.9379135E-4,-3.649304E-4,0.07791582,1.5271631E-4,1.5271631E-4,-5.345071E-4,stop
2.9379135E-4,-3.649304E-4,0.07791582,1.5271631E-4,1.5271631E-4,-5.345071E-4,stop
6.121919E-4,-0.0030914273,0.07472106,-0.0010690142,7.6358154E-4,-0.0017562376,stop
6.121919E-4,-0.0030914273,0.07472106,-0.0010690142,7.6358154E-4,-0.0017562376,stop
0.0012210645,-0.0041418485,0.07565078,-4.5814895E-4,-0.0041233404,-0.0011453723,stop
0.0012210645,-0.0041418485,0.07565078,-4.5814895E-4,-0.0041233404,-0.0011453723,stop
0.0043502753,-0.0013413369,0.07762511,-4.5814895E-4,-0.0041233404,-0.0017562376,stop
0.0043502753,-0.0013413369,0.07762511,-4.5814895E-4,-0.0041233404,-0.0017562376,stop
0.0063887914,-0.0022313497,0.081667125,0.001985312,0.0025961774,7.6358156E-5,stop
0.0063887914,-0.0022313497,0.081667125,0.001985312,0.0025961774,7.6358156E-5,stop
0.0048004803,-1.6555014E-4,0.07545995,0.0013744468,0.0025961774,7.6358156E-5,stop
0.0048004803,-1.6555014E-4,0.07545995,0.0013744468,0.0025961774,7.6358156E-5,stop
0.0040442445,-0.003289091,0.08305986,-0.0016798794,-0.0071776668,6.872234E-4,stop
0.0040442445,-0.003289091,0.08305986,-0.0016798794,-0.0071776668,6.872234E-4,stop
0.0032076396,-0.001524538,0.075030945,1.5271631E-4,-4.5814895E-4,6.872234E-4,stop
0.0032076396,-0.001524538,0.075030945,1.5271631E-4,-4.5814895E-4,6.872234E-4,stop
0.003266931,-0.001255126,0.07352801,1.5271631E-4,-0.0016798794,6.872234E-4,stop
0.003266931,-0.001255126,0.07352801,1.5271631E-4,-0.0016798794,6.872234E-4,stop
0.0020738945,9.6893415E-4,0.072675474,-4.5814895E-4,-0.0010690142,0.0012980887,stop
0.0020738945,9.6893415E-4,0.072675474,-4.5814895E-4,-0.0010690142,0.0012980887,stop
0.0020738945,9.6893415E-4,0.072675474,1.5271631E-4,-4.5814895E-4,7.6358156E-5,stop
0.0014451282,-0.0011542169,0.07236445,1.5271631E-4,-4.5814895E-4,7.6358156E-5,stop
0.0017754101,-0.0016790384,0.07330166,1.5271631E-4,-0.0010690142,-5.345071E-4,stop
0.0017754101,-0.0016790384,0.07330166,1.5271631E-4,-0.0010690142,-5.345071E-4,stop
0.0044107903,-0.002123293,0.07368402,1.5271631E-4,-4.5814895E-4,-5.345071E-4,stop
0.0044107903,-0.002123293,0.07368402,1.5271631E-4,-4.5814895E-4,-5.345071E-4,stop
0.0041122055,3.150825E-4,0.074403204,-4.5814895E-4,-4.5814895E-4,7.6358156E-5,stop
0.0041122055,3.150825E-4,0.074403204,-4.5814895E-4,-4.5814895E-4,7.6358156E-5,stop
0.005057035,-4.314943E-4,0.07460357,-4.5814895E-4,-4.5814895E-4,-5.345071E-4,stop
0.005057035,-4.314943E-4,0.07460357,-4.5814895E-4,-4.5814895E-4,-5.345071E-4,stop
0.0049548405,-0.00221643,0.072377615,1.5271631E-4,-0.0010690142,-5.345071E-4,stop
0.0049548405,-0.00221643,0.072377615,1.5271631E-4,-0.0010690142,-5.345071E-4,stop
0.003291062,-0.0020932702,0.07411387,1.5271631E-4,0.0013744468,-5.345071E-4,stop
0.003291062,-0.0020932702,0.07411387,1.5271631E-4,0.0013744468,-5.345071E-4,stop
0.001550126,-0.0011871791,0.07476205,-4.5814895E-4,7.6358154E-4,-0.0011453723,stop
0.001550126,-0.0011871791,0.07476205,-4.5814895E-4,7.6358154E-4,-0.0011453723,stop
1.6718853E-4,-0.0012263255,0.0741039,0.0013744468,0.0025961774,-0.0017562376,stop
1.6718853E-4,-0.0012263255,0.0741039,0.0013744468,0.0025961774,-0.0017562376,stop
6.559531E-5,-0.0037080548,0.07355179,1.5271631E-4,7.6358154E-4,-5.345071E-4,stop
6.559531E-5,-0.0037080548,0.07355179,1.5271631E-4,7.6358154E-4,-5.345071E-4,stop
4.400316E-4,-9.2833326E-4,0.078677215,0.0013744468,0.0056505036,-5.345071E-4,stop
4.400316E-4,-9.2833326E-4,0.078677215,0.0013744468,0.0056505036,-5.345071E-4,stop
9.398538E-4,-6.44335E-4,0.07656116,-4.5814895E-4,-0.0016798794,-0.0011453723,stop
9.398538E-4,-6.44335E-4,0.07656116,-4.5814895E-4,-0.0016798794,-0.0011453723,stop
0.0024887784,0.0032096724,0.07918818,-4.5814895E-4,-0.0035124752,-0.0066431593,stop
0.0024887784,0.0032096724,0.07918818,-4.5814895E-4,-0.0035124752,-0.0066431593,stop
-9.0131786E-4,0.003897737,0.07499125,-4.5814895E-4,7.6358154E-4,-0.012140946,stop
-9.0131786E-4,0.003897737,0.07499125,-4.5814895E-4,7.6358154E-4,-0.012140946,stop
-0.003599587,0.01273387,0.067900516,-0.0010690142,-0.00290161,-0.025579982,stop
-0.003599587,0.01273387,0.067900516,-0.0010690142,-0.00290161,-0.025579982,stop
-0.003599587,0.01273387,0.067900516,-0.0035124752,-0.007788532,-0.13492486,stop
-0.025424452,0.026901618,0.071568534,-0.0035124752,-0.007788532,-0.13492486,stop
-0.051373802,-0.0014645775,0.07103097,1.5271631E-4,-0.0010690142,-0.097662084,stop
-0.051373802,-0.0014645775,0.07103097,1.5271631E-4,-0.0010690142,-0.097662084,stop
-0.010782118,0.007192112,0.070184365,-0.0010690142,-0.0047342055,0.01656972,stop
-0.010782118,0.007192112,0.070184365,-0.0010690142,-0.0047342055,0.01656972,stop
-0.012654077,0.046787426,0.038755927,0.0013744468,0.007483099,-0.02313652,stop
-0.012654077,0.046787426,0.038755927,0.0013744468,0.007483099,-0.02313652,stop
-0.014054008,0.07970931,0.012563337,0.0056505036,0.03436117,-0.05795584,stop
-0.014054008,0.07970931,0.012563337,0.0056505036,0.03436117,-0.05795584,stop
0.04923335,0.5706604,0.03421673,0.0056505036,0.03436117,-0.05795584,stop
0.04923335,0.5706604,0.03421673,-0.0096211275,0.03436117,-0.05795584,stop
0.1574905,0.9661299,0.00795193,-0.018784106,0.024587326,0.022067508,stop
0.1574905,0.9661299,0.00795193,-0.018784106,0.024587326,0.022067508,stop
0.095999055,1.2884778,0.0275596,-0.10125092,-0.009010263,0.0031306844,stop
0.095999055,1.2884778,0.0275596,-0.10125092,-0.009010263,0.0031306844,stop
0.11922766,1.6537609,0.070637494,-0.012064588,0.017256944,-0.0139735425,stop
0.11922766,1.6537609,0.070637494,-0.012064588,0.017256944,-0.0139735425,stop
0.11922766,1.6537609,0.070637494,0.016035212,0.006872234,-0.21128301,stop
0.13907424,1.9571061,0.106528744,0.016035212,0.006872234,-0.21128301,stop
0.20343418,2.2995317,0.089751944,0.038026363,0.001985312,-0.3395647,stop
0.20343418,2.2995317,0.089751944,0.038026363,0.001985312,-0.3395647,stop
0.23416172,2.572377,0.09811968,0.027030786,0.0025961774,-0.49350277,stop
0.23416172,2.572377,0.09811968,0.027030786,0.0025961774,-0.49350277,stop
0.12818794,2.809577,-0.022592269,0.027030786,0.0025961774,-0.49350277,stop
0.12818794,2.809577,-0.022592269,-0.021227567,-0.012675454,-0.47395507,stop
0.06483796,2.6709685,0.034442812,7.6358154E-4,-0.05787948,-0.38721222,stop
0.06483796,2.6709685,0.034442812,7.6358154E-4,-0.05787948,-0.38721222,stop
0.20837323,2.77006,0.11232798,-0.0041233404,-0.031612277,-0.2577088,stop
0.20837323,2.77006,0.11232798,-0.0041233404,-0.031612277,-0.2577088,stop
0.20837323,2.77006,0.11232798,-0.01450805,-0.08659015,-0.53809595,stop
0.27495232,2.611592,0.36559138,-0.01450805,-0.08659015,-0.53809595,stop
0.2729758,2.4810221,0.48488948,-0.01450805,-0.08659015,-0.53809595,stop
0.2729758,2.4810221,0.48488948,-0.017562376,0.001985312,-0.5613088,stop
0.3156888,2.0893402,0.29579294,-0.008399397,-0.020005837,-0.40920335,stop
0.3156888,2.0893402,0.29579294,-0.008399397,-0.020005837,-0.40920335,stop
0.21894707,1.9229,0.04724549,0.01786781,-0.039553523,-0.3804927,stop
0.21894707,1.9229,0.04724549,0.01786781,-0.039553523,-0.3804927,stop
0.13723303,1.7833023,-0.15985434,0.001985312,-0.04444045,-0.17157678,stop
0.13723303,1.7833023,-0.15985434,0.001985312,-0.04444045,-0.17157678,stop
0.20306261,1.7430212,-0.34958318,0.022143865,-0.024281893,-0.028634308,stop
0.20306261,1.7430212,-0.34958318,0.022143865,-0.024281893,-0.028634308,stop
0.25059706,1.6266402,-0.2319383,0.006872234,0.041080687,-0.17768542,stop
0.25059706,1.6266402,-0.2319383,0.006872234,0.041080687,-0.17768542,stop
0.17228155,1.2921367,-0.20853467,-0.00290161,-0.007788532,-0.29863673,stop
0.17228155,1.2921367,-0.20853467,-0.00290161,-0.007788532,-0.29863673,stop
0.17135209,0.9664078,-0.06970966,-0.032223143,0.012370021,-0.3310126,stop
0.17135209,0.9664078,-0.06970966,-0.032223143,0.012370021,-0.3310126,stop
0.15648748,0.8036514,-0.38457868,-0.00290161,0.014202617,-0.43730316,stop
0.15648748,0.8036514,-0.38457868,-0.00290161,0.014202617,-0.43730316,stop
0.15648748,0.8036514,-0.38457868,-4.5814895E-4,0.037415497,-0.6089563,stop
0.006984142,0.8641312,-1.2982498,-4.5814895E-4,0.037415497,-0.6089563,stop
-0.21062197,0.32067025,-1.217993,-0.09208794,0.010537425,-0.4556291,stop
-0.21062197,0.32067025,-1.217993,-0.09208794,0.010537425,-0.4556291,stop
-0.27822068,0.17641841,-1.4519985,0.019700404,0.03313944,-0.078725256,stop
-0.27822068,0.17641841,-1.4519985,0.019700404,0.03313944,-0.078725256,stop
-0.10368429,0.016387945,-2.1813455,-0.027947085,0.038026363,0.07704538,stop
-0.10368429,0.016387945,-2.1813455,-0.027947085,0.038026363,0.07704538,stop
0.1170531,-0.41230798,-1.9132599,0.012370021,-0.033444874,-0.3823253,stop
0.1170531,-0.41230798,-1.9132599,0.012370021,-0.033444874,-0.3823253,stop
-0.0014626205,-0.95550066,-1.4109048,0.004428773,-0.009010263,-0.6034585,stop
-0.0014626205,-0.95550066,-1.4109048,0.004428773,-0.009010263,-0.6034585,stop
-0.15565027,-1.3495544,-1.0349884,-0.02733622,-0.035888333,-0.27725646,stop
-0.15565027,-1.3495544,-1.0349884,-0.02733622,-0.035888333,-0.27725646,stop
-0.13501973,-1.6236057,-0.93201476,0.0038179078,-0.049938235,0.0397826,stop
-0.13501973,-1.6236057,-0.93201476,0.0038179078,-0.049938235,0.0397826,stop
-0.1863226,-2.0132608,-0.788731,0.021533,0.07223482,0.1521818,stop
-0.1863226,-2.0132608,-0.788731,0.021533,0.07223482,0.1521818,stop
-0.0887452,-2.5038536,-0.64980286,-0.010231993,-0.0041233404,0.23464862,stop
-0.0887452,-2.5038536,-0.64980286,-0.010231993,-0.0041233404,0.23464862,stop
0.14939071,-2.9075823,-0.53243977,7.6358154E-4,0.02031127,0.11308643,stop
0.14939071,-2.9075823,-0.53243977,7.6358154E-4,0.02031127,0.11308643,stop
0.29413906,-3.0357208,-0.43105328,-4.5814895E-4,0.021533,-0.077503525,stop
0.29413906,-3.0357208,-0.43105328,-4.5814895E-4,0.021533,-0.077503525,stop
0.2647106,-2.9744883,-0.34457916,-0.0053450707,0.009315695,-0.28458685,stop
0.2647106,-2.9744883,-0.34457916,-0.0053450707,0.009315695,-0.28458685,stop
0.10190232,-2.9711058,-0.2717244,0.0025961774,0.008093964,-0.17768542,stop
0.10190232,-2.9711058,-0.2717244,0.0025961774,0.008093964,-0.17768542,stop
0.074243195,-2.868813,-0.21580656,-0.0010690142,0.008093964,-5.345071E-4,stop
0.074243195,-2.868813,-0.21580656,-0.0010690142,0.008093964,-5.345071E-4,stop
0.10163819,-2.6568909,-0.16322644,-0.0010690142,0.008093964,-5.345071E-4,stop
0.10163819,-2.6568909,-0.16322644,7.6358154E-4,0.0050396384,-0.07811439,stop
0.08351045,-1.9009303,-0.25388664,-0.024281893,-0.020616703,-0.037797287,stop
0.08351045,-1.9009303,-0.25388664,-0.024281893,-0.020616703,-0.037797287,stop
0.069283605,-1.5929283,-0.18737572,1.5271631E-4,0.0050396384,-5.345071E-4,stop
0.069283605,-1.5929283,-0.18737572,1.5271631E-4,0.0050396384,-5.345071E-4,stop
0.05596467,-1.3302906,-0.15469702,0.0050396384,0.00870483,6.872234E-4,stop
0.05596467,-1.3302906,-0.15469702,0.0050396384,0.00870483,6.872234E-4,stop
0.051878627,-1.1028959,-0.12347792,0.0025961774,0.006872234,7.6358156E-5,stop
0.051878627,-1.1028959,-0.12347792,0.0025961774,0.006872234,7.6358156E-5,stop
0.051878627,-1.1028959,-0.12347792,0.0025961774,0.006872234,7.6358156E-5,stop
0.0423251,-0.9152795,-0.08190329,0.001985312,0.00870483,-0.0017562376,stop
0.036613483,-0.76245165,-0.051252063,0.0050396384,0.00870483,-5.345071E-4,stop
0.036613483,-0.76245165,-0.051252063,0.0050396384,0.00870483,-5.345071E-4,stop
0.029661762,-0.63391316,-0.028505709,-4.5814895E-4,1.5271631E-4,-0.0011453723,stop
0.029661762,-0.63391316,-0.028505709,-4.5814895E-4,1.5271631E-4,-0.0011453723,stop
0.023831148,-0.5295374,-0.008751712,0.0025961774,-0.0035124752,-5.345071E-4,stop
0.023831148,-0.5295374,-0.008751712,0.0025961774,-0.0035124752,-5.345071E-4,stop
0.021773024,-0.43350476,0.0013411561,-0.0016798794,-0.009010263,7.6358156E-5,stop
0.021773024,-0.43350476,0.0013411561,-0.0016798794,-0.009010263,7.6358156E-5,stop
0.021773024,-0.43350476,0.0013411561,-0.0022907446,-0.012675454,-5.345071E-4,stop
0.020746978,-0.35071298,0.008971933,-0.0022907446,-0.012675454,-5.345071E-4,stop
0.017375054,-0.28172237,0.018535577,-0.0022907446,-0.007788532,-0.0011453723,stop
0.017375054,-0.28172237,0.018535577,-0.0022907446,-0.007788532,-0.0011453723,stop
0.015150846,-0.22708638,0.032094765,-4.5814895E-4,0.001985312,-5.345071E-4,stop
0.015150846,-0.22708638,0.032094765,-4.5814895E-4,0.001985312,-5.345071E-4,stop
0.01335902,-0.1816635,0.040996395,-4.5814895E-4,-4.5814895E-4,7.6358156E-5,stop
0.01335902,-0.1816635,0.040996395,-4.5814895E-4,-4.5814895E-4,7.6358156E-5,stop
0.009092287,-0.14093968,0.04561745,-4.5814895E-4,0.0038179078,-5.345071E-4,stop
0.009092287,-0.14093968,0.04561745,-4.5814895E-4,0.0038179078,-5.345071E-4,stop
0.006953799,-0.1118882,0.054648053,1.5271631E-4,-4.5814895E-4,-5.345071E-4,stop
0.006953799,-0.1118882,0.054648053,1.5271631E-4,-4.5814895E-4,-5.345071E-4,stop
0.004506076,-0.08611897,0.056581844,1.5271631E-4,-4.5814895E-4,-5.345071E-4,stop
0.004506076,-0.08611897,0.056581844,1.5271631E-4,-4.5814895E-4,-5.345071E-4,stop
0.0057994034,-0.06504984,0.058986317,1.5271631E-4,-4.5814895E-4,7.6358156E-5,stop
0.0057994034,-0.06504984,0.058986317,1.5271631E-4,-4.5814895E-4,7.6358156E-5,stop
0.004173241,-0.05023626,0.062183727,1.5271631E-4,-4.5814895E-4,-5.345071E-4,stop
0.004173241,-0.05023626,0.062183727,1.5271631E-4,-4.5814895E-4,-5.345071E-4,stop
0.0012998367,-0.038613528,0.06284997,7.6358154E-4,1.5271631E-4,-5.345071E-4,stop
0.0012998367,-0.038613528,0.06284997,7.6358154E-4,1.5271631E-4,-5.345071E-4,stop
2.636955E-4,-0.028349321,0.065795556,1.5271631E-4,7.6358154E-4,-5.345071E-4,stop
2.636955E-4,-0.028349321,0.065795556,1.5271631E-4,7.6358154E-4,-5.345071E-4,stop
-0.002082945,-0.02024815,0.06824767,-4.5814895E-4,-4.5814895E-4,7.6358156E-5,stop
-0.002082945,-0.02024815,0.06824767,-4.5814895E-4,-4.5814895E-4,7.6358156E-5,stop
-0.004741538,-0.014344062,0.07068799,-4.5814895E-4,-4.5814895E-4,7.6358156E-5,stop
-0.004741538,-0.014344062,0.07068799,1.5271631E-4,1.5271631E-4,7.6358156E-5,stop
-0.006776244,-0.008139644,0.06912718,1.5271631E-4,0.0013744468,-0.0011453723,stop
-0.006776244,-0.008139644,0.06912718,1.5271631E-4,0.0013744468,-0.0011453723,stop
-0.007815428,-0.006412701,0.07021642,1.5271631E-4,1.5271631E-4,-5.345071E-4,stop
-0.007815428,-0.006412701,0.07021642,1.5271631E-4,1.5271631E-4,-5.345071E-4,stop
-0.008433383,-0.0019732972,0.06992328,1.5271631E-4,7.6358154E-4,-5.345071E-4,stop
-0.008433383,-0.0019732972,0.06992328,1.5271631E-4,7.6358154E-4,-5.345071E-4,stop
-0.00633832,2.4999285E-4,0.07087253,1.5271631E-4,7.6358154E-4,7.6358156E-5,stop
-0.00633832,2.4999285E-4,0.07087253,1.5271631E-4,7.6358154E-4,7.6358156E-5,stop
-0.006878494,-9.7269505E-5,0.072459884,1.5271631E-4,0.0013744468,-0.0017562376,stop
-0.006878494,-9.7269505E-5,0.072459884,1.5271631E-4,0.0013744468,-0.0017562376,stop
-0.0048025786,0.0042395857,0.074977785,1.5271631E-4,0.001985312,-0.0017562376,stop
-0.0048025786,0.0042395857,0.074977785,1.5271631E-4,0.001985312,-0.0017562376,stop
-0.004188773,0.001244775,0.07507953,1.5271631E-4,0.001985312,-5.345071E-4,stop
-0.004188773,0.001244775,0.07507953,1.5271631E-4,0.001985312,-5.345071E-4,stop
-0.0040218113,0.0023143466,0.077158764,1.5271631E-4,0.0013744468,-5.345071E-4,stop
-0.0040218113,0.0023143466,0.077158764,1.5271631E-4,0.0013744468,-5.345071E-4,stop
-0.0038448544,0.0043951417,0.07689557,1.5271631E-4,7.6358154E-4,-5.345071E-4,stop
-0.0038448544,0.0043951417,0.07689557,1.5271631E-4,7.6358154E-4,-5.345071E-4,stop
-0.0052223927,0.0055167074,0.07547828,1.5271631E-4,1.5271631E-4,-5.345071E-4,stop
-0.0052223927,0.0055167074,0.07547828,1.5271631E-4,1.5271631E-4,-5.345071E-4,stop
-0.0034202666,0.003876979,0.07748724,-4.5814895E-4,1.5271631E-4,6.872234E-4,stop
-0.0034202666,0.003876979,0.07748724,-4.5814895E-4,1.5271631E-4,6.872234E-4,stop
-0.004976181,0.0012781299,0.07636599,-4.5814895E-4,1.5271631E-4,-5.345071E-4,stop
-0.004976181,0.0012781299,0.07636599,-4.5814895E-4,1.5271631E-4,-5.345071E-4,stop
-0.0037265376,0.0014806933,0.078222714,1.5271631E-4,1.5271631E-4,6.872234E-4,stop
-0.0037265376,0.0014806933,0.078222714,1.5271631E-4,1.5271631E-4,6.872234E-4,stop
-0.0022320636,3.4061557E-4,0.07817305,1.5271631E-4,7.6358154E-4,-5.345071E-4,stop
-0.0022320636,3.4061557E-4,0.07817305,1.5271631E-4,7.6358154E-4,-5.345071E-4,stop
-0.0021394298,1.841876E-4,0.077731915,7.6358154E-4,0.001985312,7.6358156E-5,stop
-0.0021394298,1.841876E-4,0.077731915,7.6358154E-4,0.001985312,7.6358156E-5,stop
-0.0039911657,-3.626744E-4,0.07975755,1.5271631E-4,0.001985312,-5.345071E-4,stop
-0.0039911657,-3.626744E-4,0.07975755,1.5271631E-4,0.001985312,-5.345071E-4,stop
-0.0039012008,-0.0016096618,0.07945001,1.5271631E-4,-0.0022907446,7.6358156E-5,stop
-0.0039012008,-0.0016096618,0.07945001,1.5271631E-4,-0.0022907446,7.6358156E-5,stop
-0.0037338804,-0.0034790467,0.078394234,7.6358154E-4,-0.0010690142,7.6358156E-5,stop
-0.0037338804,-0.0034790467,0.078394234,7.6358154E-4,-0.0010690142,7.6358156E-5,stop
-0.0023238095,-0.0014630969,0.07831153,7.6358154E-4,7.6358154E-4,-5.345071E-4,stop
-0.0023238095,-0.0014630969,0.07831153,7.6358154E-4,7.6358154E-4,-5.345071E-4,stop
1.14833056E-4,-0.003401502,0.08143393,0.0013744468,0.004428773,-0.0011453723,stop
1.14833056E-4,-0.003401502,0.08143393,0.0013744468,0.004428773,-0.0011453723,stop
2.252474E-4,-0.0058224043,0.082438834,7.6358154E-4,0.004428773,-5.345071E-4,stop
2.252474E-4,-0.0058224043,0.082438834,7.6358154E-4,0.004428773,-5.345071E-4,stop
0.0020136796,-0.005401734,0.08327483,7.6358154E-4,0.001985312,-5.345071E-4,stop
0.0020136796,-0.005401734,0.08327483,7.6358154E-4,0.001985312,-5.345071E-4,stop
2.4171108E-4,-0.0038773313,0.081179135,-4.5814895E-4,-0.00290161,7.6358156E-5,stop
2.4171108E-4,-0.0038773313,0.081179135,-4.5814895E-4,-0.00290161,7.6358156E-5,stop
6.564031E-4,-0.0033920943,0.08262641,-4.5814895E-4,-0.0022907446,7.6358156E-5,stop
6.564031E-4,-0.0033920943,0.08262641,-4.5814895E-4,-0.0022907446,7.6358156E-5,stop
0.0014048227,-0.0017393974,0.08143828,7.6358154E-4,0.0025961774,7.6358156E-5,stop
0.0014048227,-0.0017393974,0.08143828,7.6358154E-4,0.0025961774,7.6358156E-5,stop
0.0024261654,-0.0012497436,0.07964995,1.5271631E-4,0.0013744468,-0.0011453723,stop
0.0024261654,-0.0012497436,0.07964995,1.5271631E-4,0.0013744468,-0.0011453723,stop
0.0033260311,-0.0012565464,0.07656306,7.6358154E-4,1.5271631E-4,-5.345071E-4,stop
0.0033260311,-0.0012565464,0.07656306,7.6358154E-4,1.5271631E-4,-5.345071E-4,stop
0.0015279673,-8.857452E-4,0.07718498,-0.0016798794,-0.0065668016,-0.0017562376,stop
0.0015279673,-8.857452E-4,0.07718498,-0.0016798794,-0.0065668016,-0.0017562376,stop
0.0022374038,-0.0048791603,0.07930209,-0.0022907446,-0.010231993,-0.0011453723,stop
0.0022374038,-0.0048791603,0.07930209,-0.0022907446,-0.010231993,-0.0011453723,stop
0.003034659,-0.008385739,0.08027114,7.6358154E-4,0.004428773,-5.345071E-4,stop
0.003034659,-0.008385739,0.08027114,7.6358154E-4,0.004428773,-5.345071E-4,stop
0.003928186,-0.017572893,0.08067639,0.0062613687,0.016035212,-5.345071E-4,stop
0.003928186,-0.017572893,0.08067639,0.0062613687,0.016035212,-5.345071E-4,stop
-0.05264619,-0.27475113,0.08340099,0.0038179078,0.017256944,7.6358156E-5,stop
-0.05264619,-0.27475113,0.08340099,0.0038179078,0.017256944,7.6358156E-5,stop
-0.05701177,-0.70820314,0.082913294,0.0032070426,0.014813482,0.007406741,stop
-0.05701177,-0.70820314,0.082913294,0.0032070426,0.014813482,0.007406741,stop
-0.05701177,-0.70820314,0.082913294,7.6358154E-4,-0.0053450707,-0.013362677,stop
0.05024477,-1.2022945,0.08718673,7.6358154E-4,-0.0053450707,-0.013362677,stop
0.24370374,-1.5404241,0.11243813,0.0013744468,-0.005955936,-0.05429065,stop
0.24370374,-1.5404241,0.11243813,0.0013744468,-0.005955936,-0.05429065,stop
0.3999689,-1.755479,0.1257338,0.006872234,-0.019394971,-0.18257235,stop
0.3999689,-1.755479,0.1257338,0.006872234,-0.019394971,-0.18257235,stop
0.5289543,-1.9344603,0.13686326,0.0025961774,0.0038179078,-0.2485458,stop
0.5289543,-1.9344603,0.13686326,0.0025961774,0.0038179078,-0.2485458,stop
0.2205787,-1.9583654,0.14219278,1.5271631E-4,-0.01695151,-0.07994699,stop
0.2205787,-1.9583654,0.14219278,1.5271631E-4,-0.01695151,-0.07994699,stop
-0.13320807,-1.9818575,0.17544329,1.5271631E-4,-0.01695151,-0.07994699,stop
-0.13320807,-1.9818575,0.17544329,-0.00290161,0.036193766,0.3806454,stop
-0.27061382,-1.9630611,0.061901744,-0.045662176,0.14065172,0.55352026,stop
-0.27061382,-1.9630611,0.061901744,-0.045662176,0.14065172,0.55352026,stop
-0.31113982,-1.910532,-0.02868614,0.004428773,0.08445212,0.38919753,stop
-0.31113982,-1.910532,-0.02868614,0.004428773,0.08445212,0.38919753,stop
-0.34227633,-1.8661716,-0.10415776,0.019089539,-0.027947085,0.31283936,stop
-0.34227633,-1.8661716,-0.10415776,0.019089539,-0.027947085,0.31283936,stop
-0.057123132,-1.8101367,-0.008206949,0.020922136,-0.065209866,0.47166434,stop
-0.057123132,-1.8101367,-0.008206949,0.020922136,-0.065209866,0.47166434,stop
0.05593934,-1.4829781,0.027530504,0.020922136,-0.065209866,0.47166434,stop
0.05593934,-1.4829781,0.027530504,-0.02367103,-0.018784106,0.491212,stop
0.11196319,-1.3158205,0.6451912,-0.015118915,0.025809057,0.46433395,stop
0.11196319,-1.3158205,0.6451912,-0.015118915,0.025809057,0.46433395,stop
0.23631783,-0.7921762,0.88825846,-0.0096211275,0.05879578,0.40080395,stop
0.23631783,-0.7921762,0.88825846,-0.0096211275,0.05879578,0.40080395,stop
0.039093237,-0.32475546,0.62794566,0.017256944,0.041080687,0.36293033,stop
0.039093237,-0.32475546,0.62794566,0.017256944,0.041080687,0.36293033,stop
-0.104084715,-0.38210294,0.9312024,-0.005955936,0.033750303,0.500375,stop
-0.104084715,-0.38210294,0.9312024,-0.005955936,0.033750303,0.500375,stop
-0.104084715,-0.38210294,0.9312024,0.05085453,-0.008399397,0.6292676,stop
0.14168026,-0.21573272,0.90459114,0.05085453,-0.008399397,0.6292676,stop
0.459072,-0.13899958,0.7071474,-0.02855795,0.024587326,0.28535044,stop
0.459072,-0.13899958,0.7071474,-0.02855795,0.024587326,0.28535044,stop
0.52870387,0.3515732,0.6679099,-0.018784106,-0.0627664,0.16256651,stop
0.52870387,0.3515732,0.6679099,-0.018784106,-0.0627664,0.16256651,stop
0.36632493,0.5093549,0.51350856,0.013591751,0.03680463,0.28718302,stop
0.36632493,0.5093549,0.51350856,0.013591751,0.03680463,0.28718302,stop
0.2323857,0.64073557,0.3848217,-0.010231993,0.02397646,0.31283936,stop
0.2323857,0.64073557,0.3848217,-0.010231993,0.02397646,0.31283936,stop
0.2492378,0.3907481,0.12272264,-0.029168816,0.0355829,0.26519188,stop
0.2492378,0.3907481,0.12272264,-0.029168816,0.0355829,0.26519188,stop
0.38085887,0.61399007,0.10184845,-0.017562376,0.09728029,0.110032104,stop
0.38085887,0.61399007,0.10184845,-0.017562376,0.09728029,0.110032104,stop
0.47895133,1.1118494,0.051705714,0.011759156,-0.022449298,-0.05062546,stop
0.47895133,1.1118494,0.051705714,0.011759156,-0.022449298,-0.05062546,stop
0.39225465,1.1327288,-0.10186436,0.012370021,0.001985312,-0.057344973,stop
0.39225465,1.1327288,-0.10186436,0.012370021,0.001985312,-0.057344973,stop
0.3396515,1.3536327,-0.13375086,0.0062613687,0.019700404,-0.032910366,stop
0.3396515,1.3536327,-0.13375086,0.0062613687,0.019700404,-0.032910366,stop
0.043099478,1.4022615,-0.1001685,-0.00290161,0.01786781,-0.1324814,stop
0.043099478,1.4022615,-0.1001685,-0.00290161,0.01786781,-0.1324814,stop
-0.04384006,1.3939346,0.052653406,-4.5814895E-4,0.016035212,0.1698969,stop
-0.04384006,1.3939346,0.052653406,-4.5814895E-4,0.016035212,0.1698969,stop
0.1743824,1.6806972,0.109364115,0.001985312,-0.05421429,0.18455766,stop
0.1743824,1.6806972,0.109364115,0.001985312,-0.05421429,0.18455766,stop
0.24316949,1.9743443,0.26511335,0.014202617,0.014813482,-0.3224605,stop
0.24316949,1.9743443,0.26511335,0.014202617,0.014813482,-0.3224605,stop
0.08438673,2.087719,0.43229127,-0.009010263,-0.008399397,-0.32429308,stop
0.08438673,2.087719,0.43229127,-0.009010263,-0.008399397,-0.32429308,stop
0.08438673,2.087719,0.43229127,-0.015118915,-4.5814895E-4,0.15279266,stop
0.035596214,2.1469731,0.519245,-0.015118915,-4.5814895E-4,0.15279266,stop
0.21526377,2.256081,0.5812777,0.009315695,-0.035888333,0.46861,stop
0.21526377,2.256081,0.5812777,0.009315695,-0.035888333,0.46861,stop
0.25341237,2.3001125,0.44456506,0.006872234,0.007483099,0.337274,stop
0.25341237,2.3001125,0.44456506,0.006872234,0.007483099,0.337274,stop
0.3162158,2.6695845,0.3916078,0.004428773,-0.021838432,0.20532708,stop
0.3162158,2.6695845,0.3916078,0.004428773,-0.021838432,0.20532708,stop
0.18954293,2.969932,0.32062685,-0.0053450707,0.027641652,0.014126259,stop
0.18954293,2.969932,0.32062685,-0.0053450707,0.027641652,0.014126259,stop
0.035327666,3.1674597,0.27894592,0.001985312,-0.0022907446,0.11614075,stop
0.035327666,3.1674597,0.27894592,0.001985312,-0.0022907446,0.11614075,stop
0.5090546,4.1594763,0.45998782,-0.010842858,0.0056505036,0.17050776,stop
0.5090546,4.1594763,0.45998782,-0.010842858,0.0056505036,0.17050776,stop
0.23408735,3.8134224,0.23841204,0.008093964,0.02275473,-0.22350033,stop
0.23408735,3.8134224,0.23841204,0.008093964,0.02275473,-0.22350033,stop
0.2171884,3.3345554,0.19609192,0.0013744468,-0.0035124752,-0.00908662,stop
0.2171884,3.3345554,0.19609192,0.0013744468,-0.0035124752,-0.00908662,stop
0.1919483,2.931298,0.16432086,1.5271631E-4,-0.0022907446,-0.012751812,stop
0.1919483,2.931298,0.16432086,1.5271631E-4,-0.0022907446,-0.012751812,stop
0.20392385,2.5653458,0.1441567,-0.00290161,-0.009010263,-0.011530082,stop
0.20392385,2.5653458,0.1441567,-0.00290161,-0.009010263,-0.011530082,stop
0.19000444,2.2869627,0.13368627,-0.0035124752,-0.012675454,-0.0048105638,stop
0.19000444,2.2869627,0.13368627,-0.0035124752,-0.012675454,-0.0048105638,stop
0.1787414,2.0569482,0.13529731,-0.0065668016,-0.02367103,-0.0041996986,stop
0.1787414,2.0569482,0.13529731,-0.0065668016,-0.02367103,-0.0041996986,stop
0.16438614,1.8641608,0.12903063,-0.0016798794,-0.0053450707,-0.0023671028,stop
0.16438614,1.8641608,0.12903063,-0.0016798794,-0.0053450707,-0.0023671028,stop
0.15229408,1.703116,0.12377264,0.0013744468,0.001985312,-0.0023671028,stop
0.15229408,1.703116,0.12377264,0.0013744468,0.001985312,-0.0023671028,stop
0.1462654,1.5700781,0.12214424,0.0013744468,0.001985312,-0.0023671028,stop
0.1462654,1.5700781,0.12214424,0.0013744468,0.0032070426,-5.345071E-4,stop
0.13937642,1.4580086,0.11995118,0.0025961774,0.00992656,-0.0017562376,stop
0.13937642,1.4580086,0.11995118,0.0025961774,0.00992656,-0.0017562376,stop
0.13552171,1.3649902,0.11808358,0.0032070426,0.00992656,-0.0011453723,stop
0.13552171,1.3649902,0.11808358,0.0032070426,0.00992656,-0.0011453723,stop
0.12879185,1.2574247,0.11715111,0.0013744468,0.006872234,-0.0011453723,stop
0.12879185,1.2574247,0.11715111,0.0013744468,0.006872234,-0.0011453723,stop
0.11914263,1.1440585,0.114785224,7.6358154E-4,0.0032070426,-5.345071E-4,stop
0.11914263,1.1440585,0.114785224,7.6358154E-4,0.0032070426,-5.345071E-4,stop
0.11497034,1.0290349,0.1118247,1.5271631E-4,7.6358154E-4,-0.0011453723,stop
0.11497034,1.0290349,0.1118247,1.5271631E-4,7.6358154E-4,-0.0011453723,stop
0.107486784,0.917937,0.10794711,-4.5814895E-4,-0.0010690142,-0.0017562376,stop
0.107486784,0.917937,0.10794711,-4.5814895E-4,-0.0010690142,-0.0017562376,stop
0.09515214,0.81610066,0.104335584,7.6358154E-4,7.6358154E-4,-5.345071E-4,stop
0.09515214,0.81610066,0.104335584,7.6358154E-4,7.6358154E-4,-5.345071E-4,stop
0.08482342,0.7171758,0.1006859,1.5271631E-4,1.5271631E-4,-5.345071E-4,stop
0.08482342,0.7171758,0.1006859,1.5271631E-4,1.5271631E-4,-5.345071E-4,stop
0.0728453,0.63075644,0.09749669,7.6358154E-4,0.0025961774,7.6358156E-5,stop
0.0728453,0.63075644,0.09749669,7.6358154E-4,0.0025961774,7.6358156E-5,stop
0.06421956,0.5494765,0.09833581,1.5271631E-4,0.001985312,-5.345071E-4,stop
0.06421956,0.5494765,0.09833581,1.5271631E-4,0.001985312,-5.345071E-4,stop
0.05448353,0.4776893,0.09698135,1.5271631E-4,0.001985312,-5.345071E-4,stop
0.05448353,0.4776893,0.09698135,1.5271631E-4,0.001985312,-5.345071E-4,stop
0.048389472,0.4143358,0.09501688,7.6358154E-4,0.001985312,-5.345071E-4,stop
0.048389472,0.4143358,0.09501688,7.6358154E-4,0.001985312,-5.345071E-4,stop
0.044212196,0.35601994,0.09495276,7.6358154E-4,0.001985312,7.6358156E-5,stop
0.044212196,0.35601994,0.09495276,7.6358154E-4,0.001985312,7.6358156E-5,stop
0.044212196,0.35601994,0.09495276,1.5271631E-4,-0.0010690142,7.6358156E-5,stop
0.03759842,0.3097928,0.09209377,1.5271631E-4,-0.0010690142,7.6358156E-5,stop
0.036193877,0.2656544,0.09129979,-0.0010690142,-0.0010690142,7.6358156E-5,stop
0.036193877,0.2656544,0.09129979,-0.0010690142,-0.0010690142,7.6358156E-5,stop
0.030351683,0.22734672,0.09103391,-0.0010690142,-0.0016798794,-0.0011453723,stop
0.030351683,0.22734672,0.09103391,-0.0010690142,-0.0016798794,-0.0011453723,stop
0.02812083,0.19777706,0.091608025,1.5271631E-4,-4.5814895E-4,-5.345071E-4,stop
0.02812083,0.19777706,0.091608025,1.5271631E-4,-4.5814895E-4,-5.345071E-4,stop
0.022879746,0.1703922,0.09048953,7.6358154E-4,1.5271631E-4,-0.0011453723,stop
0.022879746,0.1703922,0.09048953,7.6358154E-4,1.5271631E-4,-0.0011453723,stop
0.018380795,0.14541623,0.08835995,1.5271631E-4,-0.0022907446,6.872234E-4,stop
0.018380795,0.14541623,0.08835995,1.5271631E-4,-0.0022907446,6.872234E-4,stop
0.0156922,0.12584569,0.08738401,-4.5814895E-4,-0.00290161,-0.0023671028,stop
0.0156922,0.12584569,0.08738401,-4.5814895E-4,-0.00290161,-0.0023671028,stop
0.014924251,0.10610765,0.08936466,1.5271631E-4,-0.0016798794,-5.345071E-4,stop
0.014924251,0.10610765,0.08936466,1.5271631E-4,-0.0016798794,-5.345071E-4,stop
0.013720673,0.091143765,0.08822365,7.6358154E-4,1.5271631E-4,-5.345071E-4,stop
0.013720673,0.091143765,0.08822365,7.6358154E-4,1.5271631E-4,-5.345071E-4,stop
0.010243922,0.07707089,0.08807167,7.6358154E-4,1.5271631E-4,7.6358156E-5,stop
0.010243922,0.07707089,0.08807167,7.6358154E-4,1.5271631E-4,7.6358156E-5,stop
0.011314565,0.066270985,0.085950084,-4.5814895E-4,-4.5814895E-4,-0.0011453723,stop
0.011314565,0.066270985,0.085950084,-4.5814895E-4,-4.5814895E-4,-0.0011453723,stop
0.010082717,0.05349682,0.08817402,-4.5814895E-4,-0.0016798794,-5.345071E-4,stop
0.010082717,0.05349682,0.08817402,-4.5814895E-4,-0.0016798794,-5.345071E-4,stop
0.004174359,0.045253433,0.07606233,-0.0010690142,-0.0071776668,-0.0011453723,stop
0.004174359,0.045253433,0.07606233,-0.0010690142,-0.0071776668,-0.0011453723,stop
0.0038408276,0.037186112,0.07834191,-0.00290161,-0.011453724,7.6358156E-5,stop
0.0038408276,0.037186112,0.07834191,-0.00290161,-0.011453724,7.6358156E-5,stop
-0.005517349,0.032935545,0.061890002,-0.0041233404,-0.01450805,7.6358156E-5,stop
-0.005517349,0.032935545,0.061890002,-0.0041233404,-0.01450805,7.6358156E-5,stop
-0.0037722914,0.028996412,0.065339066,-0.0010690142,-0.0041233404,-5.345071E-4,stop
-0.0037722914,0.028996412,0.065339066,-0.0010690142,-0.0041233404,-5.345071E-4,stop
-0.0015476742,0.023638992,0.06861256,-0.0016798794,-0.0035124752,-0.0011453723,stop
-0.0015476742,0.023638992,0.06861256,-0.0016798794,-0.0035124752,-0.0011453723,stop
6.6327484E-4,0.018257294,0.07293708,-4.5814895E-4,-0.0065668016,-5.345071E-4,stop
6.6327484E-4,0.018257294,0.07293708,-4.5814895E-4,-0.0065668016,-5.345071E-4,stop
0.0015238079,0.014185527,0.07494725,-0.0016798794,-0.005955936,7.6358156E-5,stop
0.0015238079,0.014185527,0.07494725,-0.0016798794,-0.005955936,7.6358156E-5,stop
0.0040830104,0.011227578,0.078220755,7.6358154E-4,1.5271631E-4,7.6358156E-5,stop
0.0040830104,0.011227578,0.078220755,7.6358154E-4,1.5271631E-4,7.6358156E-5,stop
0.0065728202,0.010772149,0.07815616,-4.5814895E-4,-4.5814895E-4,-0.0011453723,stop
0.0065728202,0.010772149,0.07815616,-4.5814895E-4,-4.5814895E-4,-0.0011453723,stop
0.0070580826,0.008390539,0.08049621,1.5271631E-4,7.6358154E-4,-0.0011453723,stop
0.0070580826,0.008390539,0.08049621,1.5271631E-4,7.6358154E-4,-0.0011453723,stop
0.008611221,0.007647383,0.080850914,7.6358154E-4,0.0025961774,-5.345071E-4,stop
0.008611221,0.007647383,0.080850914,7.6358154E-4,0.0025961774,-5.345071E-4,stop
0.0074275914,0.00869876,0.08194568,7.6358154E-4,7.6358154E-4,-5.345071E-4,stop
0.0074275914,0.00869876,0.08194568,7.6358154E-4,7.6358154E-4,-5.345071E-4,stop
0.0043180636,0.0067984196,0.08365796,-4.5814895E-4,-4.5814895E-4,-5.345071E-4,stop
0.0043180636,0.0067984196,0.08365796,-4.5814895E-4,-4.5814895E-4,-5.345071E-4,stop
0.00444585,0.007675829,0.085484765,7.6358154E-4,-4.5814895E-4,-5.345071E-4,stop
0.00444585,0.007675829,0.085484765,7.6358154E-4,-4.5814895E-4,-5.345071E-4,stop
0.005374838,0.007984883,0.0874059,1.5271631E-4,1.5271631E-4,7.6358156E-5,stop
0.005374838,0.007984883,0.0874059,1.5271631E-4,1.5271631E-4,7.6358156E-5,stop
0.006543523,0.008225104,0.08581458,-4.5814895E-4,1.5271631E-4,-5.345071E-4,stop
0.006543523,0.008225104,0.08581458,-4.5814895E-4,1.5271631E-4,-5.345071E-4,stop
0.00653409,0.0040137367,0.08648611,1.5271631E-4,-4.5814895E-4,7.6358156E-5,stop
0.00653409,0.0040137367,0.08648611,1.5271631E-4,-4.5814895E-4,7.6358156E-5,stop
0.006866879,0.00455781,0.085051425,-4.5814895E-4,-0.0010690142,-0.0011453723,stop
0.006866879,0.00455781,0.085051425,-4.5814895E-4,-0.0010690142,-0.0011453723,stop
0.007056505,0.0050620628,0.08704939,1.5271631E-4,1.5271631E-4,-0.0011453723,stop
0.007056505,0.0050620628,0.08704939,1.5271631E-4,1.5271631E-4,-0.0011453723,stop
0.007931901,0.0041977027,0.089114584,1.5271631E-4,7.6358154E-4,-5.345071E-4,stop
0.007931901,0.0041977027,0.089114584,1.5271631E-4,7.6358154E-4,-5.345071E-4,stop
0.009010976,0.0026290752,0.090037994,7.6358154E-4,1.5271631E-4,-5.345071E-4,stop
0.009010976,0.0026290752,0.090037994,7.6358154E-4,1.5271631E-4,-5.345071E-4,stop
0.009828244,8.893089E-4,0.089611754,1.5271631E-4,7.6358154E-4,6.872234E-4,stop
0.009828244,8.893089E-4,0.089611754,1.5271631E-4,7.6358154E-4,6.872234E-4,stop
0.010280723,0.0010606926,0.090057954,-4.5814895E-4,-0.00290161,-0.0011453723,stop
0.010280723,0.0010606926,0.090057954,-4.5814895E-4,-0.00290161,-0.0011453723,stop
0.008100373,-7.7637675E-4,0.07965804,-4.5814895E-4,-0.00290161,-0.0011453723,stop
0.008100373,-7.7637675E-4,0.07965804,0.001985312,0.00870483,-0.0011453723,stop
0.027270671,-0.0015634033,0.10490601,7.6358154E-4,0.0038179078,-0.0011453723,stop
0.027270671,-0.0015634033,0.10490601,7.6358154E-4,0.0038179078,-0.0011453723,stop
0.019062975,0.0017127753,0.09482473,-0.00290161,-0.013286319,-5.345071E-4,stop
0.019062975,0.0017127753,0.09482473,-0.00290161,-0.013286319,-5.345071E-4,stop
0.024594171,-0.0035033384,0.111973554,-0.0047342055,-0.020005837,6.872234E-4,stop
0.024594171,-0.0035033384,0.111973554,-0.0047342055,-0.020005837,6.872234E-4,stop
0.020862838,-4.87577E-4,0.10951041,0.0013744468,0.0062613687,-5.345071E-4,stop
0.020862838,-4.87577E-4,0.10951041,0.0013744468,0.0062613687,-5.345071E-4,stop
0.011703911,-8.527816E-4,0.10346237,0.0025961774,0.008093964,-0.0011453723,stop
0.011703911,-8.527816E-4,0.10346237,0.0025961774,0.008093964,-0.0011453723,stop
0.005531475,3.7819616E-4,0.09881731,0.001985312,0.0056505036,0.0012980887,stop
0.005531475,3.7819616E-4,0.09881731,0.001985312,0.0056505036,0.0012980887,stop
-0.008820499,0.0045481306,0.09853241,1.5271631E-4,-0.0035124752,0.0061850105,stop
-0.008820499,0.0045481306,0.09853241,1.5271631E-4,-0.0035124752,0.0061850105,stop
-0.09126403,0.010260135,0.09110444,0.0038179078,0.004428773,0.02695443,stop
-0.09126403,0.010260135,0.09110444,0.0038179078,0.004428773,0.02695443,stop
-0.008067526,0.002467711,0.04454814,0.03924809,0.030695979,0.122860275,stop
-0.008067526,0.002467711,0.04454814,0.03924809,0.030695979,0.122860275,stop
0.007706774,0.0030133296,0.05281346,0.004428773,0.016646078,0.0538325,stop
0.007706774,0.0030133296,0.05281346,0.004428773,0.016646078,0.0538325,stop
0.029661253,-2.8247514E-4,0.05610603,0.0062613687,0.0025961774,0.048945576,stop
0.029661253,-2.8247514E-4,0.05610603,0.0062613687,0.0025961774,0.048945576,stop
0.029661253,-2.8247514E-4,0.05610603,-0.009010263,-0.012675454,-0.0011453723,stop
0.03914023,3.7198122E-5,0.068028,-0.009010263,-0.012675454,-0.0011453723,stop
0.040197372,-0.0022017043,0.07397678,-0.009010263,-0.01572978,-0.011530082,stop
0.040197372,-0.0022017043,0.07397678,-0.009010263,-0.01572978,-0.011530082,stop
0.04057389,-0.0037753785,0.07893902,-0.005955936,-0.0065668016,-0.005421429,stop
0.04057389,-0.0037753785,0.07893902,-0.005955936,-0.0065668016,-0.005421429,stop
0.06185651,-0.0036953352,0.07429708,-0.0096211275,-0.0047342055,-0.002977968,stop
0.06185651,-0.0036953352,0.07429708,-0.0096211275,-0.0047342055,-0.002977968,stop
0.066960394,-0.0048295977,0.07641692,-0.0071776668,-0.010842858,-0.012751812,stop
0.066960394,-0.0048295977,0.07641692,-0.0071776668,-0.010842858,-0.012751812,stop
0.042323615,-0.0035470705,0.07340093,-0.01695151,-0.049938235,0.009850202,stop
0.042323615,-0.0035470705,0.07340093,-0.01695151,-0.049938235,0.009850202,stop
0.028664714,0.020101855,0.081283934,-0.017562376,-0.05665775,0.036728274,stop
0.028664714,0.020101855,0.081283934,-0.017562376,-0.05665775,0.036728274,stop
-0.028738514,0.04753736,0.09306191,-0.0096211275,-0.02855795,0.048334714,stop
-0.028738514,0.04753736,0.09306191,-0.0096211275,-0.02855795,0.048334714,stop
-0.31991482,0.25158113,0.0912756,0.008093964,0.038026363,0.09170614,stop
-0.31991482,0.25158113,0.0912756,0.008093964,0.038026363,0.09170614,stop
0.036463663,0.95021117,0.1459945,-0.02733622,0.08323039,0.62438065,stop
0.036463663,0.95021117,0.1459945,-0.02733622,0.08323039,0.62438065,stop
0.20553331,1.0262493,0.1476796,-0.033444874,-0.02977968,-0.03901902,stop
0.20553331,1.0262493,0.1476796,-0.033444874,-0.02977968,-0.03901902,stop
0.06367999,1.3760105,0.15028468,-0.060322944,-0.0053450707,-0.42325327,stop
0.06367999,1.3760105,0.15028468,-0.060322944,-0.0053450707,-0.42325327,stop
0.009700275,1.5815613,0.1352942,-0.01695151,0.008093964,-0.38415787,stop
0.009700275,1.5815613,0.1352942,-0.01695151,0.008093964,-0.38415787,stop
-0.023501404,1.797603,0.12719364,-0.0010690142,-0.031612277,-0.30352366,stop
-0.023501404,1.797603,0.12719364,-0.0010690142,-0.031612277,-0.30352366,stop
0.0016209129,2.0389245,0.09810401,0.03924809,1.5271631E-4,-0.26687175,stop
0.0016209129,2.0389245,0.09810401,0.03924809,1.5271631E-4,-0.26687175,stop
0.0016209129,2.0389245,0.09810401,-0.013286319,-0.034055736,-0.2577088,stop
0.1285611,2.2206912,0.12574427,-0.013286319,-0.034055736,-0.2577088,stop
0.18152247,2.2879834,0.15637113,0.03680463,-0.04138612,-0.3016911,stop
0.18152247,2.2879834,0.15637113,0.03680463,-0.04138612,-0.3016911,stop
0.11925703,2.2919722,0.09213147,0.025809057,-0.054825157,-0.28214338,stop
0.11925703,2.2919722,0.09213147,0.025809057,-0.054825157,-0.28214338,stop
0.07712563,2.1580977,0.3582486,0.011148291,-0.009010263,-0.13553573,stop
0.07712563,2.1580977,0.3582486,0.011148291,-0.009010263,-0.13553573,stop
0.1529696,2.0785627,0.43158045,-0.0096211275,0.0056505036,-0.03352123,stop
0.1529696,2.0785627,0.43158045,-0.0096211275,0.0056505036,-0.03352123,stop
0.18068194,2.016334,0.43363562,-0.0096211275,0.0056505036,-0.03352123,stop
0.18068194,2.016334,0.43363562,0.017256944,0.027641652,-0.188681,stop
0.14747918,1.8990272,0.44772205,0.0032070426,1.5271631E-4,-0.338343,stop
0.14747918,1.8990272,0.44772205,0.0032070426,1.5271631E-4,-0.338343,stop
-0.0020630066,1.7428052,0.48900652,0.0056505036,0.06490443,-0.24426974,stop
-0.0020630066,1.7428052,0.48900652,0.0056505036,0.06490443,-0.24426974,stop
0.0035218517,1.5105335,0.36099252,0.017256944,-0.024892759,-0.044516806,stop
0.0035218517,1.5105335,0.36099252,0.017256944,-0.024892759,-0.044516806,stop
0.16263628,1.5938941,0.26110545,1.5271631E-4,-0.011453724,-0.042073343,stop
0.16263628,1.5938941,0.26110545,1.5271631E-4,-0.011453724,-0.042073343,stop
0.16263628,1.5938941,0.26110545,-0.0041233404,-0.01572978,-0.3627776,stop
0.25512224,1.4466951,0.21977337,-0.0041233404,-0.01572978,-0.3627776,stop
0.25512224,1.4466951,0.21977337,0.006872234,0.0038179078,-0.4721225,stop
0.32621232,1.165862,0.18254255,0.006872234,0.0038179078,-0.4721225,stop
0.29923248,0.8905287,0.13874827,7.6358154E-4,-0.018784106,-0.42325327,stop
0.29923248,0.8905287,0.13874827,7.6358154E-4,-0.018784106,-0.42325327,stop
0.3489987,0.85158527,-0.10683194,0.013591751,-0.030390546,-0.40370557,stop
0.3489987,0.85158527,-0.10683194,0.013591751,-0.030390546,-0.40370557,stop
0.29206678,0.61542124,-0.08003362,-0.005955936,-0.027947085,-0.5808565,stop
0.29206678,0.61542124,-0.08003362,-0.005955936,-0.027947085,-0.5808565,stop
0.13500787,0.36983088,0.043659735,7.6358154E-4,-0.065209866,-0.37621662,stop
0.13500787,0.36983088,0.043659735,7.6358154E-4,-0.065209866,-0.37621662,stop
0.022198107,0.1372803,0.026235064,-0.0010690142,0.066737026,0.1643991,stop
0.022198107,0.1372803,0.026235064,-0.0010690142,0.066737026,0.1643991,stop
0.022198107,0.1372803,0.026235064,-0.021838432,0.026419923,0.2578615,stop
0.26338816,-0.17208451,0.23396401,-0.021838432,0.026419923,0.2578615,stop
0.7014842,-0.01929276,0.095811404,0.010537425,0.05390886,-0.14103352,stop
0.7014842,-0.01929276,0.095811404,0.010537425,0.05390886,-0.14103352,stop
0.83372676,-0.10201862,-0.0137356585,-0.0022907446,-0.051159963,-0.62483877,stop
0.83372676,-0.10201862,-0.0137356585,-0.0022907446,-0.051159963,-0.62483877,stop
0.83372676,-0.10201862,-0.0137356585,-0.0053450707,0.018478673,-0.8600219,stop
0.5733834,-0.43826464,0.09967877,-0.0053450707,0.018478673,-0.8600219,stop
0.34839553,-0.49549004,-0.34172052,0.011759156,0.07162395,-0.4189772,stop
0.34839553,-0.49549004,-0.34172052,0.011759156,0.07162395,-0.4189772,stop
0.29050574,-0.52262956,-0.22074234,0.018478673,0.018478673,-0.14775303,stop
0.29050574,-0.52262956,-0.22074234,0.018478673,0.018478673,-0.14775303,stop
0.27183098,-0.9294052,-0.21130015,0.026419923,0.111941054,-0.086055644,stop
0.27183098,-0.9294052,-0.21130015,0.026419923,0.111941054,-0.086055644,stop
0.32286537,-0.9806146,-0.15157562,0.016646078,-0.032223143,-0.13003793,stop
0.32286537,-0.9806146,-0.15157562,0.016646078,-0.032223143,-0.13003793,stop
0.26609012,-0.9884324,-0.11976064,0.016646078,-0.032223143,-0.13003793,stop
0.26609012,-0.9884324,-0.11976064,0.0056505036,-0.011453724,-0.35789067,stop
0.17221025,-1.1445463,-0.09604369,-0.008399397,0.007483099,-0.41653374,stop
0.17221025,-1.1445463,-0.09604369,-0.008399397,0.007483099,-0.41653374,stop
0.117325455,-1.48871,-0.17126012,0.010537425,-0.0786489,-0.22960897,stop
0.117325455,-1.48871,-0.17126012,0.010537425,-0.0786489,-0.22960897,stop
0.12860666,-1.5258904,-0.07990683,0.0056505036,-0.012064588,0.3384957,stop
0.12860666,-1.5258904,-0.07990683,0.0056505036,-0.012064588,0.3384957,stop
0.085777126,-1.9348205,0.12590045,-0.012064588,0.011148291,0.23525947,stop
0.085777126,-1.9348205,0.12590045,-0.012064588,0.011148291,0.23525947,stop
0.1375363,-1.7699645,0.106655106,-0.012064588,0.011148291,0.23525947,stop
0.1375363,-1.7699645,0.106655106,0.021533,0.05024367,0.46616653,stop
0.23853652,-1.4054466,0.11654773,-0.007788532,-0.01450805,0.19127718,stop
0.23853652,-1.4054466,0.11654773,-0.007788532,-0.01450805,0.19127718,stop
0.33945176,-1.5914711,0.10922508,-0.0047342055,-0.0010690142,-0.07689266,stop
0.33945176,-1.5914711,0.10922508,-0.0047342055,-0.0010690142,-0.07689266,stop
0.38239002,-1.9645649,0.12785943,-4.5814895E-4,0.027641652,-0.18623754,stop
0.38239002,-1.9645649,0.12785943,-4.5814895E-4,0.027641652,-0.18623754,stop
0.44612923,-2.0114481,0.12262832,-0.0016798794,0.010537425,-0.3151301,stop
0.44612923,-2.0114481,0.12262832,-0.0016798794,0.010537425,-0.3151301,stop
0.44612923,-2.0114481,0.12262832,-0.00290161,-0.0035124752,-0.4629595,stop
0.32772696,-1.8107612,0.12504777,-0.00290161,-0.0035124752,-0.4629595,stop
0.02704399,-1.6944506,0.13105193,-0.0022907446,-0.0035124752,-0.1465313,stop
0.02704399,-1.6944506,0.13105193,-0.0022907446,-0.0035124752,-0.1465313,stop
-0.054378483,-1.6579945,0.1288701,1.5271631E-4,0.001985312,0.27313313,stop
-0.054378483,-1.6579945,0.1288701,1.5271631E-4,0.001985312,0.27313313,stop
0.12130358,-1.5364661,0.11547652,0.0013744468,0.0050396384,0.33483052,stop
0.12130358,-1.5364661,0.11547652,0.0013744468,0.0050396384,0.33483052,stop
0.17358197,-1.7734017,-0.18179376,-0.007788532,-0.012064588,-0.021303926,stop
0.17358197,-1.7734017,-0.18179376,-0.007788532,-0.012064588,-0.021303926,stop
0.16545913,-1.491425,-0.13782483,-0.0010690142,1.5271631E-4,-0.005421429,stop
0.16545913,-1.491425,-0.13782483,-0.0010690142,1.5271631E-4,-0.005421429,stop
0.1463109,-1.2510248,-0.115150936,0.0025961774,0.0032070426,-0.0011453723,stop
0.1463109,-1.2510248,-0.115150936,0.0025961774,0.0032070426,-0.0011453723,stop
0.13595691,-1.0481504,-0.0810934,1.5271631E-4,1.5271631E-4,-0.0017562376,stop
0.13595691,-1.0481504,-0.0810934,1.5271631E-4,1.5271631E-4,-0.0017562376,stop
0.12693074,-0.87734044,-0.03475586,0.0013744468,0.0013744468,-0.0011453723,stop
0.12693074,-0.87734044,-0.03475586,0.0013744468,0.0013744468,-0.0011453723,stop
0.12103145,-0.7362243,-0.014896044,0.0032070426,0.0038179078,-0.0011453723,stop
0.12103145,-0.7362243,-0.014896044,0.0032070426,0.0038179078,-0.0011453723,stop
0.112178154,-0.6217762,-0.004731364,7.6358154E-4,7.6358154E-4,-0.0017562376,stop
0.112178154,-0.6217762,-0.004731364,7.6358154E-4,7.6358154E-4,-0.0017562376,stop
0.10759193,-0.5228016,-6.5008394E-4,-4.5814895E-4,-4.5814895E-4,-5.345071E-4,stop
0.10759193,-0.5228016,-6.5008394E-4,-4.5814895E-4,-4.5814895E-4,-5.345071E-4,stop
0.10689945,-0.44063124,0.0075395405,-0.0010690142,1.5271631E-4,-0.0023671028,stop
0.10689945,-0.44063124,0.0075395405,-0.0010690142,1.5271631E-4,-0.0023671028,stop
0.102728434,-0.3732825,0.02433998,-0.0010690142,0.0025961774,-0.0011453723,stop
0.102728434,-0.3732825,0.02433998,-0.0010690142,0.0025961774,-0.0011453723,stop
0.09364758,-0.3128763,0.035164926,1.5271631E-4,-0.0010690142,-0.0017562376,stop
0.09364758,-0.3128763,0.035164926,1.5271631E-4,-0.0010690142,-0.0017562376,stop
0.08634161,-0.26172665,0.05058964,7.6358154E-4,-0.0022907446,-5.345071E-4,stop
0.08634161,-0.26172665,0.05058964,7.6358154E-4,-0.0022907446,-5.345071E-4,stop
0.07825938,-0.21980795,0.058672175,1.5271631E-4,1.5271631E-4,-0.0011453723,stop
0.07825938,-0.21980795,0.058672175,1.5271631E-4,1.5271631E-4,-0.0011453723,stop
0.069502555,-0.18273771,0.06382595,7.6358154E-4,-0.0010690142,-5.345071E-4,stop
0.069502555,-0.18273771,0.06382595,7.6358154E-4,-0.0010690142,-5.345071E-4,stop
0.06359833,-0.15283847,0.06454194,7.6358154E-4,0.0013744468,-5.345071E-4,stop
0.06359833,-0.15283847,0.06454194,7.6358154E-4,0.0013744468,-5.345071E-4,stop
0.06063433,-0.12905519,0.06993781,1.5271631E-4,-4.5814895E-4,-0.0011453723,stop
0.06063433,-0.12905519,0.06993781,1.5271631E-4,-4.5814895E-4,-0.0011453723,stop
0.05187753,-0.1063691,0.075640924,0.0013744468,0.0032070426,-0.0011453723,stop
0.05187753,-0.1063691,0.075640924,0.0013744468,0.0032070426,-0.0011453723,stop
0.047700077,-0.0863206,0.08039988,1.5271631E-4,0.001985312,-5.345071E-4,stop
0.047700077,-0.0863206,0.08039988,1.5271631E-4,0.001985312,-5.345071E-4,stop
0.039369028,-0.07015871,0.08317517,1.5271631E-4,1.5271631E-4,-0.0011453723,stop
0.039369028,-0.07015871,0.08317517,1.5271631E-4,1.5271631E-4,-0.0011453723,stop
0.032033354,-0.056878887,0.08948365,1.5271631E-4,0.001985312,-0.0011453723,stop
0.032033354,-0.056878887,0.08948365,1.5271631E-4,0.001985312,-0.0011453723,stop
0.028077858,-0.044402495,0.09314792,1.5271631E-4,-0.0035124752,-0.0011453723,stop
0.028077858,-0.044402495,0.09314792,1.5271631E-4,-0.0035124752,-0.0011453723,stop
0.020847328,-0.03615076,0.091418006,-4.5814895E-4,-0.0022907446,-5.345071E-4,stop
0.020847328,-0.03615076,0.091418006,-4.5814895E-4,-0.0022907446,-5.345071E-4,stop
0.019911848,-0.028933438,0.091573976,1.5271631E-4,1.5271631E-4,-5.345071E-4,stop
0.019911848,-0.028933438,0.091573976,1.5271631E-4,1.5271631E-4,-5.345071E-4,stop
0.01706051,-0.022701737,0.09170506,7.6358154E-4,7.6358154E-4,-0.0011453723,stop
0.01706051,-0.022701737,0.09170506,7.6358154E-4,7.6358154E-4,-0.0011453723,stop
0.013401579,-0.019245433,0.093810655,-0.0010690142,-0.0035124752,-0.0011453723,stop
0.013401579,-0.019245433,0.093810655,-0.0010690142,-0.0035124752,-0.0011453723,stop
0.012234617,-0.015552078,0.095966026,-4.5814895E-4,-0.00290161,-0.0017562376,stop
0.012234617,-0.015552078,0.095966026,-4.5814895E-4,-0.00290161,-0.0017562376,stop
0.010392135,-0.012470605,0.09816239,-4.5814895E-4,-4.5814895E-4,6.872234E-4,stop
0.010392135,-0.012470605,0.09816239,-4.5814895E-4,-4.5814895E-4,6.872234E-4,stop
0.010357966,-0.008308734,0.09839783,1.5271631E-4,7.6358154E-4,-0.0011453723,stop
0.010357966,-0.008308734,0.09839783,1.5271631E-4,7.6358154E-4,-0.0011453723,stop
0.009922121,-0.0065136706,0.10019033,1.5271631E-4,0.0013744468,-0.0011453723,stop
0.009922121,-0.0065136706,0.10019033,1.5271631E-4,0.0013744468,-0.0011453723,stop
0.007981261,-0.0046241046,0.0964964,1.5271631E-4,7.6358154E-4,-0.0011453723,stop
0.007981261,-0.0046241046,0.0964964,1.5271631E-4,7.6358154E-4,-0.0011453723,stop
0.007178448,-0.003842832,0.09621112,1.5271631E-4,-4.5814895E-4,-0.0011453723,stop
0.007178448,-0.003842832,0.09621112,1.5271631E-4,-4.5814895E-4,-0.0011453723,stop
0.006171608,-8.4219535E-4,0.094775416,-4.5814895E-4,-0.0016798794,-5.345071E-4,stop
0.006171608,-8.4219535E-4,0.094775416,-4.5814895E-4,-0.0016798794,-5.345071E-4,stop
0.0052787657,8.7181514E-5,0.09637295,1.5271631E-4,-0.0010690142,7.6358156E-5,stop
0.0052787657,8.7181514E-5,0.09637295,1.5271631E-4,-0.0010690142,7.6358156E-5,stop
0.0041584596,-0.0036063318,0.09730495,-4.5814895E-4,-4.5814895E-4,-0.0011453723,stop
0.0041584596,-0.0036063318,0.09730495,-4.5814895E-4,-4.5814895E-4,-0.0011453723,stop
0.0028394223,-0.0014933337,0.099278316,1.5271631E-4,7.6358154E-4,-5.345071E-4,stop
0.0028394223,-0.0014933337,0.099278316,1.5271631E-4,7.6358154E-4,-5.345071E-4,stop
0.0061674467,-0.0013439109,0.09932618,-4.5814895E-4,7.6358154E-4,7.6358156E-5,stop
0.0061674467,-0.0013439109,0.09932618,-4.5814895E-4,7.6358154E-4,7.6358156E-5,stop
0.0053087166,-0.0016137669,0.0993667,-4.5814895E-4,7.6358154E-4,7.6358156E-5,stop
0.0053087166,-0.0016137669,0.0993667,-4.5814895E-4,7.6358154E-4,7.6358156E-5,stop
0.004062379,6.055245E-4,0.10099851,7.6358154E-4,7.6358154E-4,7.6358156E-5,stop
0.004062379,6.055245E-4,0.10099851,7.6358154E-4,7.6358154E-4,7.6358156E-5,stop
0.0025529044,-3.694376E-4,0.103955604,-4.5814895E-4,1.5271631E-4,-5.345071E-4,stop
0.0025529044,-3.694376E-4,0.103955604,-4.5814895E-4,1.5271631E-4,-5.345071E-4,stop
0.0015910009,0.0012348933,0.10322932,0.0013744468,7.6358154E-4,-0.0011453723,stop
0.0015910009,0.0012348933,0.10322932,0.0013744468,7.6358154E-4,-0.0011453723,stop
0.0012127119,9.5025793E-4,0.10102748,-4.5814895E-4,-4.5814895E-4,-5.345071E-4,stop
0.0012127119,9.5025793E-4,0.10102748,-4.5814895E-4,-4.5814895E-4,-5.345071E-4,stop
1.0772449E-4,-3.3510933E-4,0.101586655,-4.5814895E-4,-0.0016798794,-5.345071E-4,stop
1.0772449E-4,-3.3510933E-4,0.101586655,-4.5814895E-4,-0.0016798794,-5.345071E-4,stop
-4.5822724E-4,0.0010044087,0.102452375,1.5271631E-4,-0.0016798794,7.6358156E-5,stop
-4.5822724E-4,0.0010044087,0.102452375,1.5271631E-4,-0.0016798794,7.6358156E-5,stop
0.0022999481,0.0025544064,0.102774225,-4.5814895E-4,-0.0010690142,-5.345071E-4,stop
0.0022999481,0.0025544064,0.102774225,-4.5814895E-4,-0.0010690142,-5.345071E-4,stop
0.0010016873,0.005435715,0.105436794,1.5271631E-4,0.001985312,7.6358156E-5,stop
0.0010016873,0.005435715,0.105436794,1.5271631E-4,0.001985312,7.6358156E-5,stop
0.0014471075,0.0024963135,0.106060416,1.5271631E-4,0.001985312,7.6358156E-5,stop
0.0014471075,0.0024963135,0.106060416,1.5271631E-4,0.001985312,7.6358156E-5,stop
6.677402E-4,0.0028247237,0.10697858,1.5271631E-4,0.001985312,7.6358156E-5,stop
6.677402E-4,0.0028247237,0.10697858,1.5271631E-4,-0.0041233404,-0.0023671028,stop
0.0023231988,0.0026218886,0.10614886,1.5271631E-4,-4.5814895E-4,-5.345071E-4,stop
0.0023231988,0.0026218886,0.10614886,1.5271631E-4,-4.5814895E-4,-5.345071E-4,stop
0.002122137,0.004424971,0.10625533,1.5271631E-4,0.0032070426,-5.345071E-4,stop
0.002122137,0.004424971,0.10625533,1.5271631E-4,0.0032070426,-5.345071E-4,stop
4.4780222E-4,0.0026285239,0.10514545,7.6358154E-4,0.0038179078,-5.345071E-4,stop
4.4780222E-4,0.0026285239,0.10514545,7.6358154E-4,0.0038179078,-5.345071E-4,stop
3.7586314E-4,0.0010969194,0.10342057,0.0013744468,0.001985312,-0.0011453723,stop
3.7586314E-4,0.0010969194,0.10342057,0.0013744468,0.001985312,-0.0011453723,stop
-0.0021172247,-9.397665E-4,0.10278187,0.0025961774,0.0038179078,-0.0017562376,stop
-0.0021172247,-9.397665E-4,0.10278187,0.0025961774,0.0038179078,-0.0017562376,stop
-7.796901E-4,-9.391795E-4,0.102246284,0.0013744468,0.0056505036,7.6358156E-5,stop
-7.796901E-4,-9.391795E-4,0.102246284,0.0013744468,0.0056505036,7.6358156E-5,stop
5.133187E-4,-0.0049856026,0.10379251,0.0032070426,0.007483099,-0.0011453723,stop
5.133187E-4,-0.0049856026,0.10379251,0.0032070426,0.007483099,-0.0011453723,stop
0.016970066,-0.14951164,0.10427962,0.0038179078,0.011759156,0.010461068,stop
0.016970066,-0.14951164,0.10427962,0.0038179078,0.011759156,0.010461068,stop
0.16256014,-0.64198595,0.10353749,0.0032070426,0.016646078,0.16745344,stop
0.16256014,-0.64198595,0.10353749,0.0032070426,0.016646078,0.16745344,stop
0.38772738,-0.9602776,0.10211557,0.001985312,0.008093964,0.106977776,stop
0.38772738,-0.9602776,0.10211557,0.001985312,0.008093964,0.106977776,stop
0.5537337,-1.212671,0.10572349,1.5271631E-4,-0.0071776668,-0.2607631,stop
0.5537337,-1.212671,0.10572349,1.5271631E-4,-0.0071776668,-0.2607631,stop
0.49131218,-1.5634317,0.09637015,-0.0016798794,0.0038179078,-0.4366923,stop
0.49131218,-1.5634317,0.09637015,-0.0016798794,0.0038179078,-0.4366923,stop
0.49131218,-1.5634317,0.09637015,0.010537425,-0.04138612,-0.061010167,stop
0.43869832,-1.8551952,0.0885889,0.010537425,-0.04138612,-0.061010167,stop
0.442201,-2.139613,0.05179786,0.001985312,0.012980887,0.11980595,stop
0.442201,-2.139613,0.05179786,0.001985312,0.012980887,0.11980595,stop
0.44453254,-2.3756695,0.021156147,0.004428773,-0.0096211275,0.05749769,stop
0.44453254,-2.3756695,0.021156147,0.004428773,-0.0096211275,0.05749769,stop
0.44453254,-2.3756695,0.021156147,0.010537425,0.00992656,0.054443367,stop
0.31856427,-2.463603,-0.20987175,0.010537425,0.00992656,0.054443367,stop
0.23009491,-2.5603852,-0.10185661,0.001985312,-0.0041233404,0.21815525,stop
0.23009491,-2.5603852,-0.10185661,0.001985312,-0.0041233404,0.21815525,stop
0.21427278,-2.4032724,-0.13394134,0.011759156,0.058184914,0.26274842,stop
0.21427278,-2.4032724,-0.13394134,0.011759156,0.058184914,0.26274842,stop
0.081985556,-2.2162206,-0.12636556,0.03191771,0.0954477,0.20593795,stop
0.081985556,-2.2162206,-0.12636556,0.03191771,0.0954477,0.20593795,stop
0.0029200057,-2.343457,-0.09213311,0.0062613687,0.014813482,0.3140611,stop
0.0029200057,-2.343457,-0.09213311,0.0062613687,0.014813482,0.3140611,stop
0.0029200057,-2.343457,-0.09213311,-0.007788532,0.011759156,0.41485387,stop
-0.11157476,-2.2290757,-0.14061719,-0.007788532,0.011759156,0.41485387,stop
-0.11157476,-2.2290757,-0.14061719,0.04046982,0.047800206,0.24625506,stop
-0.124166176,-2.057842,-0.28194302,0.04046982,0.047800206,0.24625506,stop
-0.19468577,-1.4605417,0.3376512,-0.021227567,-0.03772093,0.13019066,stop
-0.19468577,-1.4605417,0.3376512,-0.021227567,-0.03772093,0.13019066,stop
-0.45513436,-0.41294158,1.6106349,0.013591751,0.06795876,0.20288362,stop
-0.45513436,-0.41294158,1.6106349,0.013591751,0.06795876,0.20288362,stop
-0.62770444,-0.79323477,0.8793389,0.039858956,0.063682705,0.5449681,stop
-0.62770444,-0.79323477,0.8793389,0.039858956,0.063682705,0.5449681,stop
-0.62770444,-0.79323477,0.8793389,0.0013744468,0.028252518,0.7868708,stop
-0.51104957,-0.8394308,0.5512238,0.0013744468,0.028252518,0.7868708,stop
-0.2592288,-0.61907554,0.42502677,-0.00290161,0.012980887,0.5480225,stop
-0.2592288,-0.61907554,0.42502677,-0.00290161,0.012980887,0.5480225,stop
-0.080748715,-0.2079338,0.25082245,-0.01817324,-0.0071776668,0.23098342,stop
-0.080748715,-0.2079338,0.25082245,-0.01817324,-0.0071776668,0.23098342,stop
-0.017301282,-0.07741989,0.52184516,0.010537425,7.6358154E-4,0.10453431,stop
-0.017301282,-0.07741989,0.52184516,0.010537425,7.6358154E-4,0.10453431,stop
-0.16618833,0.21958622,0.48312342,-4.5814895E-4,-0.0096211275,0.10942124,stop
-0.16618833,0.21958622,0.48312342,-4.5814895E-4,-0.0096211275,0.10942124,stop
-0.16618833,0.21958622,0.48312342,-0.012064588,-0.012064588,0.19494237,stop
-0.28569284,0.30192256,0.51669395,-0.012064588,-0.012064588,0.19494237,stop
-0.2625106,0.38805377,0.5446762,0.004428773,-0.008399397,0.33544138,stop
-0.2625106,0.38805377,0.5446762,0.004428773,-0.008399397,0.33544138,stop
-0.24320292,0.45933586,0.5679882,0.0038179078,0.021533,0.4405102,stop
-0.24320292,0.45933586,0.5679882,0.0038179078,0.021533,0.4405102,stop
-0.21420859,0.6871329,0.32604027,-0.0022907446,0.06490443,0.44112107,stop
-0.21420859,0.6871329,0.32604027,-0.0022907446,0.06490443,0.44112107,stop
-0.0144195855,0.62039477,0.06773727,1.5271631E-4,-0.031001411,0.35193473,stop
-0.0144195855,0.62039477,0.06773727,1.5271631E-4,-0.031001411,0.35193473,stop
0.15078533,0.56459713,-0.14749998,0.00870483,-0.03283401,0.11797335,stop
0.15078533,0.56459713,-0.14749998,0.00870483,-0.03283401,0.11797335,stop
-0.047144018,0.7721084,-0.14290582,0.0050396384,0.037415497,0.07032586,stop
-0.047144018,0.7721084,-0.14290582,0.0050396384,0.037415497,0.07032586,stop
-0.15226546,0.6596904,-0.111167125,0.004428773,-0.015118915,0.34399348,stop
-0.15226546,0.6596904,-0.111167125,0.004428773,-0.015118915,0.34399348,stop
0.031755034,0.63159376,-0.09749442,-0.013286319,-0.025503624,0.46738827,stop
0.031755034,0.63159376,-0.09749442,-0.013286319,-0.025503624,0.46738827,stop
0.13130365,0.6782248,-0.41208643,-0.045662176,0.23167065,0.111253835,stop
0.13130365,0.6782248,-0.41208643,-0.045662176,0.23167065,0.111253835,stop
0.13130365,0.6782248,-0.41208643,0.018478673,-0.022449298,0.15523612,stop
0.16328609,0.65654117,-0.26369438,0.018478673,-0.022449298,0.15523612,stop
0.15336458,0.6661582,-0.2573552,0.02397646,0.0154243475,0.43928847,stop
0.15336458,0.6661582,-0.2573552,0.02397646,0.0154243475,0.43928847,stop
0.18670578,0.87346333,-0.23133175,-0.0047342055,0.001985312,0.5070945,stop
0.18670578,0.87346333,-0.23133175,-0.0047342055,0.001985312,0.5070945,stop
0.28187752,0.94744456,-0.15657593,0.0154243475,-0.030390546,0.30856332,stop
0.28187752,0.94744456,-0.15657593,0.0154243475,-0.030390546,0.30856332,stop
0.2648268,1.0622796,-0.18246695,0.011759156,-0.031001411,0.20288362,stop
0.2648268,1.0622796,-0.18246695,0.011759156,-0.031001411,0.20288362,stop
0.2648268,1.0622796,-0.18246695,0.001985312,0.027030786,0.30795243,stop
0.25524062,1.3762395,-0.14097808,0.001985312,0.027030786,0.30795243,stop
0.28414723,1.6513093,-0.12158078,0.001985312,0.027030786,0.30795243,stop
0.28414723,1.6513093,-0.12158078,-0.010231993,0.012980887,0.25663975,stop
0.21124418,1.7086937,-0.0687077,-0.0065668016,-0.0071776668,0.07765625,stop
0.21124418,1.7086937,-0.0687077,-0.0065668016,-0.0071776668,0.07765625,stop
0.09365187,1.9169704,-0.042614494,-0.00290161,-0.0065668016,0.086819224,stop
0.09365187,1.9169704,-0.042614494,-0.00290161,-0.0065668016,0.086819224,stop
-0.5455376,1.8836238,0.021427523,0.00870483,0.0056505036,-0.45807257,stop
-0.5455376,1.8836238,0.021427523,0.00870483,0.0056505036,-0.45807257,stop
-0.46796802,1.5605235,0.0632003,1.5271631E-4,-0.00290161,-0.012751812,stop
-0.46796802,1.5605235,0.0632003,1.5271631E-4,-0.00290161,-0.012751812,stop
-0.38888523,1.3170459,0.0740626,-4.5814895E-4,-0.0022907446,-0.0035888334,stop
-0.38888523,1.3170459,0.0740626,-4.5814895E-4,-0.0022907446,-0.0035888334,stop
-0.3205784,1.112976,0.08311086,1.5271631E-4,-0.0041233404,-0.0048105638,stop
-0.3205784,1.112976,0.08311086,1.5271631E-4,-0.0041233404,-0.0048105638,stop
-0.26099837,0.9398581,0.089852534,-0.0016798794,-0.010231993,-0.008475755,stop
-0.26099837,0.9398581,0.089852534,-0.0016798794,-0.010231993,-0.008475755,stop
-0.21920277,0.7966531,0.094275646,-0.0022907446,-0.012064588,-0.008475755,stop
-0.21920277,0.7966531,0.094275646,-0.0022907446,-0.012064588,-0.008475755,stop
-0.18470138,0.66605604,0.09636893,-0.0022907446,-0.008399397,-0.0041996986,stop
-0.18470138,0.66605604,0.09636893,-0.0022907446,-0.008399397,-0.0041996986,stop
-0.15377066,0.56077623,0.10051008,-0.0016798794,-0.0041233404,-0.0011453723,stop
-0.15377066,0.56077623,0.10051008,-0.0016798794,-0.0041233404,-0.0011453723,stop
-0.13084917,0.4813722,0.103961356,1.5271631E-4,0.0013744468,-0.0017562376,stop
-0.13084917,0.4813722,0.103961356,1.5271631E-4,0.0013744468,-0.0017562376,stop
-0.10728966,0.41592664,0.103244446,0.0013744468,0.0032070426,-0.0017562376,stop
-0.10728966,0.41592664,0.103244446,0.0013744468,0.0032070426,-0.0017562376,stop
-0.0875342,0.36368242,0.105836906,7.6358154E-4,0.0056505036,-5.345071E-4,stop
-0.0875342,0.36368242,0.105836906,7.6358154E-4,0.0056505036,-5.345071E-4,stop
-0.07069288,0.31657296,0.10198851,7.6358154E-4,0.0062613687,-5.345071E-4,stop
-0.07069288,0.31657296,0.10198851,7.6358154E-4,0.0062613687,-5.345071E-4,stop
-0.053556427,0.27131245,0.10314536,7.6358154E-4,0.0013744468,6.872234E-4,stop
-0.053556427,0.27131245,0.10314536,7.6358154E-4,0.0013744468,6.872234E-4,stop
-0.04299057,0.23118639,0.10489921,1.5271631E-4,-0.0010690142,-0.0011453723,stop
-0.04299057,0.23118639,0.10489921,1.5271631E-4,-0.0010690142,-0.0011453723,stop
-0.033264164,0.1937444,0.10077317,-4.5814895E-4,-0.0047342055,-5.345071E-4,stop
-0.033264164,0.1937444,0.10077317,-4.5814895E-4,-0.0047342055,-5.345071E-4,stop
-0.028402584,0.16349317,0.099732816,-4.5814895E-4,0.0013744468,-0.0011453723,stop
-0.028402584,0.16349317,0.099732816,-4.5814895E-4,0.0013744468,-0.0011453723,stop
-0.020515425,0.1371601,0.10485223,-0.0010690142,-0.0041233404,-5.345071E-4,stop
-0.020515425,0.1371601,0.10485223,-0.0010690142,-0.0041233404,-5.345071E-4,stop
-0.012152808,0.11197715,0.1075245,-4.5814895E-4,-0.0016798794,-5.345071E-4,stop
-0.012152808,0.11197715,0.1075245,-4.5814895E-4,-0.0016798794,-5.345071E-4,stop
-0.0072886907,0.09237669,0.10576233,0.001985312,0.007483099,-0.0017562376,stop
-0.0072886907,0.09237669,0.10576233,0.001985312,0.007483099,-0.0017562376,stop
-0.0065980796,0.07908839,0.10190188,-0.0016798794,-0.0096211275,7.6358156E-5,stop
-0.0065980796,0.07908839,0.10190188,-0.0016798794,-0.0096211275,7.6358156E-5,stop
-0.0035801283,0.06515171,0.10387696,-0.0010690142,-0.0047342055,-0.0011453723,stop
-0.0035801283,0.06515171,0.10387696,-0.0010690142,-0.0047342055,-0.0011453723,stop
-8.954797E-4,0.054619677,0.10392975,-0.0022907446,-0.0016798794,-5.345071E-4,stop
-8.954797E-4,0.054619677,0.10392975,-0.0022907446,-0.0016798794,-5.345071E-4,stop
0.0031468568,0.045354642,0.10477435,-4.5814895E-4,-0.0010690142,7.6358156E-5,stop
0.0031468568,0.045354642,0.10477435,-4.5814895E-4,-0.0010690142,7.6358156E-5,stop
0.0042609023,0.036401547,0.10588095,-4.5814895E-4,-0.0010690142,7.6358156E-5,stop
0.0042609023,0.036401547,0.10588095,-4.5814895E-4,-0.0010690142,7.6358156E-5,stop
0.0030026573,0.033383194,0.105209686,1.5271631E-4,-0.0010690142,-0.0011453723,stop
0.0030026573,0.033383194,0.105209686,1.5271631E-4,-0.0010690142,-0.0011453723,stop
0.0026432765,0.030439492,0.10744505,1.5271631E-4,-4.5814895E-4,-0.0011453723,stop
0.0026432765,0.030439492,0.10744505,1.5271631E-4,-4.5814895E-4,-0.0011453723,stop
-8.7061926E-4,0.025976049,0.10771202,1.5271631E-4,-0.0010690142,-5.345071E-4,stop
-8.7061926E-4,0.025976049,0.10771202,1.5271631E-4,-0.0010690142,-5.345071E-4,stop
-0.0010073492,0.020185295,0.107535556,-0.0010690142,1.5271631E-4,7.6358156E-5,stop
-0.0010073492,0.020185295,0.107535556,-0.0010690142,1.5271631E-4,7.6358156E-5,stop
-0.0027100127,0.018169349,0.10619116,-4.5814895E-4,1.5271631E-4,-5.345071E-4,stop
-0.0027100127,0.018169349,0.10619116,-4.5814895E-4,1.5271631E-4,-5.345071E-4,stop
6.748229E-4,0.015705891,0.103873655,-4.5814895E-4,-4.5814895E-4,7.6358156E-5,stop
6.748229E-4,0.015705891,0.103873655,-4.5814895E-4,-4.5814895E-4,7.6358156E-5,stop
2.9185164E-4,0.0128601445,0.10473571,-4.5814895E-4,7.6358154E-4,-5.345071E-4,stop
2.9185164E-4,0.0128601445,0.10473571,-4.5814895E-4,7.6358154E-4,-5.345071E-4,stop
-8.87781E-4,0.010835778,0.10824835,1.5271631E-4,-4.5814895E-4,-5.345071E-4,stop
-8.87781E-4,0.010835778,0.10824835,1.5271631E-4,-4.5814895E-4,-5.345071E-4,stop
-0.0014225515,0.007885895,0.10838145,-4.5814895E-4,-0.0010690142,-5.345071E-4,stop
-0.0014225515,0.007885895,0.10838145,-4.5814895E-4,-0.0010690142,-5.345071E-4,stop
-0.0042945324,0.0066392715,0.10889179,-4.5814895E-4,1.5271631E-4,-0.0017562376,stop
-0.0042945324,0.0066392715,0.10889179,-4.5814895E-4,1.5271631E-4,-0.0017562376,stop
-0.0042974674,0.004017617,0.10812006,1.5271631E-4,1.5271631E-4,-5.345071E-4,stop
-0.0042974674,0.004017617,0.10812006,1.5271631E-4,1.5271631E-4,-5.345071E-4,stop
-0.005092779,0.0022166697,0.10627993,1.5271631E-4,1.5271631E-4,-0.0011453723,stop
-0.005092779,0.0022166697,0.10627993,1.5271631E-4,1.5271631E-4,-0.0011453723,stop
-0.004154864,7.108663E-4,0.107140526,1.5271631E-4,-4.5814895E-4,-5.345071E-4,stop
-0.004154864,7.108663E-4,0.107140526,1.5271631E-4,-4.5814895E-4,-5.345071E-4,stop
2.1457193E-4,2.5995352E-4,0.10586261,7.6358154E-4,7.6358154E-4,7.6358156E-5,stop
2.1457193E-4,2.5995352E-4,0.10586261,7.6358154E-4,7.6358154E-4,7.6358156E-5,stop
2.1453052E-4,-0.0012723497,0.10519742,1.5271631E-4,-4.5814895E-4,-5.345071E-4,stop
2.1453052E-4,-0.0012723497,0.10519742,1.5271631E-4,-4.5814895E-4,-5.345071E-4,stop
-0.002619516,-0.003278525,0.10544196,1.5271631E-4,-4.5814895E-4,-5.345071E-4,stop
-0.002619516,-0.003278525,0.10544196,1.5271631E-4,-4.5814895E-4,-5.345071E-4,stop
0.0010436457,-0.0035765755,0.105645105,1.5271631E-4,-4.5814895E-4,-5.345071E-4,stop
0.0010436457,-0.0035765755,0.105645105,1.5271631E-4,-4.5814895E-4,-5.345071E-4,stop
-0.014756549,-0.009291686,-0.043821555,1.5271631E-4,1.5271631E-4,6.872234E-4,stop
-0.014756549,-0.009291686,-0.043821555,1.5271631E-4,1.5271631E-4,6.872234E-4,stop
-0.014756549,-0.009291686,-0.043821555,-0.0010690142,-0.0096211275,-5.345071E-4,stop
-0.008996045,-0.0077699004,-0.031106178,-0.0010690142,-0.0096211275,-5.345071E-4,stop
-0.0060722604,-0.006358753,-0.009737485,-0.0010690142,-0.0096211275,-5.345071E-4,stop
-0.0060722604,-0.006358753,-0.009737485,-0.0010690142,0.0032070426,-5.345071E-4,stop
-0.005430044,-0.0067469403,-0.0011111043,7.6358154E-4,7.6358154E-4,-0.0011453723,stop
-0.005430044,-0.0067469403,-0.0011111043,7.6358154E-4,7.6358154E-4,-0.0011453723,stop
