accX,accY,accZ,angleX,angleY,angleZ,label
0.6307368,-1.3755231,-1.5823193,0.017944166,-0.09277516,-0.37232238,move
0.6307368,-1.3755231,-1.5823193,0.017944166,-0.09277516,-0.37232238,move
0.040932022,-1.6247149,-1.6470542,0.045433104,-0.2467132,-0.36132678,move
0.040932022,-1.6247149,-1.6470542,0.045433104,-0.2467132,-0.36132678,move
-0.043313652,-1.4650469,-1.2951941,0.10102184,-0.40248385,-0.27275133,move
-0.043313652,-1.4650469,-1.2951941,0.10102184,-0.40248385,-0.27275133,move
0.49761987,-1.1428227,-0.8871503,0.123623855,-0.2729804,-0.1853976,move
0.49761987,-1.1428227,-0.8871503,0.123623855,-0.2729804,-0.1853976,move
0.6732196,-0.48698854,-1.0930467,0.17738,0.0031306844,-0.183565,move
0.6732196,-0.48698854,-1.0930467,0.17738,0.0031306844,-0.183565,move
0.53914547,-0.11416149,-2.046153,0.27206412,0.083764896,-0.26297748,move
0.53914547,-0.11416149,-2.046153,0.27206412,0.083764896,-0.26297748,move
-0.35872108,-0.26691628,-2.5152793,0.24457517,-0.024358252,-0.30573806,move
-0.35872108,-0.26691628,-2.5152793,0.24457517,-0.024358252,-0.30573806,move
-0.49107587,-0.15037966,-1.7604685,0.1651627,-0.24732406,-0.20005837,move
-0.49107587,-0.15037966,-1.7604685,0.1651627,-0.24732406,-0.20005837,move
-0.14605771,0.07952452,-0.86281633,0.08269588,-0.24610233,-0.093767814,move
-0.14605771,0.07952452,-0.86281633,0.08269588,-0.24610233,-0.093767814,move
0.17622985,0.40324116,0.12900877,0.003894266,-0.08788824,-0.0290161,move
0.17622985,0.40324116,0.12900877,0.003894266,-0.08788824,-0.0290161,move
0.093978554,0.61384535,0.22696877,0.06742425,0.064828075,-0.03145956,move
0.093978554,0.61384535,0.22696877,0.06742425,0.064828075,-0.03145956,move
-0.34092593,0.79246855,0.44003725,0.145615,0.025121834,-0.013744468,move
-0.34092593,0.79246855,0.44003725,0.145615,0.025121834,-0.013744468,move
-0.7624524,0.6380048,1.269803,0.25434902,-0.156916,0.056505036,move
-0.7624524,0.6380048,1.269803,0.25434902,-0.156916,0.056505036,move
-0.8003248,0.5115571,1.9261866,0.39790234,-0.13553573,0.20738874,move
-0.8003248,0.5115571,1.9261866,0.39790234,-0.13553573,0.20738874,move
-0.3667504,0.81820965,1.7012768,0.43516514,0.07032586,0.38820487,move
-0.3667504,0.81820965,1.7012768,0.43516514,0.07032586,0.38820487,move
-0.3849433,2.185504,1.0729733,0.37957639,0.26091582,0.4560109,move
-0.3849433,2.185504,1.0729733,0.37957639,0.26091582,0.4560109,move
0.22985214,2.444037,-0.49698687,0.24701864,0.35498905,0.4382958,move
0.22985214,2.444037,-0.49698687,0.24701864,0.35498905,0.4382958,move
0.31075904,2.5927505,-0.8330865,-0.037033707,0.07032586,0.29352075,move
0.31075904,2.5927505,-0.8330865,-0.037033707,0.07032586,0.29352075,move
0.57896864,1.646977,0.06293821,-0.3852269,-0.15935947,0.1133155,move
0.57896864,1.646977,0.06293821,-0.3852269,-0.15935947,0.1133155,move
0.37030953,-0.029946327,2.017828,-0.706542,-0.25098926,-0.057726767,move
0.37030953,-0.029946327,2.017828,-0.706542,-0.25098926,-0.057726767,move
-0.5803724,-1.3078775,3.644549,-0.7877871,-0.0066431593,-0.05100725,move
-0.5803724,-1.3078775,3.644549,-0.7877871,-0.0066431593,-0.05100725,move
-1.3802845,-1.1991291,2.4698434,-0.57092994,0.5932265,0.17256944,move
-1.3802845,-1.1991291,2.4698434,-0.57092994,0.5932265,0.17256944,move
-0.8162141,-0.79145145,-0.83221245,-0.31070134,0.87422454,0.38331795,move
-0.8162141,-0.79145145,-0.83221245,-0.31070134,0.87422454,0.38331795,move
-0.69448507,-0.5778618,-1.8276091,-0.31742084,0.541303,0.41386122,move
-0.69448507,-0.5778618,-1.8276091,-0.31742084,0.541303,0.41386122,move
-0.87220573,-0.8699751,-1.4858913,-0.35407278,0.07032586,0.3930918,move
-0.87220573,-0.8699751,-1.4858913,-0.35407278,0.07032586,0.3930918,move
-0.6638149,-1.2796774,-0.7261338,-0.4285983,-0.13125966,0.4456262,move
-0.6638149,-1.2796774,-0.7261338,-0.4285983,-0.13125966,0.4456262,move
0.005748771,-1.3013415,0.16114378,-0.46525025,-0.09582949,0.50610185,move
0.005748771,-1.3013415,0.16114378,-0.46525025,-0.09582949,0.50610185,move
0.60926586,-1.1310406,0.28162003,-0.46525025,-0.09582949,0.50610185,move
0.60926586,-1.1310406,0.28162003,-0.37789652,0.12713633,0.48166725,move
0.46909577,-1.0465875,-0.541646,-0.16042848,0.3458261,0.33505958,move
0.46909577,-1.0465875,-0.541646,-0.16042848,0.3458261,0.33505958,move
0.22956835,-0.9293771,-1.2558541,-0.055970527,0.32505667,0.28069258,move
0.22956835,-0.9293771,-1.2558541,-0.055970527,0.32505667,0.28069258,move
-0.06522387,-0.59201765,-1.4532013,0.016722437,0.2364812,0.22082779,move
-0.06522387,-0.59201765,-1.4532013,0.016722437,0.2364812,0.22082779,move
-0.16755612,-0.4244585,-1.4758043,0.07047858,0.19066632,0.18967366,move
-0.16755612,-0.4244585,-1.4758043,0.07047858,0.19066632,0.18967366,move
-0.18556525,-0.22016573,-0.9952698,0.100410976,0.17295122,0.14874569,move
-0.18556525,-0.22016573,-0.9952698,0.100410976,0.17295122,0.14874569,move
-0.3322434,-0.15888834,-0.6698818,0.16210836,0.13935363,0.09560041,move
-0.3322434,-0.15888834,-0.6698818,0.16210836,0.13935363,0.09560041,move
-0.39408702,-0.15261936,-0.52581024,0.2213623,0.031230485,0.08827003,move
-0.39408702,-0.15261936,-0.52581024,0.2213623,0.031230485,0.08827003,move
0.2302312,-0.0010056496,0.010606289,0.24090998,-0.13309227,0.101098195,move
0.2302312,-0.0010056496,0.010606289,0.24090998,-0.13309227,0.101098195,move
0.731255,0.20561028,1.4719319,0.22502749,-0.19356793,0.016187929,move
0.731255,0.20561028,1.4719319,0.22502749,-0.19356793,0.016187929,move
0.5380369,0.25071383,2.3549523,0.3459788,-0.013362677,-0.086437434,move
0.5380369,0.25071383,2.3549523,0.3459788,-0.013362677,-0.086437434,move
0.21183425,0.33193636,1.1195045,0.5573382,0.12713633,-0.13591751,move
0.21183425,0.33193636,1.1195045,0.5573382,0.12713633,-0.13591751,move
0.1324512,0.46458387,0.48116207,0.5848271,-0.08666651,-0.15363261,move
0.1324512,0.46458387,0.48116207,0.5848271,-0.08666651,-0.15363261,move
0.1182365,0.6235981,0.61146593,0.48036915,-0.20883955,-0.20066923,move
0.1182365,0.6235981,0.61146593,0.48036915,-0.20883955,-0.20066923,move
-0.6241206,1.0849767,0.49080706,0.27634016,-0.1184315,-0.25870144,move
-0.6241206,1.0849767,0.49080706,0.27634016,-0.1184315,-0.25870144,move
-0.27825463,1.1035581,0.08598375,0.020387627,-0.08422305,-0.21471913,move
-0.27825463,1.1035581,0.08598375,0.020387627,-0.08422305,-0.21471913,move
0.015844628,1.2407088,1.1034112,-0.27282768,-0.28031078,-0.20189096,move
0.015844628,1.2407088,1.1034112,-0.27282768,-0.28031078,-0.20189096,move
0.50461715,0.9305544,1.6815801,-0.4621959,-0.39332086,-0.20861048,move
0.50461715,0.9305544,1.6815801,-0.4621959,-0.39332086,-0.20861048,move
0.8720161,0.46122837,2.7101736,-0.6503424,-0.37621662,-0.25686884,move
0.8720161,0.46122837,2.7101736,-0.6503424,-0.37621662,-0.25686884,move
0.6386147,-0.07439709,3.9604692,-0.5953645,-0.06956228,-0.31795537,move
0.6386147,-0.07439709,3.9604692,-0.5953645,-0.06956228,-0.31795537,move
-0.06129355,-0.19051266,2.360983,-0.25022566,0.22059871,-0.26725355,move
-0.06129355,-0.19051266,2.360983,-0.25022566,0.22059871,-0.26725355,move
0.09552199,-0.32011223,-0.14149523,-0.06391177,0.3048981,-0.19028452,move
0.09552199,-0.32011223,-0.14149523,-0.06391177,0.3048981,-0.19028452,move
-0.0024152454,-0.7092929,-1.932128,-0.05047274,0.07765625,-0.13530666,move
-0.0024152454,-0.7092929,-1.932128,-0.05047274,0.07765625,-0.13530666,move
0.7248019,-1.0061102,-1.7816944,-0.20502165,-0.3187953,-0.034513887,move
0.7248019,-1.0061102,-1.7816944,-0.20502165,-0.3187953,-0.034513887,move
1.6286165,-0.9189553,-0.00370121,-0.45058948,-0.25404358,-0.0729984,move
1.6286165,-0.9189553,-0.00370121,-0.45058948,-0.25404358,-0.0729984,move
1.3213497,-1.2704153,0.87540483,-0.41088325,0.040393464,-0.1994475,move
1.3213497,-1.2704153,0.87540483,-0.41088325,0.040393464,-0.1994475,move
0.7279414,-1.6643448,0.24338293,-0.10300715,0.19433151,-0.24953845,move
0.7279414,-1.6643448,0.24338293,-0.10300715,0.19433151,-0.24953845,move
0.6496204,-1.6056948,-1.2388415,0.20486893,0.03306308,-0.19028452,move
0.6496204,-1.6056948,-1.2388415,0.20486893,0.03306308,-0.19028452,move
0.5934633,-1.2708592,-1.6718907,0.3392593,-0.1605812,-0.16707164,move
0.5934633,-1.2708592,-1.6718907,0.3392593,-0.1605812,-0.16707164,move
0.2874667,-1.0584149,-2.2104912,0.38079813,-0.08544478,-0.17867808,move
0.2874667,-1.0584149,-2.2104912,0.38079813,-0.08544478,-0.17867808,move
-0.006344691,-0.6746273,-2.4938736,0.25923595,0.05505423,-0.18845193,move
-0.006344691,-0.6746273,-2.4938736,0.25923595,0.05505423,-0.18845193,move
0.057895727,-0.18655252,-1.8304782,0.083306745,0.12530373,-0.17501289,move
0.057895727,-0.18655252,-1.8304782,0.083306745,0.12530373,-0.17501289,move
-0.010928512,0.11924124,-0.9401574,0.075976364,0.023900103,-0.1994475,move
-0.010928512,0.11924124,-0.9401574,0.075976364,0.023900103,-0.1994475,move
-0.26612538,0.102015495,-0.15392303,0.20486893,-0.14897476,-0.20433442,move
-0.26612538,0.102015495,-0.15392303,0.20486893,-0.14897476,-0.20433442,move
-0.26286343,-0.047112465,0.12576818,0.20486893,-0.14897476,-0.20433442,move
-0.26286343,-0.047112465,0.12576818,0.3355941,-0.24243714,-0.1469131,move
-0.13818318,0.30167818,0.45134735,0.33803755,-0.134314,-0.05222898,move
-0.13818318,0.30167818,0.45134735,0.33803755,-0.134314,-0.05222898,move
-0.11665289,0.48714066,0.21349049,0.3282637,0.13324498,0.006414085,move
-0.11665289,0.48714066,0.21349049,0.3282637,0.13324498,0.006414085,move
-0.26711804,0.63797474,-0.09364128,0.2683989,0.18700112,0.05100725,move
-0.26711804,0.63797474,-0.09364128,0.2683989,0.18700112,0.05100725,move
-0.17297319,0.65964556,1.5856934,0.17738,-0.022525655,0.14630222,move
-0.17297319,0.65964556,1.5856934,0.17738,-0.022525655,0.14630222,move
-0.079025894,0.88814545,3.5199676,0.32215506,-0.14408784,0.2171626,move
-0.079025894,0.88814545,3.5199676,0.32215506,-0.14408784,0.2171626,move
-0.93202305,1.3787322,3.5089011,0.6465245,0.091095276,0.34605515,move
-0.93202305,1.3787322,3.5089011,0.6465245,0.091095276,0.34605515,move
-0.924532,2.1770186,-0.33105803,0.7228827,0.35010216,0.54092115,move
-0.924532,2.1770186,-0.33105803,0.7228827,0.35010216,0.54092115,move
0.38364232,3.0757875,-2.3244915,0.24701864,0.09720393,0.57940567,move
0.38364232,3.0757875,-2.3244915,0.24701864,0.09720393,0.57940567,move
1.6679338,2.7363029,-0.9366474,-0.45303294,-0.2467132,0.30634892,move
1.6679338,2.7363029,-0.9366474,-0.45303294,-0.2467132,0.30634892,move
1.501865,0.8429446,2.9223204,-0.9863183,-0.44035748,-0.098043874,move
1.501865,0.8429446,2.9223204,-0.9863183,-0.44035748,-0.098043874,move
-0.10474106,-1.2748051,5.8038073,-0.9325622,-0.16974418,-0.29352075,move
-0.10474106,-1.2748051,5.8038073,-0.9325622,-0.16974418,-0.29352075,move
-1.7443149,-2.1194506,4.3935633,-0.35040757,0.4527275,-0.04917465,move
-1.7443149,-2.1194506,4.3935633,-0.35040757,0.4527275,-0.04917465,move
-1.2362831,-1.6447835,-0.70587444,0.119347796,0.7770969,0.32895094,move
-1.2362831,-1.6447835,-0.70587444,0.119347796,0.7770969,0.32895094,move
-0.4310754,-0.8171654,-3.338253,-0.011377365,0.46738827,0.44868052,move
-0.4310754,-0.8171654,-3.338253,-0.011377365,0.46738827,0.44868052,move
-0.21227877,-0.8816495,-2.7885866,-0.25938866,-0.106214195,0.34605515,move
-0.21227877,-0.8816495,-2.7885866,-0.25938866,-0.106214195,0.34605515,move
-0.19799161,-1.1929803,-0.5721092,-0.40049854,-0.4263076,0.2556471,move
-0.19799161,-1.1929803,-0.5721092,-0.40049854,-0.4263076,0.2556471,move
-0.2426197,-1.745513,0.41363,-0.28871018,-0.3218496,0.1994475,move
-0.2426197,-1.745513,0.41363,-0.28871018,-0.3218496,0.1994475,move
0.09733179,-1.6737227,-0.44557476,-0.13965906,-0.013362677,0.21105394,move
0.09733179,-1.6737227,-0.44557476,-0.13965906,-0.013362677,0.21105394,move
0.16428909,-1.5650835,-1.4147282,-0.09812023,0.16562083,0.14019357,move
0.16428909,-1.5650835,-1.4147282,-0.09812023,0.16562083,0.14019357,move
-0.2876755,-1.5776734,-1.5720887,-0.09812023,0.16562083,0.14019357,move
-0.2876755,-1.5776734,-1.5720887,-0.08773552,0.16134478,0.056505036,move
-0.73181134,-1.4887705,-1.4824243,0.032604933,0.023900103,0.06627888,move
-0.73181134,-1.4887705,-1.4824243,0.032604933,0.023900103,0.06627888,move
-0.5080743,-1.0236545,-1.676055,0.1614975,0.014737124,0.15057829,move
-0.5080743,-1.0236545,-1.676055,0.1614975,0.014737124,0.15057829,move
-0.27772433,-0.51577187,-1.6728358,0.13950635,0.095371336,0.13103059,move
-0.27772433,-0.51577187,-1.6728358,0.13950635,0.095371336,0.13103059,move
-0.3234582,-0.23083067,-1.3839893,0.12545645,0.11308643,0.060170226,move
-0.3234582,-0.23083067,-1.3839893,0.12545645,0.11308643,0.060170226,move
-0.6732775,-0.26524878,-1.2093906,0.1437824,0.0129045285,-0.0021380284,move
-0.6732775,-0.26524878,-1.2093906,0.1437824,0.0129045285,-0.0021380284,move
-0.45599297,-0.08748388,-0.5044875,0.11140655,-0.13675746,0.022907447,move
-0.45599297,-0.08748388,-0.5044875,0.11140655,-0.13675746,0.022907447,move
-0.0045930296,-0.046034336,0.65429544,0.10224357,-0.24732406,0.008857546,move
-0.0045930296,-0.046034336,0.65429544,0.10224357,-0.24732406,0.008857546,move
0.39683646,0.40684795,1.833036,0.119347796,-0.22777638,-0.025961773,move
0.39683646,0.40684795,1.833036,0.119347796,-0.22777638,-0.025961773,move
0.49933633,0.93100023,2.609353,0.209145,-0.00786489,-0.11209377,move
0.49933633,0.93100023,2.609353,0.209145,-0.00786489,-0.11209377,move
0.17720848,1.0380607,2.0223975,0.33437237,0.07276932,-0.19761491,move
0.17720848,1.0380607,2.0223975,0.33437237,0.07276932,-0.19761491,move
0.15372603,1.1835818,2.2404852,0.36063957,-0.059788436,-0.21655174,move
0.15372603,1.1835818,2.2404852,0.36063957,-0.059788436,-0.21655174,move
-0.22569399,1.8433986,1.2650042,0.32948545,0.10881037,-0.22021692,move
-0.22569399,1.8433986,1.2650042,0.32948545,0.10881037,-0.22021692,move
0.2827515,1.9204626,-0.41224718,0.096134916,0.18150334,-0.20616703,move
0.2827515,1.9204626,-0.41224718,0.096134916,0.18150334,-0.20616703,move
0.59014964,2.1675262,-0.14535427,-0.36018142,-0.09949467,-0.30268374,move
0.59014964,2.1675262,-0.14535427,-0.36018142,-0.09949467,-0.30268374,move
0.6546584,1.2770271,2.097797,-0.8103891,-0.2662609,-0.419359,move
0.6546584,1.2770271,2.097797,-0.8103891,-0.2662609,-0.419359,move
0.6546584,1.2770271,2.097797,-0.8103891,-0.2662609,-0.419359,move
0.9373205,0.032742023,4.0504475,-0.9478338,-0.3114649,-0.47678033,move
0.62582016,-0.44512653,5.340403,-0.76029813,-0.3187953,-0.4578435,move
0.62582016,-0.44512653,5.340403,-0.76029813,-0.3187953,-0.4578435,move
-0.07304208,-1.0118537,4.3669267,-0.27099508,-0.10010554,-0.36254853,move
-0.07304208,-1.0118537,4.3669267,-0.27099508,-0.10010554,-0.36254853,move
-0.027058542,-1.3522387,0.83254766,0.16943875,0.23098342,-0.18295415,move
-0.027058542,-1.3522387,0.83254766,0.16943875,0.23098342,-0.18295415,move
0.1768878,-1.3735886,-2.1783934,0.15661058,0.29573515,-0.04184427,move
0.1768878,-1.3735886,-2.1783934,0.15661058,0.29573515,-0.04184427,move
0.61401725,-1.5342722,-2.2974954,-0.096898496,0.01656972,0.0106901415,move
0.61401725,-1.5342722,-2.2974954,-0.096898496,0.01656972,0.0106901415,move
1.4423269,-1.3473406,-0.91445017,-0.1793653,-0.109268524,0.011301007,move
1.4423269,-1.3473406,-0.91445017,-0.1793653,-0.109268524,0.011301007,move
1.7959825,-1.1680365,-0.83751583,-0.005879578,-0.05917757,-0.14080444,move
1.7959825,-1.1680365,-0.83751583,-0.005879578,-0.05917757,-0.14080444,move
1.2849646,-1.3115535,-1.9735613,0.10713049,-0.04024075,-0.3203988,move
1.2849646,-1.3115535,-1.9735613,0.10713049,-0.04024075,-0.3203988,move
0.32040304,-1.5346584,-2.3060756,0.08819367,-0.074449204,-0.39858958,move
0.32040304,-1.5346584,-2.3060756,0.08819367,-0.074449204,-0.39858958,move
-0.25802,-1.4309797,-2.100154,0.06925685,-0.10560333,-0.34788775,move
-0.25802,-1.4309797,-2.100154,0.06925685,-0.10560333,-0.34788775,move
-0.3499813,-1.1102939,-2.251985,0.07108945,-0.046960264,-0.26175576,move
-0.3499813,-1.1102939,-2.251985,0.07108945,-0.046960264,-0.26175576,move
-0.20455322,-0.49949408,-1.8962522,-0.030925052,-5.345071E-4,-0.21044308,move
-0.20455322,-0.49949408,-1.8962522,-0.030925052,-5.345071E-4,-0.21044308,move
-0.103129625,-0.14816904,-1.1964345,-0.030925052,-5.345071E-4,-0.21044308,move
-0.103129625,-0.14816904,-1.1964345,-0.09934196,0.04772385,-0.21410827,move
-0.21148157,0.02377987,-0.45188236,-0.07735081,0.056886826,-0.23304509,move
-0.21148157,0.02377987,-0.45188236,-0.07735081,0.056886826,-0.23304509,move
-0.5892752,-0.10548067,-0.21932459,0.07964156,0.028176159,-0.20738874,move
-0.5892752,-0.10548067,-0.21932459,0.07964156,0.028176159,-0.20738874,move
-0.58902746,-0.1446352,-0.37899542,0.20609066,-0.04879286,-0.08460484,move
-0.58902746,-0.1446352,-0.37899542,0.20609066,-0.04879286,-0.08460484,move
-0.24934274,0.17742586,0.32204533,0.21281017,-0.09582949,0.06566802,move
-0.24934274,0.17742586,0.32204533,0.21281017,-0.09582949,0.06566802,move
-0.034997553,0.7142658,1.384718,0.2176971,0.046502117,0.17073683,move
-0.034997553,0.7142658,1.384718,0.2176971,0.046502117,0.17073683,move
0.059027955,1.2789826,1.2419896,0.29955304,0.34093916,0.23182335,move
0.059027955,1.2789826,1.2419896,0.29955304,0.34093916,0.23182335,move
-0.092092216,1.2717209,1.0166998,0.40278926,0.31100675,0.26358834,move
-0.092092216,1.2717209,1.0166998,0.40278926,0.31100675,0.26358834,move
0.06593713,1.4700799,1.5169916,0.4828126,-0.002977968,0.35521814,move
0.06593713,1.4700799,1.5169916,0.4828126,-0.002977968,0.35521814,move
0.32335824,2.081233,2.5402565,0.53351444,-0.22777638,0.39920044,move
0.32335824,2.081233,2.5402565,0.53351444,-0.22777638,0.39920044,move
0.24559163,1.997973,2.6113524,0.60804,0.07582365,0.3680463,move
0.24559163,1.997973,2.6113524,0.60804,0.07582365,0.3680463,move
-0.599293,2.9279752,-1.186223,0.3355941,0.2926808,0.25442538,move
-0.599293,2.9279752,-1.186223,0.3355941,0.2926808,0.25442538,move
-0.86464703,2.3812404,-1.592135,-0.27221683,0.13691017,0.20372356,move
-0.86464703,2.3812404,-1.592135,-0.27221683,0.13691017,0.20372356,move
0.12610142,0.6301122,0.91077566,-0.8091674,-0.37255144,0.17623462,move
0.12610142,0.6301122,0.91077566,-0.8091674,-0.37255144,0.17623462,move
0.7989317,-0.88379574,5.8162084,-0.92523175,-0.5808565,0.110872045,move
0.7989317,-0.88379574,5.8162084,-0.92523175,-0.5808565,0.110872045,move
-0.4346701,-1.7716866,5.7056985,-0.92523175,-0.5808565,0.110872045,move
-0.4346701,-1.7716866,5.7056985,-0.32658383,0.075212784,0.14019357,move
-0.8270163,-1.8662086,0.32823324,0.24824037,0.7025714,0.35705075,move
-0.8270163,-1.8662086,0.32823324,0.24824037,0.7025714,0.35705075,move
-0.57178116,-1.4120398,-3.7021554,0.24640776,0.5608507,0.5348125,move
-0.57178116,-1.4120398,-3.7021554,0.24640776,0.5608507,0.5348125,move
-0.16067389,-1.0818129,-4.1221905,-0.105450615,-0.036575556,0.5305365,move
-0.16067389,-1.0818129,-4.1221905,-0.105450615,-0.036575556,0.5305365,move
0.47949037,-1.077765,-1.2673354,-0.44020477,-0.40798163,0.44990227,move
0.47949037,-1.077765,-1.2673354,-0.44020477,-0.40798163,0.44990227,move
0.23913093,-1.6023588,0.8260617,-0.3974442,-0.2888629,0.27030787,move
0.23913093,-1.6023588,0.8260617,-0.3974442,-0.2888629,0.27030787,move
-0.05656597,-1.9681649,0.4195013,-0.06452264,-0.013362677,0.21105394,move
-0.05656597,-1.9681649,0.4195013,-0.06452264,-0.013362677,0.21105394,move
0.2879623,-1.8601861,-1.5623913,0.18348865,0.11491902,0.2275473,move
0.2879623,-1.8601861,-1.5623913,0.18348865,0.11491902,0.2275473,move
0.35479555,-1.4505973,-2.6756701,0.12056953,0.08437576,0.16157386,move
0.35479555,-1.4505973,-2.6756701,0.12056953,0.08437576,0.16157386,move
0.05808571,-1.2287903,-1.9958677,-0.02359467,0.05505423,0.09560041,move
0.05808571,-1.2287903,-1.9958677,-0.02359467,0.05505423,0.09560041,move
-0.11771962,-0.80462885,-1.4733958,-0.015042556,0.07338019,0.063224554,move
-0.11771962,-0.80462885,-1.4733958,-0.015042556,0.07338019,0.063224554,move
0.14337245,-0.30210066,-1.3584399,0.051541757,0.110032104,0.04184427,move
0.14337245,-0.30210066,-1.3584399,0.051541757,0.110032104,0.04184427,move
-0.09530401,-0.12733793,-1.4850893,0.08697194,0.122860275,-0.07238753,move
-0.09530401,-0.12733793,-1.4850893,0.08697194,0.122860275,-0.07238753,move
-0.3571156,-0.085986614,-1.3524032,0.08208502,-0.016417004,-0.12064589,move
-0.3571156,-0.085986614,-1.3524032,0.08208502,-0.016417004,-0.12064589,move
-0.26591986,-0.13846493,-0.60778236,0.02893974,-0.13859005,-0.13530666,move
-0.26591986,-0.13846493,-0.60778236,0.02893974,-0.13859005,-0.13530666,move
0.02839534,0.0026860237,0.5556431,-0.041309763,-0.18440494,-0.16279559,move
0.02839534,0.0026860237,0.5556431,-0.041309763,-0.18440494,-0.16279559,move
0.029074654,0.09392357,1.703165,-0.005879578,-0.094607756,-0.17195857,move
0.029074654,0.09392357,1.703165,-0.005879578,-0.094607756,-0.17195857,move
-0.010885268,0.4601717,2.0180888,0.14317155,0.046502117,-0.13530666,move
-0.010885268,0.4601717,2.0180888,0.14317155,0.046502117,-0.13530666,move
-0.076276414,0.79371977,1.576448,0.30871603,0.0092393365,-0.099265605,move
-0.076276414,0.79371977,1.576448,0.30871603,0.0092393365,-0.099265605,move
0.096149966,1.253046,1.655458,0.34353533,-0.14408784,-0.07727446,move
0.096149966,1.253046,1.655458,0.34353533,-0.14408784,-0.07727446,move
-0.16458158,1.8574014,1.1758032,0.34109187,-0.12270755,-0.10598512,move
-0.16458158,1.8574014,1.1758032,0.34109187,-0.12270755,-0.10598512,move
0.0986051,2.0169663,-0.57710886,0.14256068,-0.04085161,-0.129198,move
0.0986051,2.0169663,-0.57710886,0.14256068,-0.04085161,-0.129198,move
0.018075258,1.9260097,-0.115911484,-0.36690095,-0.19784398,-0.23732115,move
0.018075258,1.9260097,-0.115911484,-0.36690095,-0.19784398,-0.23732115,move
-0.121988826,1.185225,2.5615935,-0.76213074,-0.36705366,-0.2959642,move
-0.121988826,1.185225,2.5615935,-0.76213074,-0.36705366,-0.2959642,move
0.23035261,0.3349023,4.186879,-0.82566077,-0.37132972,-0.29901853,move
0.23035261,0.3349023,4.186879,-0.82566077,-0.37132972,-0.29901853,move
0.340486,-0.31707096,5.2345724,-0.7199811,-0.20761782,-0.28924468,move
0.340486,-0.31707096,5.2345724,-0.7199811,-0.20761782,-0.28924468,move
-0.08844873,-0.7455034,4.250891,-0.35957056,0.07887798,-0.22021692,move
-0.08844873,-0.7455034,4.250891,-0.35957056,0.07887798,-0.22021692,move
0.10921307,-0.910172,1.0227008,0.057650406,0.22487476,-0.09743301,move
0.10921307,-0.910172,1.0227008,0.057650406,0.22487476,-0.09743301,move
0.37040526,-1.1114459,-1.277235,0.091858864,0.22731823,-0.015577064,move
0.37040526,-1.1114459,-1.277235,0.091858864,0.22731823,-0.015577064,move
0.7311901,-1.294414,-1.4816575,-0.096898496,0.1295798,0.019242255,move
0.7311901,-1.294414,-1.4816575,-0.096898496,0.1295798,0.019242255,move
1.0175896,-1.1978602,-0.87436056,-0.24717134,0.114308156,0.005192355,move
1.0175896,-1.1978602,-0.87436056,-0.24717134,0.114308156,0.005192355,move
1.1232187,-1.3189745,-0.589447,-0.1286635,0.16256651,-0.043066,move
1.1232187,-1.3189745,-0.589447,-0.1286635,0.16256651,-0.043066,move
1.1607879,-1.2023005,-1.1172962,0.0613156,0.10086913,-0.0870483,move
1.1607879,-1.2023005,-1.1172962,0.0613156,0.10086913,-0.0870483,move
0.929952,-1.1459517,-1.9314523,0.20975585,0.044058654,-0.15790866,move
0.929952,-1.1459517,-1.9314523,0.20975585,0.044058654,-0.15790866,move
0.35879403,-1.1605892,-2.7288823,0.22869268,0.06543894,-0.21655174,move
0.35879403,-1.1605892,-2.7288823,0.22869268,0.06543894,-0.21655174,move
-0.14948542,-1.0088525,-2.6910334,0.16821702,0.05505423,-0.19150625,move
-0.14948542,-1.0088525,-2.6910334,0.16821702,0.05505423,-0.19150625,move
-0.032980427,-0.58784914,-2.5136032,0.14317155,0.061773747,-0.1469131,move
-0.032980427,-0.58784914,-2.5136032,0.14317155,0.061773747,-0.1469131,move
0.34679586,-0.07937527,-2.1904402,0.099189244,0.05749769,-0.15607607,move
0.34679586,-0.07937527,-2.1904402,0.099189244,0.05749769,-0.15607607,move
0.4328854,0.25663376,-1.527966,0.09430232,0.020845776,-0.23548855,move
0.4328854,0.25663376,-1.527966,0.09430232,0.020845776,-0.23548855,move
0.21256573,0.43701935,-0.68147135,0.15538885,-0.112322845,-0.2855795,move
0.21256573,0.43701935,-0.68147135,0.15538885,-0.112322845,-0.2855795,move
-0.08378431,0.17452145,-0.2636938,0.25495988,-0.16913332,-0.27763826,move
-0.08378431,0.17452145,-0.2636938,0.25495988,-0.16913332,-0.27763826,move
-0.11423145,0.21226263,0.22718382,0.32276592,-0.14714217,-0.20066923,move
-0.11423145,0.21226263,0.22718382,0.32276592,-0.14714217,-0.20066923,move
-0.2585457,0.42945147,0.08722162,0.33070716,0.032452215,-0.116980694,move
-0.2585457,0.42945147,0.08722162,0.33070716,0.032452215,-0.116980694,move
-0.2585457,0.42945147,0.08722162,0.21097758,0.20044015,-0.025350908,move
-0.284827,0.810205,0.8415208,0.21097758,0.20044015,-0.025350908,move
-0.43239436,1.0546126,2.1398444,0.25434902,0.15340354,0.071776666,move
-0.43239436,1.0546126,2.1398444,0.25434902,0.15340354,0.071776666,move
-0.13605633,1.2373247,3.099227,0.5267949,-0.12515102,0.21288654,move
-0.13605633,1.2373247,3.099227,0.5267949,-0.12515102,0.21288654,move
0.12588125,1.238164,3.0869074,0.78213656,-0.22105686,0.31795537,move
0.12588125,1.238164,3.0869074,0.78213656,-0.22105686,0.31795537,move
0.12588125,1.238164,3.0869074,0.834671,0.111253835,0.41508293,move
-0.47654057,1.9691896,1.7211871,0.834671,0.111253835,0.41508293,move
-0.87898016,2.6744218,-1.5030742,0.5597816,0.5584072,0.55924714,move
-0.87898016,2.6744218,-1.5030742,0.5597816,0.5584072,0.55924714,move
-0.4516981,3.4892664,-2.3098364,-0.038255434,0.1643991,0.5684101,move
-0.4516981,3.4892664,-2.3098364,-0.038255434,0.1643991,0.5684101,move
0.9533492,2.1476297,0.10062647,-0.6100253,-0.2888629,0.3998113,move
0.9533492,2.1476297,0.10062647,-0.6100253,-0.2888629,0.3998113,move
1.1854345,-0.014325142,3.6703587,-0.8610909,-0.5283221,0.16401732,move
1.1854345,-0.014325142,3.6703587,-0.8610909,-0.5283221,0.16401732,move
-0.07604489,-1.3037071,5.8298745,-0.5990297,-0.08361218,0.08582657,move
-0.07604489,-1.3037071,5.8298745,-0.5990297,-0.08361218,0.08582657,move
-0.9673046,-1.4923043,1.4726768,-0.08345947,0.6622543,0.18478674,move
-0.9673046,-1.4923043,1.4726768,-0.08345947,0.6622543,0.18478674,move
-0.91145945,-1.3104548,-2.6721067,-0.044364087,0.73494726,0.26542094,move
-0.91145945,-1.3104548,-2.6721067,-0.044364087,0.73494726,0.26542094,move
-0.785059,-1.368979,-3.430625,-0.25083655,0.1643991,0.25320363,move
-0.785059,-1.368979,-3.430625,-0.25083655,0.1643991,0.25320363,move
-0.09950068,-1.6747689,-1.2706246,-0.30459267,-0.46845728,0.2770274,move
-0.09950068,-1.6747689,-1.2706246,-0.30459267,-0.46845728,0.2770274,move
0.590398,-1.6001577,0.17306757,-0.12133311,-0.49533537,0.23671028,move
0.590398,-1.6001577,0.17306757,-0.12133311,-0.49533537,0.23671028,move
0.8615149,-1.5418296,-0.5537963,0.012446379,-0.051847186,0.13652839,move
0.8615149,-1.5418296,-0.5537963,0.012446379,-0.051847186,0.13652839,move
0.36241806,-1.59098,-1.5940151,0.027107146,0.25725064,0.0076358155,move
0.36241806,-1.59098,-1.5940151,0.027107146,0.25725064,0.0076358155,move
-0.10473033,-1.5890331,-2.184569,0.084528476,0.20654881,-0.03390302,move
-0.10473033,-1.5890331,-2.184569,0.084528476,0.20654881,-0.03390302,move
-0.054398283,-1.1877317,-2.2151284,0.15538885,-0.008475755,-0.011911872,move
-0.054398283,-1.1877317,-2.2151284,0.15538885,-0.008475755,-0.011911872,move
0.095945686,-0.3889246,-1.6862936,0.1614975,-0.1501965,-0.043066,move
0.095945686,-0.3889246,-1.6862936,0.1614975,-0.1501965,-0.043066,move
0.11729823,0.05010891,-0.6389675,0.15722144,-0.16546813,-0.14874569,move
0.11729823,0.05010891,-0.6389675,0.15722144,-0.16546813,-0.14874569,move
-0.44186512,-0.045657635,-0.30980015,0.2054798,-0.116598904,-0.2593123,move
-0.44186512,-0.045657635,-0.30980015,0.2054798,-0.116598904,-0.2593123,move
-0.7606357,-0.23869514,0.12519741,0.22808181,-0.11598804,-0.2556471,move
-0.7606357,-0.23869514,0.12519741,0.22808181,-0.11598804,-0.2556471,move
-0.8374122,-0.4149332,0.016672611,0.23296873,-0.05429065,-0.16707164,move
-0.8374122,-0.4149332,0.016672611,0.23296873,-0.05429065,-0.16707164,move
-0.28696686,-0.26027775,0.30104876,0.15294538,-0.061621033,-0.099265605,move
-0.28696686,-0.26027775,0.30104876,0.15294538,-0.061621033,-0.099265605,move
0.062152356,0.24657393,1.7145252,0.15722144,-0.028023442,-0.094989546,move
0.062152356,0.24657393,1.7145252,0.15722144,-0.028023442,-0.094989546,move
0.16311921,0.7792177,1.4874649,0.3844633,0.028787024,-0.13591751,move
0.16311921,0.7792177,1.4874649,0.3844633,0.028787024,-0.13591751,move
0.12651446,0.74626637,0.41798973,0.4919756,-0.11537717,-0.15424347,move
0.12651446,0.74626637,0.41798973,0.4919756,-0.11537717,-0.15424347,move
0.21315187,0.7116318,1.0989571,0.39668062,-0.27908906,-0.14630222,move
0.21315187,0.7116318,1.0989571,0.39668062,-0.27908906,-0.14630222,move
-0.23434031,1.2599211,1.8408861,0.39668062,-0.27908906,-0.14630222,move
-0.23434031,1.2599211,1.8408861,0.32276592,-0.13675746,-0.1554652,move
-0.23434031,1.2599211,1.8408861,0.29100093,0.04589125,-0.10293079,move
-0.42238018,2.1250691,0.5450082,0.29100093,0.04589125,-0.10293079,move
0.49721408,2.5574532,-0.34130907,0.083306745,-0.3029128,-0.11942416,move
0.49721408,2.5574532,-0.34130907,0.083306745,-0.3029128,-0.11942416,move
0.47362646,2.688107,1.468122,-0.2972623,-0.6132324,-0.28313604,move
0.47362646,2.688107,1.468122,-0.2972623,-0.6132324,-0.28313604,move
0.13598095,1.5191331,2.7691026,-0.5984189,-0.39393172,-0.47616947,move
0.13598095,1.5191331,2.7691026,-0.5984189,-0.39393172,-0.47616947,move
-0.4671651,0.15983534,3.4384103,-0.8000044,-0.041462477,-0.57818395,move
-0.4671651,0.15983534,3.4384103,-0.8000044,-0.041462477,-0.57818395,move
-1.3394203,-0.85353756,4.0768814,-0.78839797,0.1857794,-0.48838675,move
-1.3394203,-0.85353756,4.0768814,-0.78839797,0.1857794,-0.48838675,move
-1.2882817,-1.1875162,2.5351105,-0.44997862,0.32750013,-0.17623462,move
-1.2882817,-1.1875162,2.5351105,-0.44997862,0.32750013,-0.17623462,move
0.103192665,-1.0861306,-0.18559074,-0.13355042,0.26946792,0.13713925,move
0.103192665,-1.0861306,-0.18559074,-0.13355042,0.26946792,0.13713925,move
0.86961746,-1.371953,-1.8032522,-0.07918341,0.15096007,0.23243423,move
0.86961746,-1.371953,-1.8032522,-0.07918341,0.15096007,0.23243423,move
0.8566137,-1.3547525,-1.81815,-0.17447838,0.06421721,0.23365596,move
0.8566137,-1.3547525,-1.81815,-0.17447838,0.06421721,0.23365596,move
0.6554543,-1.8623619,-1.652205,-0.07307476,0.15340354,0.2171626,move
0.6554543,-1.8623619,-1.652205,-0.07307476,0.15340354,0.2171626,move
0.43261725,-1.9932699,-2.458653,-0.008933905,0.2242639,0.22449298,move
0.43261725,-1.9932699,-2.458653,-0.008933905,0.2242639,0.22449298,move
0.3693835,-1.685513,-2.799996,0.0032834008,0.21326832,0.2452624,move
0.3693835,-1.685513,-2.799996,0.0032834008,0.21326832,0.2452624,move
0.31760502,-1.3546824,-2.724249,0.13767375,-0.0017562376,0.24648413,move
0.31760502,-1.3546824,-2.724249,0.13767375,-0.0017562376,0.24648413,move
0.51485544,-0.7496581,-2.5887518,0.28244883,-0.17218764,0.20311269,move
0.51485544,-0.7496581,-2.5887518,0.28244883,-0.17218764,0.20311269,move
0.51485544,-0.7496581,-2.5887518,0.28244883,-0.17218764,0.20311269,move
0.46020913,-0.37821007,-2.5757232,0.25251642,-0.046960264,0.04062254,move
-0.46234673,-0.43372822,-2.2486758,0.099189244,0.21449006,-0.110872045,move
-0.46234673,-0.43372822,-2.2486758,0.099189244,0.21449006,-0.110872045,move
-1.0388113,-0.41471338,-1.6036987,0.091248,0.2505311,-0.051618114,move
-1.0388113,-0.41471338,-1.6036987,0.091248,0.2505311,-0.051618114,move
-0.1897095,0.24567509,-1.1602063,0.26962066,0.0061850105,0.06994407,move
-0.1897095,0.24567509,-1.1602063,0.26962066,0.0061850105,0.06994407,move
0.21805707,0.5809746,-1.1535125,0.35269833,-0.06834055,0.049785517,move
0.21805707,0.5809746,-1.1535125,0.35269833,-0.06834055,0.049785517,move
0.45638162,0.8649092,-0.7528806,0.21281017,0.04772385,-0.0070249503,move
0.45638162,0.8649092,-0.7528806,0.21281017,0.04772385,-0.0070249503,move
0.38499537,1.2648878,0.65480375,0.09674578,0.12224941,-0.038179077,move
0.38499537,1.2648878,0.65480375,0.09674578,0.12224941,-0.038179077,move
0.14212307,1.479528,1.8419919,0.118126065,0.0978148,-0.01985312,move
0.14212307,1.479528,1.8419919,0.118126065,0.0978148,-0.01985312,move
-0.0013426468,1.5663705,2.9195209,0.22258402,0.060552016,0.07971791,move
-0.0013426468,1.5663705,2.9195209,0.22258402,0.060552016,0.07971791,move
0.36040905,1.8447528,3.9502892,0.40156755,-0.01947133,0.21594086,move
0.36040905,1.8447528,3.9502892,0.40156755,-0.01947133,0.21594086,move
0.32666773,1.7780461,4.012776,0.63980496,0.14301883,0.30695978,move
0.32666773,1.7780461,4.012776,0.63980496,0.14301883,0.30695978,move
-0.19159386,3.4813862,-0.7515979,0.53840137,0.4789947,0.37904188,move
-0.19159386,3.4813862,-0.7515979,0.53840137,0.4789947,0.37904188,move
1.3060609,3.4442377,-1.2733383,-0.089568116,0.099647395,0.36987892,move
1.3060609,3.4442377,-1.2733383,-0.089568116,0.099647395,0.36987892,move
2.2519004,1.6204653,4.020334,-0.7645742,-0.59001946,0.14630222,move
2.2519004,1.6204653,4.020334,-0.7645742,-0.59001946,0.14630222,move
1.4217951,-0.467453,7.5239587,-0.7438048,-0.478842,-0.0852157,move
1.4217951,-0.467453,7.5239587,-0.7438048,-0.478842,-0.0852157,move
-0.27770343,-1.4074893,4.1306896,0.0026725354,0.53336173,-0.0143553335,move
-0.27770343,-1.4074893,4.1306896,0.0026725354,0.53336173,-0.0143553335,move
-0.68723077,-1.1780086,-1.7059693,0.24090998,0.7740426,0.1695151,move
-0.68723077,-1.1780086,-1.7059693,0.24090998,0.7740426,0.1695151,move
-0.45155698,-0.64430904,-4.47097,-0.028481591,0.3384957,0.22143865,move
-0.45155698,-0.64430904,-4.47097,-0.028481591,0.3384957,0.22143865,move
-0.42749688,-0.6449952,-3.856182,-0.43226352,-0.3114649,0.08827003,move
-0.42749688,-0.6449952,-3.856182,-0.43226352,-0.3114649,0.08827003,move
-0.44422853,-1.4878845,-0.8499408,-0.69432473,-0.5228243,-0.01863139,move
-0.44422853,-1.4878845,-0.8499408,-0.69432473,-0.5228243,-0.01863139,move
-0.62154615,-2.2081256,0.92920065,-0.5635995,-0.37071884,-0.035124753,move
-0.62154615,-2.2081256,0.92920065,-0.5635995,-0.37071884,-0.035124753,move
-0.22389045,-2.246098,0.8234353,-0.24289529,-0.21189389,0.05222898,move
-0.22389045,-2.246098,0.8234353,-0.24289529,-0.21189389,0.05222898,move
0.40126902,-1.9658937,-0.14673805,0.025274549,-0.100716405,0.07788532,move
0.40126902,-1.9658937,-0.14673805,0.025274549,-0.100716405,0.07788532,move
0.21241036,-1.8253441,-1.4705949,0.15294538,0.056886826,0.0076358155,move
0.21241036,-1.8253441,-1.4705949,0.15294538,0.056886826,0.0076358155,move
-0.36917502,-1.8825078,-2.350583,0.18715385,0.09353874,-0.008857546,move
-0.36917502,-1.8825078,-2.350583,0.18715385,0.09353874,-0.008857546,move
-0.31092986,-1.4522605,-2.041976,0.18348865,0.014126259,0.064446285,move
-0.31092986,-1.4522605,-2.041976,0.18348865,0.014126259,0.064446285,move
-0.10403182,-0.90060425,-1.5862722,0.22747095,0.035506543,0.087659165,move
-0.10403182,-0.90060425,-1.5862722,0.22747095,0.035506543,0.087659165,move
0.2383394,-0.14050436,-1.6749225,0.2561816,0.067882404,0.0143553335,move
0.2383394,-0.14050436,-1.6749225,0.2561816,0.067882404,0.0143553335,move
-0.051909417,0.11241436,-1.0459828,0.24457517,-0.005421429,-0.160963,move
-0.051909417,0.11241436,-1.0459828,0.24457517,-0.005421429,-0.160963,move
-0.6711167,0.012132645,-0.537868,0.30260736,-0.156916,-0.24098633,move
-0.6711167,0.012132645,-0.537868,0.30260736,-0.156916,-0.24098633,move
-0.59675217,0.006362438,0.053094387,0.3288746,-0.30963233,-0.21227567,move
-0.59675217,0.006362438,0.053094387,0.3288746,-0.30963233,-0.21227567,move
-0.58403975,0.17253685,1.0741959,0.28061622,-0.42386413,-0.15241088,move
-0.58403975,0.17253685,1.0741959,0.28061622,-0.42386413,-0.15241088,move
0.016281992,0.87062883,2.348044,0.2683989,-0.44157922,-0.07971791,move
0.016281992,0.87062883,2.348044,0.2683989,-0.44157922,-0.07971791,move
0.86206716,1.5230913,3.3689795,0.35269833,-0.26503915,-0.1432479,move
0.86206716,1.5230913,3.3689795,0.35269833,-0.26503915,-0.1432479,move
1.1498688,1.7116909,2.9920921,0.49686253,-0.12331842,-0.30207285,move
1.1498688,1.7116909,2.9920921,0.49686253,-0.12331842,-0.30207285,move
-0.33077025,2.0544977,1.3826909,0.51396674,0.04955644,-0.43157628,move
-0.33077025,2.0544977,1.3826909,0.51396674,0.04955644,-0.43157628,move
-0.5527849,1.8994741,-0.95655775,0.23357959,0.07582365,-0.35216382,move
-0.5527849,1.8994741,-0.95655775,0.23357959,0.07582365,-0.35216382,move
-0.18747978,1.762527,-0.04949236,-0.33696854,-0.37255144,-0.33322698,move
-0.18747978,1.762527,-0.04949236,-0.33696854,-0.37255144,-0.33322698,move
-0.15862164,1.2076607,3.3661504,-0.7047094,-0.48800498,-0.32589662,move
-0.15862164,1.2076607,3.3661504,-0.7047094,-0.48800498,-0.32589662,move
-0.059110217,0.6340332,4.6956472,-0.60574925,-0.23021984,-0.25625798,move
-0.059110217,0.6340332,4.6956472,-0.60574925,-0.23021984,-0.25625798,move
0.034177214,0.5347905,3.1454172,-0.60574925,-0.23021984,-0.25625798,move
0.034177214,0.5347905,3.1454172,-0.34063372,0.063606344,-0.17867808,move
0.15248759,0.055876732,0.8437114,-0.1866957,0.1277472,-0.11453723,move
0.15248759,0.055876732,0.8437114,-0.1866957,0.1277472,-0.11453723,move
0.65447164,-0.50122404,-0.8389926,-0.24900395,0.13019066,-0.087659165,move
0.65447164,-0.50122404,-0.8389926,-0.24900395,0.13019066,-0.087659165,move
0.456573,-1.4687796,-0.90302086,-0.47502407,0.07887798,-0.1328632,move
0.456573,-1.4687796,-0.90302086,-0.47502407,0.07887798,-0.1328632,move
0.17084976,-2.336441,0.2558298,-0.66378146,0.2120466,-0.11759156,move
0.17084976,-2.336441,0.2558298,-0.66378146,0.2120466,-0.11759156,move
-0.14532566,-2.8048084,0.53351116,-0.543441,0.43440154,-0.0076358155,move
-0.14532566,-2.8048084,0.53351116,-0.543441,0.43440154,-0.0076358155,move
0.6052103,-2.5016122,-0.9935007,-0.13660474,0.4527275,0.17012598,move
0.6052103,-2.5016122,-0.9935007,-0.13660474,0.4527275,0.17012598,move
1.1943073,-2.084546,-2.9822993,0.15844317,0.27618745,0.19639318,move
1.1943073,-2.084546,-2.9822993,0.15844317,0.27618745,0.19639318,move
1.0452843,-1.8277779,-3.3744764,0.25434902,-0.065897085,0.11453723,move
1.0452843,-1.8277779,-3.3744764,0.25434902,-0.065897085,0.11453723,move
0.11987287,-1.7359567,-2.6526494,0.199982,-0.1428661,0.010079277,move
0.11987287,-1.7359567,-2.6526494,0.199982,-0.1428661,0.010079277,move
-0.23323372,-1.2253428,-2.2633133,0.13156511,0.11552989,0.016187929,move
-0.23323372,-1.2253428,-2.2633133,0.13156511,0.11552989,0.016187929,move
0.076948285,-0.3577919,-2.6496067,0.15050192,0.2242639,0.0027488936,move
0.076948285,-0.3577919,-2.6496067,0.15050192,0.2242639,0.0027488936,move
0.28146982,0.21097612,-2.2429585,0.091858864,0.046502117,-0.0870483,move
0.28146982,0.21097612,-2.2429585,0.091858864,0.046502117,-0.0870483,move
0.25349692,0.36352634,-1.4268956,0.09246973,-0.13614659,-0.23060162,move
0.25349692,0.36352634,-1.4268956,0.09246973,-0.13614659,-0.23060162,move
-0.39919066,0.13097382,-0.5920315,0.051541757,-0.2149482,-0.30451632,move
-0.39919066,0.13097382,-0.5920315,0.051541757,-0.2149482,-0.30451632,move
-0.869846,0.18391514,1.1716146,0.100410976,-0.21067216,-0.17989981,move
-0.869846,0.18391514,1.1716146,0.100410976,-0.21067216,-0.17989981,move
-0.44775182,0.7118683,1.4556537,0.22075143,0.1259146,0.051618114,move
-0.44775182,0.7118683,1.4556537,0.22075143,0.1259146,0.051618114,move
0.57676065,1.4437075,0.76934004,0.22075143,0.1259146,0.051618114,move
0.57676065,1.4437075,0.76934004,0.17004961,0.4618905,0.16646078,move
0.59054136,1.639801,1.6931915,0.103465304,0.3562108,0.16829337,move
0.59054136,1.639801,1.6931915,0.103465304,0.3562108,0.16829337,move
0.33831972,1.324657,2.6992674,0.28672487,0.13691017,0.23854288,move
0.33831972,1.324657,2.6992674,0.28672487,0.13691017,0.23854288,move
-0.104451925,1.3409019,3.5622106,0.5182428,-0.08972083,0.38759398,move
-0.104451925,1.3409019,3.5622106,0.5182428,-0.08972083,0.38759398,move
-1.136751,2.4784632,1.7579422,0.72960216,0.29084823,0.6398814,move
-1.136751,2.4784632,1.7579422,0.72960216,0.29084823,0.6398814,move
-1.1423831,3.0415492,-2.162909,0.5115233,0.6482044,0.81092364,move
-1.1423831,3.0415492,-2.162909,0.5115233,0.6482044,0.81092364,move
-0.15419468,3.199851,-2.194995,-0.17570011,0.14851661,0.79259765,move
-0.15419468,3.199851,-2.194995,-0.17570011,0.14851661,0.79259765,move
1.1944506,1.2283735,1.4764113,-0.80061525,-0.42203152,0.550695,move
1.1944506,1.2283735,1.4764113,-0.80061525,-0.42203152,0.550695,move
0.8836833,-0.6924691,6.3809133,-0.9905943,-0.53443074,0.29352075,move
0.8836833,-0.6924691,6.3809133,-0.9905943,-0.53443074,0.29352075,move
0.8836833,-0.6924691,6.3809133,-0.38889208,0.13263412,0.3436117,move
-0.64456177,-1.5566492,5.7641153,-0.38889208,0.13263412,0.3436117,move
-0.4481496,-0.86404514,0.053639412,0.18104519,0.7764861,0.55863625,move
-0.4481496,-0.86404514,0.053639412,0.18104519,0.7764861,0.55863625,move
0.32943064,-0.3963809,-3.6330125,0.049098294,0.7398342,0.5555819,move
0.32943064,-0.3963809,-3.6330125,0.049098294,0.7398342,0.5555819,move
0.43790317,-0.4517064,-2.897437,-0.5306128,-0.00786489,0.24220806,move
0.43790317,-0.4517064,-2.897437,-0.5306128,-0.00786489,0.24220806,move
0.08538675,-1.3826642,0.26741457,-0.6466772,-0.3114649,0.06078109,move
0.08538675,-1.3826642,0.26741457,-0.6466772,-0.3114649,0.06078109,move
-0.09220119,-2.0691538,1.3387699,-0.2691625,-0.19967657,0.03573562,move
-0.09220119,-2.0691538,1.3387699,-0.2691625,-0.19967657,0.03573562,move
0.39791134,-1.9137902,-1.0030231,0.041157044,0.13202325,0.102319926,move
0.39791134,-1.9137902,-1.0030231,0.041157044,0.13202325,0.102319926,move
0.77147746,-1.9029636,-2.653068,0.010613783,0.22182044,0.03756821,move
0.77147746,-1.9029636,-2.653068,0.010613783,0.22182044,0.03756821,move
0.49568343,-1.8718357,-2.0687613,-0.1915826,0.16012305,-0.05100725,move
0.49568343,-1.8718357,-2.0687613,-0.1915826,0.16012305,-0.05100725,move
-0.529057,-1.9530249,-0.3638115,-0.115835324,0.07276932,-0.06078109,move
-0.529057,-1.9530249,-0.3638115,-0.115835324,0.07276932,-0.06078109,move
-0.8768679,-1.5575075,-0.70158195,0.22380576,0.08559749,0.08093964,move
-0.8768679,-1.5575075,-0.70158195,0.22380576,0.08559749,0.08093964,move
-0.38533443,-0.76684904,-1.971395,0.33803755,0.0978148,0.2134974,move
-0.38533443,-0.76684904,-1.971395,0.33803755,0.0978148,0.2134974,move
0.299992,0.05545616,-1.5538025,0.21891883,0.06910413,0.19211712,move
0.299992,0.05545616,-1.5538025,0.21891883,0.06910413,0.19211712,move
0.17179185,0.3808012,-0.7998638,0.17921259,-0.07078401,0.0143553335,move
0.17179185,0.3808012,-0.7998638,0.17921259,-0.07078401,0.0143553335,move
-0.2999534,0.06853771,0.33594847,0.20975585,-0.23999368,-0.10476339,move
-0.2999534,0.06853771,0.33594847,0.20975585,-0.23999368,-0.10476339,move
-0.48282585,-0.10054922,1.2208791,0.24518603,-0.28458685,-0.10415252,move
-0.48282585,-0.10054922,1.2208791,0.24518603,-0.28458685,-0.10415252,move
-0.3125307,0.023721218,1.6425471,0.32704198,-0.20150918,-0.0015271631,move
-0.3125307,0.023721218,1.6425471,0.32704198,-0.20150918,-0.0015271631,move
0.5896167,0.8669858,1.2585998,0.41195226,-0.102549,0.04795292,move
0.5896167,0.8669858,1.2585998,0.41195226,-0.102549,0.04795292,move
1.0566766,1.3901024,0.83295155,0.40889794,-0.09644035,-0.090713486,move
1.0566766,1.3901024,0.83295155,0.40889794,-0.09644035,-0.090713486,move
0.63300633,1.1809535,1.4988818,0.32582024,-0.26565003,-0.29779682,move
0.63300633,1.1809535,1.4988818,0.32582024,-0.26565003,-0.29779682,move
-1.1034797,1.365232,2.4212909,0.2653446,-0.37194058,-0.38515055,move
-1.1034797,1.365232,2.4212909,0.2653446,-0.37194058,-0.38515055,move
-0.55457747,1.6727552,0.5708232,0.21036673,-0.22960897,-0.1957823,move
-0.55457747,1.6727552,0.5708232,0.21036673,-0.22960897,-0.1957823,move
0.4661863,1.8719754,0.73338366,-0.20196733,-0.3658319,-0.21044308,move
0.4661863,1.8719754,0.73338366,-0.20196733,-0.3658319,-0.21044308,move
0.53371847,1.5280142,2.6615677,-0.5837581,-0.19845484,-0.40408736,move
0.53371847,1.5280142,2.6615677,-0.5837581,-0.19845484,-0.40408736,move
-0.25873774,0.39297628,3.2947793,-0.69310296,0.16745344,-0.50610185,move
-0.25873774,0.39297628,3.2947793,-0.69310296,0.16745344,-0.50610185,move
-0.9035775,-0.08680582,3.0843978,-0.53549975,0.2755766,-0.4474588,move
-0.9035775,-0.08680582,3.0843978,-0.53549975,0.2755766,-0.4474588,move
-1.1474332,-0.6078286,1.6112847,-0.16226108,0.2401464,-0.23365596,move
-1.1474332,-0.6078286,1.6112847,-0.16226108,0.2401464,-0.23365596,move
-0.300968,-0.69438124,-0.8279004,0.072922036,0.04955644,-0.004581489,move
-0.300968,-0.69438124,-0.8279004,0.072922036,0.04955644,-0.004581489,move
0.504259,-1.1001706,-1.6654229,-0.044364087,-0.134314,0.07666359,move
0.504259,-1.1001706,-1.6654229,-0.044364087,-0.134314,0.07666359,move
0.98934597,-1.4553075,-0.8938279,-0.34552065,-0.07200574,0.06872234,move
0.98934597,-1.4553075,-0.8938279,-0.34552065,-0.07200574,0.06872234,move
0.93098605,-1.7615852,0.13913012,-0.4292092,0.06421721,0.032070424,move
0.93098605,-1.7615852,0.13913012,-0.4292092,0.06421721,0.032070424,move
1.0238986,-1.7644501,-0.2081132,-0.1866957,0.0959822,0.013744468,move
1.0238986,-1.7644501,-0.2081132,-0.1866957,0.0959822,0.013744468,move
0.77473456,-1.7624254,-1.3667607,0.032604933,0.0538325,-0.03756821,move
0.77473456,-1.7624254,-1.3667607,0.032604933,0.0538325,-0.03756821,move
0.26091656,-1.7384305,-1.7988749,0.10407617,0.023289237,-0.07666359,move
0.26091656,-1.7384305,-1.7988749,0.10407617,0.023289237,-0.07666359,move
-0.18636355,-1.5305328,-2.5526948,0.15477799,0.07887798,-0.06505715,move
-0.18636355,-1.5305328,-2.5526948,0.15477799,0.07887798,-0.06505715,move
-0.23006241,-1.0278044,-2.9960842,0.068645984,0.14424056,-0.03268129,move
-0.23006241,-1.0278044,-2.9960842,0.068645984,0.14424056,-0.03268129,move
0.029092826,-0.38469076,-2.615172,0.068645984,0.14424056,-0.03268129,move
0.029092826,-0.38469076,-2.615172,-0.10239629,0.23770294,-0.056505036,move
0.08542086,0.112547874,-1.8483734,-0.10239629,0.23770294,-0.056505036,move
0.08542086,0.112547874,-1.8483734,-0.14943291,0.19494237,-0.121256754,move
-0.21720046,0.20054197,-1.0361924,-0.025427265,-0.011530082,-0.20189096,move
-0.21720046,0.20054197,-1.0361924,-0.025427265,-0.011530082,-0.20189096,move
-0.48674646,0.12362099,-0.5573082,0.13706289,-0.22044599,-0.19456059,move
-0.48674646,0.12362099,-0.5573082,0.13706289,-0.22044599,-0.19456059,move
-0.43239847,0.24114656,0.21070623,0.13156511,-0.21555908,-0.048563786,move
-0.43239847,0.24114656,0.21070623,0.13156511,-0.21555908,-0.048563786,move
0.6092048,0.95418596,1.1281242,0.12667818,0.008628472,0.0852157,move
0.6092048,0.95418596,1.1281242,0.12667818,0.008628472,0.0852157,move
1.1048058,1.6622891,1.224606,0.14072809,0.23587035,0.06811147,move
1.1048058,1.6622891,1.224606,0.14072809,0.23587035,0.06811147,move
0.96351403,1.879931,1.5385756,0.16699529,0.18028161,-0.04062254,move
0.96351403,1.879931,1.5385756,0.16699529,0.18028161,-0.04062254,move
0.11911036,1.6249642,2.4349217,0.27939448,-0.0017562376,-0.087659165,move
0.11911036,1.6249642,2.4349217,0.27939448,-0.0017562376,-0.087659165,move
-0.4415547,1.2341528,3.075014,0.5115233,-0.071394876,-0.01985312,move
-0.4415547,1.2341528,3.075014,0.5115233,-0.071394876,-0.01985312,move
-1.5476276,1.8068924,1.5239391,0.66301787,0.3030655,0.17440203,move
-1.5476276,1.8068924,1.5239391,0.66301787,0.3030655,0.17440203,move
-1.5493472,2.5122147,-2.0471692,0.46448666,0.6347653,0.4089743,move
-1.5493472,2.5122147,-2.0471692,0.46448666,0.6347653,0.4089743,move
0.17197905,3.1958723,-2.8427734,-0.07368562,0.08437576,0.47433686,move
0.17197905,3.1958723,-2.8427734,-0.07368562,0.08437576,0.47433686,move
1.8582314,2.1365943,0.7836337,-0.6821074,-0.7036404,0.22327125,move
1.8582314,2.1365943,0.7836337,-0.6821074,-0.7036404,0.22327125,move
1.797264,-0.34257507,7.095242,-0.6821074,-0.7036404,0.22327125,move
1.797264,-0.34257507,7.095242,-0.8818603,-0.9235519,-0.13408493,move
-0.8623995,-2.2107005,7.6381607,-0.23984097,-0.18501581,-0.2134974,move
-0.8623995,-2.2107005,7.6381607,-0.23984097,-0.18501581,-0.2134974,move
-2.0107007,-2.238265,1.7584863,0.4797583,0.73067117,0.13775012,move
-2.0107007,-2.238265,1.7584863,0.4797583,0.73067117,0.13775012,move
-1.2398133,-1.171298,-3.5231535,0.55489475,0.69463015,0.49632803,move
-1.2398133,-1.171298,-3.5231535,0.55489475,0.69463015,0.49632803,move
-0.057323188,-0.5354204,-4.0509644,0.21891883,-0.24243714,0.5360342,move
-0.057323188,-0.5354204,-4.0509644,0.21891883,-0.24243714,0.5360342,move
0.38557053,-0.8202081,-1.1448765,-0.017486017,-1.0170143,0.37659842,move
0.38557053,-0.8202081,-1.1448765,-0.017486017,-1.0170143,0.37659842,move
0.20440364,-1.4559007,0.7351413,0.02893974,-1.0402272,0.22999077,move
0.20440364,-1.4559007,0.7351413,0.02893974,-1.0402272,0.22999077,move
0.44716376,-1.7058501,-0.10307169,0.19937114,-0.35300374,0.1572978,move
0.44716376,-1.7058501,-0.10307169,0.19937114,-0.35300374,0.1572978,move
0.562673,-1.6043553,-1.9016538,-0.0071013086,0.17295122,0.04184427,move
0.562673,-1.6043553,-1.9016538,-0.0071013086,0.17295122,0.04184427,move
0.2790529,-1.6135788,-1.5304976,-0.24839307,0.31345022,-0.055283304,move
0.2790529,-1.6135788,-1.5304976,-0.24839307,0.31345022,-0.055283304,move
-0.12070054,-1.5301223,-1.003458,-0.10972667,0.2664136,-0.061391957,move
-0.12070054,-1.5301223,-1.003458,-0.10972667,0.2664136,-0.061391957,move
-0.38122723,-1.3520546,-1.643846,0.11446088,0.19738583,-0.016187929,move
-0.38122723,-1.3520546,-1.643846,0.11446088,0.19738583,-0.016187929,move
-0.38673794,-0.66110134,-1.8899803,0.103465304,0.18883371,0.027183503,move
-0.38673794,-0.66110134,-1.8899803,0.103465304,0.18883371,0.027183503,move
-0.323756,-0.23927975,-1.1456218,0.047876563,0.2242639,0.008246681,move
-0.323756,-0.23927975,-1.1456218,0.047876563,0.2242639,0.008246681,move
-0.50196576,-0.037898064,-0.77227926,0.16027577,0.1259146,-0.014966198,move
-0.50196576,-0.037898064,-0.77227926,0.16027577,0.1259146,-0.014966198,move
-0.43294135,-0.01960802,-0.76385593,0.3142138,-0.15141822,-0.015577064,move
-0.43294135,-0.01960802,-0.76385593,0.3142138,-0.15141822,-0.015577064,move
-0.13332313,-0.084302425,-0.031284332,0.27267498,-0.2784782,-0.01985312,move
-0.13332313,-0.084302425,-0.031284332,0.27267498,-0.2784782,-0.01985312,move
-0.087165356,0.0734067,1.370882,0.17066048,-0.15997034,-0.034513887,move
-0.087165356,0.0734067,1.370882,0.17066048,-0.15997034,-0.034513887,move
-0.048559427,0.52590847,1.8045936,0.30321825,-0.057344973,-0.006414085,move
-0.048559427,0.52590847,1.8045936,0.30321825,-0.057344973,-0.006414085,move
0.2575551,0.760797,1.165688,0.51396674,-0.283976,0.013744468,move
0.2575551,0.760797,1.165688,0.51396674,-0.283976,0.013744468,move
1.0157614,1.2992177,1.6832371,0.5420666,-0.59063035,-0.024129177,move
1.0157614,1.2992177,1.6832371,0.5420666,-0.59063035,-0.024129177,move
0.38133782,1.9084635,2.0908203,0.51885366,-0.5820782,-0.21960606,move
0.38133782,1.9084635,2.0908203,0.51885366,-0.5820782,-0.21960606,move
-0.4359296,1.6411076,0.27735806,0.41561744,-0.24549147,-0.31612277,move
-0.4359296,1.6411076,0.27735806,0.41561744,-0.24549147,-0.31612277,move
-0.18673313,1.2153401,-0.49122047,0.09369145,-0.28458685,-0.2666427,move
-0.18673313,1.2153401,-0.49122047,0.09369145,-0.28458685,-0.2666427,move
0.22844988,1.1768193,0.75914574,-0.393779,-0.3224605,-0.21166481,move
0.22844988,1.1768193,0.75914574,-0.393779,-0.3224605,-0.21166481,move
1.0301781,0.45073318,2.771546,-0.756633,-0.14775303,-0.2275473,move
1.0301781,0.45073318,2.771546,-0.756633,-0.14775303,-0.2275473,move
0.9482874,-0.02636385,3.8086748,-0.6497315,0.1399645,-0.2764165,move
0.9482874,-0.02636385,3.8086748,-0.6497315,0.1399645,-0.2764165,move
0.4376827,-0.12684345,2.0271792,-0.33391422,0.337274,-0.25625798,move
0.4376827,-0.12684345,2.0271792,-0.33391422,0.337274,-0.25625798,move
0.5694996,-0.37173843,-0.13548374,-0.20502165,0.34338263,-0.20922135,move
0.5694996,-0.37173843,-0.13548374,-0.20502165,0.34338263,-0.20922135,move
0.5170051,-0.7792225,-1.0273027,-0.2673299,0.07826711,-0.20066923,move
0.5170051,-0.7792225,-1.0273027,-0.2673299,0.07826711,-0.20066923,move
0.43439987,-1.4316888,-0.5673809,-0.43837216,-0.026801713,-0.16829337,move
0.43439987,-1.4316888,-0.5673809,-0.43837216,-0.026801713,-0.16829337,move
0.717548,-1.6357479,0.15244961,-0.43837216,-0.026801713,-0.16829337,move
0.717548,-1.6357479,0.15244961,-0.53733236,0.13080151,-0.098043874,move
1.3002079,-1.4413934,-0.020732403,-0.43165267,0.32750013,-0.05222898,move
1.3002079,-1.4413934,-0.020732403,-0.43165267,0.32750013,-0.05222898,move
1.7071903,-1.1166449,-1.3256412,-0.21051943,0.3048981,-0.12492194,move
1.7071903,-1.1166449,-1.3256412,-0.21051943,0.3048981,-0.12492194,move
1.2957227,-1.0012169,-1.5795994,-0.15431984,0.09659307,-0.2507602,move
1.2957227,-1.0012169,-1.5795994,-0.15431984,0.09659307,-0.2507602,move
0.58519423,-1.0074072,-0.83533144,-0.09628764,-0.037797287,-0.33383787,move
0.58519423,-1.0074072,-0.83533144,-0.09628764,-0.037797287,-0.33383787,move
-0.27469066,-1.059401,-0.78817225,0.06253733,-0.0035888334,-0.3717115,move
-0.27469066,-1.059401,-0.78817225,0.06253733,-0.0035888334,-0.3717115,move
-0.7989406,-1.0999484,-1.4199042,0.15844317,0.1277472,-0.32162055,move
-0.7989406,-1.0999484,-1.4199042,0.15844317,0.1277472,-0.32162055,move
-0.4783939,-0.59700155,-2.2268186,0.16821702,0.18700112,-0.2098322,move
-0.4783939,-0.59700155,-2.2268186,0.16821702,0.18700112,-0.2098322,move
0.30784738,0.119040966,-1.9725394,0.16760615,0.004352415,-0.15790866,move
0.30784738,0.119040966,-1.9725394,0.16760615,0.004352415,-0.15790866,move
0.64493006,0.29123974,-1.1648712,0.22991441,-0.22960897,-0.21105394,move
0.64493006,0.29123974,-1.1648712,0.22991441,-0.22960897,-0.21105394,move
0.15626886,0.16619444,-0.5774913,0.21525364,-0.23205243,-0.2941316,move
0.15626886,0.16619444,-0.5774913,0.21525364,-0.23205243,-0.2941316,move
-0.31757247,0.17166328,-0.18451881,0.11385001,0.02695443,-0.269697,move
-0.31757247,0.17166328,-0.18451881,0.11385001,0.02695443,-0.269697,move
-0.6298086,0.2878976,0.08225107,0.030772336,0.23525947,-0.16401732,move
-0.6298086,0.2878976,0.08225107,0.030772336,0.23525947,-0.16401732,move
-0.28743953,0.70064116,1.1784563,0.04176791,0.07460192,0.038179077,move
-0.28743953,0.70064116,1.1784563,0.04176791,0.07460192,0.038179077,move
0.71639806,1.2097073,2.608152,0.19326249,-0.046960264,0.09682214,move
0.71639806,1.2097073,2.608152,0.19326249,-0.046960264,0.09682214,move
0.7291179,1.1447663,3.1431184,0.36613736,-0.0041996986,0.044898596,move
0.7291179,1.1447663,3.1431184,0.36613736,-0.0041996986,0.044898596,move
-0.7123327,1.4286146,2.8123617,0.5029712,0.22731823,0.058948494,move
-0.7123327,1.4286146,2.8123617,0.5029712,0.22731823,0.058948494,move
-0.7123327,1.4286146,2.8123617,0.5029712,0.22731823,0.058948494,move
-1.5606257,2.0920768,0.18581963,0.5567273,0.6323219,0.2782491,move
-0.85283023,2.4731998,-1.5436358,0.3197116,0.34093916,0.46517387,move
-0.85283023,2.4731998,-1.5436358,0.3197116,0.34093916,0.46517387,move
0.09535803,2.416901,-0.7643056,-0.022983804,-0.23999368,0.45662177,move
0.09535803,2.416901,-0.7643056,-0.022983804,-0.23999368,0.45662177,move
1.162778,1.3561559,1.5584912,-0.3552945,-0.5661957,0.31429017,move
1.162778,1.3561559,1.5584912,-0.3552945,-0.5661957,0.31429017,move
0.8389862,-0.06631231,3.7675986,-0.3656792,-0.54848063,0.13041973,move
0.8389862,-0.06631231,3.7675986,-0.3656792,-0.54848063,0.13041973,move
-0.36817077,-0.80989265,2.4193587,-0.16775887,0.09231701,0.110872045,move
-0.36817077,-0.80989265,2.4193587,-0.16775887,0.09231701,0.110872045,move
-0.6948974,-1.1178455,-0.35183907,-0.066355236,0.38553232,0.2012801,move
-0.6948974,-1.1178455,-0.35183907,-0.066355236,0.38553232,0.2012801,move
-0.54732937,-1.0350256,-1.7469163,-0.013820826,0.051999904,0.24281894,move
-0.54732937,-1.0350256,-1.7469163,-0.013820826,0.051999904,0.24281894,move
-0.2190753,-1.3172026,-1.8565369,-0.03642284,-0.4104251,0.22204952,move
-0.2190753,-1.3172026,-1.8565369,-0.03642284,-0.4104251,0.22204952,move
0.24492286,-1.6607437,-1.2444911,-0.21051943,-0.46845728,0.17867808,move
0.24492286,-1.6607437,-1.2444911,-0.21051943,-0.46845728,0.17867808,move
0.31112754,-1.7590876,-0.05042839,-0.38644862,-0.27908906,0.105374254,move
0.31112754,-1.7590876,-0.05042839,-0.38644862,-0.27908906,0.105374254,move
0.22847822,-1.832108,0.14820194,-0.35407278,0.0538325,0.05955936,move
0.22847822,-1.832108,0.14820194,-0.35407278,0.0538325,0.05955936,move
-0.14269686,-1.8879213,-0.58249044,-0.17142406,0.13752104,0.027183503,move
-0.14269686,-1.8879213,-0.58249044,-0.17142406,0.13752104,0.027183503,move
-0.041026145,-1.4958954,-0.5547433,-0.03642284,0.030619621,0.079107046,move
-0.041026145,-1.4958954,-0.5547433,-0.03642284,0.030619621,0.079107046,move
-0.23844373,-1.0316691,-0.69056225,0.10590876,0.06849326,0.083383106,move
-0.23844373,-1.0316691,-0.69056225,0.10590876,0.06849326,0.083383106,move
-0.27950144,-0.53666496,-1.2487988,0.10590876,0.06849326,0.083383106,move
-0.27950144,-0.53666496,-1.2487988,0.118126065,0.22304218,0.067500606,move
-0.05975011,-0.18067741,-1.5206547,0.091858864,0.296346,3.0543262E-4,move
-0.05975011,-0.18067741,-1.5206547,0.091858864,0.296346,3.0543262E-4,move
-0.29458004,-0.20047235,-1.1321616,0.094913185,0.18272507,-0.090713486,move
-0.29458004,-0.20047235,-1.1321616,0.094913185,0.18272507,-0.090713486,move
-0.6460104,-0.31645203,-0.4458747,0.24335344,-0.04879286,-0.0888809,move
-0.6460104,-0.31645203,-0.4458747,0.24335344,-0.04879286,-0.0888809,move
-0.1902841,-0.27860308,-0.7435317,0.33987015,-0.16607898,-0.052839845,move
-0.1902841,-0.27860308,-0.7435317,0.33987015,-0.16607898,-0.052839845,move
0.3103627,0.028018475,-0.09757662,0.16760615,-0.09094256,-0.064446285,move
0.3103627,0.028018475,-0.09757662,0.16760615,-0.09094256,-0.064446285,move
0.6096356,0.56097174,1.0930119,0.030161472,0.025121834,-0.14019357,move
0.6096356,0.56097174,1.0930119,0.030161472,0.025121834,-0.14019357,move
0.59676063,0.8326769,1.3061914,0.10102184,0.041615196,-0.2452624,move
0.59676063,0.8326769,1.3061914,0.10102184,0.041615196,-0.2452624,move
0.5051313,0.7604232,1.5832186,0.21525364,-0.27175868,-0.32711834,move
0.5051313,0.7604232,1.5832186,0.21525364,-0.27175868,-0.32711834,move
0.23777239,0.6368613,2.5544124,0.24457517,-0.41958806,-0.3747658,move
0.23777239,0.6368613,2.5544124,0.24457517,-0.41958806,-0.3747658,move
-0.647752,1.2823472,1.8542299,0.25251642,-0.021914791,-0.3277292,move
-0.647752,1.2823472,1.8542299,0.25251642,-0.021914791,-0.3277292,move
0.15276743,1.0181503,-0.48457623,0.15783231,0.09353874,-0.24281894,move
0.15276743,1.0181503,-0.48457623,0.15783231,0.09353874,-0.24281894,move
0.31032765,1.3132234,-0.06652117,-0.20502165,-0.22044599,-0.29535335,move
0.31032765,1.3132234,-0.06652117,-0.20502165,-0.22044599,-0.29535335,move
-0.11053981,0.38181925,1.7040186,-0.5385541,-0.20334177,-0.37110063,move
-0.11053981,0.38181925,1.7040186,-0.5385541,-0.20334177,-0.37110063,move
0.0021057427,-0.22507954,2.3554654,-0.59047765,-0.07383834,-0.30207285,move
0.0021057427,-0.22507954,2.3554654,-0.59047765,-0.07383834,-0.30207285,move
0.25626114,-0.06731033,1.856216,-0.45425466,0.05627596,-0.21655174,move
0.25626114,-0.06731033,1.856216,-0.45425466,0.05627596,-0.21655174,move
0.5864102,-0.22595787,0.5155797,-0.3253621,0.16562083,-0.16707164,move
0.5864102,-0.22595787,0.5155797,-0.3253621,0.16562083,-0.16707164,move
0.74656075,-0.42979145,-0.47540045,-0.33452508,0.07826711,-0.15241088,move
0.74656075,-0.42979145,-0.47540045,-0.33452508,0.07826711,-0.15241088,move
0.8211255,-1.0161972,-0.20660019,-0.37972912,-0.1501965,-0.122478485,move
0.8211255,-1.0161972,-0.20660019,-0.37972912,-0.1501965,-0.122478485,move
0.9751231,-1.3665833,0.3897333,-0.42615485,-0.24610233,-0.08399397,move
0.9751231,-1.3665833,0.3897333,-0.42615485,-0.24610233,-0.08399397,move
0.90776044,-1.4920611,1.1576772,-0.4078289,-0.13859005,-0.058948494,move
0.90776044,-1.4920611,1.1576772,-0.4078289,-0.13859005,-0.058948494,move
0.61107093,-1.3512206,0.65383863,-0.20013472,0.04222606,-0.044898596,move
0.61107093,-1.3512206,0.65383863,-0.20013472,0.04222606,-0.044898596,move
0.4573948,-1.2482138,-1.0316186,0.019165898,0.11247557,-0.022296581,move
0.4573948,-1.2482138,-1.0316186,0.019165898,0.11247557,-0.022296581,move
0.58736825,-1.0652232,-2.3189688,0.11385001,-0.024969118,-0.021685716,move
0.58736825,-1.0652232,-2.3189688,0.11385001,-0.024969118,-0.021685716,move
0.43230247,-0.8753753,-2.201847,0.08269588,-0.27969992,-0.05955936,move
0.43230247,-0.8753753,-2.201847,0.08269588,-0.27969992,-0.05955936,move
0.17771542,-0.63832045,-1.5206618,0.027107146,-0.25098926,-0.10476339,move
0.17771542,-0.63832045,-1.5206618,0.027107146,-0.25098926,-0.10476339,move
-0.19123103,-0.31630754,-1.3306952,0.023441954,-0.043295074,-0.15607607,move
-0.19123103,-0.31630754,-1.3306952,0.023441954,-0.043295074,-0.15607607,move
-0.59447604,-0.31615877,-1.5564113,0.047876563,0.18272507,-0.17012598,move
-0.59447604,-0.31615877,-1.5564113,0.047876563,0.18272507,-0.17012598,move
-0.59447604,-0.31615877,-1.5564113,0.049098294,0.28962648,-0.09987647,move
-0.6779282,-0.13004303,-2.1788392,0.049098294,0.28962648,-0.09987647,move
-0.2701283,0.17744255,-1.8806968,0.008781188,0.038560867,-0.015577064,move
-0.2701283,0.17744255,-1.8806968,0.008781188,0.038560867,-0.015577064,move
0.13979134,0.41231346,-0.3319602,-0.07246389,-0.21006128,0.024129177,move
0.13979134,0.41231346,-0.3319602,-0.07246389,-0.21006128,0.024129177,move
-1.7033061,0.69796467,1.5213904,-0.13049608,-0.07078401,0.074830994,move
-1.7033061,0.69796467,1.5213904,-0.13049608,-0.07078401,0.074830994,move
0.6758704,0.4675498,1.6983838,-0.10606148,0.43195808,0.3100141,move
0.6758704,0.4675498,1.6983838,-0.10606148,0.43195808,0.3100141,move
-0.096853524,1.1401682,1.3222957,-0.07185303,0.6830237,0.18478674,move
-0.096853524,1.1401682,1.3222957,-0.07185303,0.6830237,0.18478674,move
0.39085078,0.8399768,1.7277427,-0.024816401,0.45883617,0.22937989,move
0.39085078,0.8399768,1.7277427,-0.024816401,0.45883617,0.22937989,move
0.05296266,1.0326376,3.1252089,0.15844317,0.051999904,0.18600847,move
0.05296266,1.0326376,3.1252089,0.15844317,0.051999904,0.18600847,move
-1.2152376,2.4046116,3.0492663,0.44860417,0.29878947,0.18051068,move
-1.2152376,2.4046116,3.0492663,0.44860417,0.29878947,0.18051068,move
-0.24428253,2.622808,0.20281792,0.5304601,0.36903897,0.2556471,move
-0.24428253,2.622808,0.20281792,0.5304601,0.36903897,0.2556471,move
0.9465406,2.8881264,-1.3003163,0.05093089,0.11614075,0.06872234,move
0.9465406,2.8881264,-1.3003163,0.05093089,0.11614075,0.06872234,move
0.45935208,0.9374342,2.2440348,-0.5959754,-0.32856914,-0.26358834,move
0.45935208,0.9374342,2.2440348,-0.5959754,-0.32856914,-0.26358834,move
-0.73598087,-1.368443,6.4136734,-0.597808,-0.2870303,-0.26419923,move
-0.73598087,-1.368443,6.4136734,-0.597808,-0.2870303,-0.26419923,move
-1.3060951,-1.7274837,5.3242145,0.044211373,0.33788484,0.03023783,move
-1.3060951,-1.7274837,5.3242145,0.044211373,0.33788484,0.03023783,move
-0.6487483,-0.9813843,0.6336894,0.55306214,0.7691557,0.31429017,move
-0.6487483,-0.9813843,0.6336894,0.55306214,0.7691557,0.31429017,move
-0.09271905,-0.4982319,-2.91578,0.6275877,0.4796056,0.35888332,move
-0.09271905,-0.4982319,-2.91578,0.6275877,0.4796056,0.35888332,move
-0.17109466,-0.38707256,-3.445131,0.317879,-0.18745928,0.27214047,move
-0.17109466,-0.38707256,-3.445131,0.317879,-0.18745928,0.27214047,move
-0.17446664,-1.0785255,-1.6427579,-0.115835324,-0.50205487,0.20616703,move
-0.17446664,-1.0785255,-1.6427579,-0.115835324,-0.50205487,0.20616703,move
-0.14491014,-1.9191823,0.47486734,-0.3113122,-0.4049273,0.22082779,move
-0.14491014,-1.9191823,0.47486734,-0.3113122,-0.4049273,0.22082779,move
0.42616862,-1.8596072,0.62750673,-0.09873109,-0.08361218,0.29352075,move
0.42616862,-1.8596072,0.62750673,-0.09873109,-0.08361218,0.29352075,move
0.5519456,-1.5866623,-1.2061625,0.15416712,0.17111863,0.25809056,move
0.5519456,-1.5866623,-1.2061625,0.15416712,0.17111863,0.25809056,move
0.17458472,-1.5003324,-2.5611386,0.13889548,0.1735621,0.17073683,move
0.17458472,-1.5003324,-2.5611386,0.13889548,0.1735621,0.17073683,move
-0.22117813,-1.3180909,-2.2580514,-0.016264288,0.036728274,0.12186762,move
-0.22117813,-1.3180909,-2.2580514,-0.016264288,0.036728274,0.12186762,move
-0.5134752,-1.0442257,-1.1956315,-0.06207918,-0.116598904,0.13591751,move
-0.5134752,-1.0442257,-1.1956315,-0.06207918,-0.116598904,0.13591751,move
-0.45661345,-0.70589876,-0.48253775,0.04604397,-0.04390594,0.18173242,move
-0.45661345,-0.70589876,-0.48253775,0.04604397,-0.04390594,0.18173242,move
-0.5970431,-0.58520365,-0.91995573,0.18043432,0.15279266,0.1572978,move
-0.5970431,-0.58520365,-0.91995573,0.18043432,0.15279266,0.1572978,move
-0.8954354,-0.67426825,-1.0983977,0.19387336,0.10086913,0.183565,move
-0.8954354,-0.67426825,-1.0983977,0.19387336,0.10086913,0.183565,move
-0.43127194,-0.37207603,-1.1315737,0.20303634,-0.064064495,0.24587326,move
-0.43127194,-0.37207603,-1.1315737,0.20303634,-0.064064495,0.24587326,move
0.15166515,0.040392876,-0.4722047,0.11385001,-0.21128301,0.2501493,move
0.15166515,0.040392876,-0.4722047,0.11385001,-0.21128301,0.2501493,move
0.80990183,0.8348098,0.04355669,-0.005879578,-0.14042264,0.15302174,move
0.80990183,0.8348098,0.04355669,-0.005879578,-0.14042264,0.15302174,move
0.56079847,1.014936,1.2459121,-0.037644573,-0.14469871,-0.016187929,move
0.56079847,1.014936,1.2459121,-0.037644573,-0.14469871,-0.016187929,move
0.5817444,0.896564,1.3504729,0.22502749,-0.5313764,-0.19761491,move
0.5817444,0.896564,1.3504729,0.22502749,-0.5313764,-0.19761491,move
0.055950016,0.46301413,1.5187464,0.27328584,-0.80076796,-0.29657507,move
0.055950016,0.46301413,1.5187464,0.27328584,-0.80076796,-0.29657507,move
-0.43216905,0.7741499,2.6845198,0.09796751,-0.52038085,-0.21471913,move
-0.43216905,0.7741499,2.6845198,0.09796751,-0.52038085,-0.21471913,move
-0.32675666,1.6022463,2.1207786,-0.020540344,0.14057536,-0.10415252,move
-0.32675666,1.6022463,2.1207786,-0.020540344,0.14057536,-0.10415252,move
0.89302504,1.4751878,0.79960155,-0.18852828,0.38308886,-0.1255328,move
0.89302504,1.4751878,0.79960155,-0.18852828,0.38308886,-0.1255328,move
0.102106616,1.5313611,0.71988106,-0.45058948,0.20715968,-0.30390546,move
0.102106616,1.5313611,0.71988106,-0.45058948,0.20715968,-0.30390546,move
-0.043988347,0.36850166,1.5127249,-0.6515641,-0.061621033,-0.2941316,move
-0.043988347,0.36850166,1.5127249,-0.6515641,-0.061621033,-0.2941316,move
0.5479544,-0.15123081,3.494029,-0.7450265,-0.1379792,-0.17928895,move
0.5479544,-0.15123081,3.494029,-0.7450265,-0.1379792,-0.17928895,move
0.8660583,0.011867523,4.3310714,-0.45669812,0.09170614,-0.13775012,move
0.8660583,0.011867523,4.3310714,-0.45669812,0.09170614,-0.13775012,move
1.149808,-0.24907207,1.912569,0.024663685,0.3720933,-0.16218472,move
1.149808,-0.24907207,1.912569,0.024663685,0.3720933,-0.16218472,move
1.1006134,-0.27516794,-0.86017704,0.22502749,0.35559994,-0.17806722,move
1.1006134,-0.27516794,-0.86017704,0.22502749,0.35559994,-0.17806722,move
1.0496988,-0.617579,-2.1707458,0.112017415,0.11980595,-0.18661933,move
1.0496988,-0.617579,-2.1707458,0.112017415,0.11980595,-0.18661933,move
0.7830682,-1.2876449,-1.2016497,-0.23861924,-0.024969118,-0.18661933,move
0.7830682,-1.2876449,-1.2016497,-0.23861924,-0.024969118,-0.18661933,move
0.43727228,-1.7605138,-0.18615389,-0.18730655,0.02939789,-0.1591304,move
0.43727228,-1.7605138,-0.18615389,-0.18730655,0.02939789,-0.1591304,move
0.26021147,-1.9378686,-0.7126298,0.075976364,0.007406741,-0.082161374,move
0.26021147,-1.9378686,-0.7126298,0.075976364,0.007406741,-0.082161374,move
0.26301542,-1.6018505,-1.8452811,0.075976364,0.007406741,-0.082161374,move
0.26301542,-1.6018505,-1.8452811,0.26473373,-0.036575556,-0.00580322,move
0.31906962,-1.1744161,-2.4186325,0.2598468,-0.08055785,0.018020526,move
0.31906962,-1.1744161,-2.4186325,0.2598468,-0.08055785,0.018020526,move
0.35251313,-0.6467676,-2.71764,0.16699529,-0.05551238,-0.04062254,move
0.35251313,-0.6467676,-2.71764,0.16699529,-0.05551238,-0.04062254,move
-0.12849775,-0.51803446,-2.505803,0.044211373,-0.07933612,-0.13225232,move
-0.12849775,-0.51803446,-2.505803,0.044211373,-0.07933612,-0.13225232,move
-0.672487,-0.56581354,-1.5911694,-0.03214678,-0.1428661,-0.13652839,move
-0.672487,-0.56581354,-1.5911694,-0.03214678,-0.1428661,-0.13652839,move
-0.65912855,-0.36214256,-0.9205904,-0.032757647,-0.1501965,-0.04917465,move
-0.65912855,-0.36214256,-0.9205904,-0.032757647,-0.1501965,-0.04917465,move
0.18263492,0.098701,-0.13393259,-0.005879578,-0.1306488,0.005192355,move
0.18263492,0.098701,-0.13393259,-0.005879578,-0.1306488,0.005192355,move
0.6774062,0.42463017,0.3155365,0.077198096,-0.042073343,-0.064446285,move
0.6774062,0.42463017,0.3155365,0.077198096,-0.042073343,-0.064446285,move
0.30002025,0.42576933,0.19816923,0.17127134,-0.012140946,-0.17012598,move
0.30002025,0.42576933,0.19816923,0.17127134,-0.012140946,-0.17012598,move
-0.43386748,0.14545298,0.7111063,0.19814941,-0.12515102,-0.16401732,move
-0.43386748,0.14545298,0.7111063,0.19814941,-0.12515102,-0.16401732,move
-0.5776448,0.1529684,1.8506365,0.22197317,-0.1184315,-0.00580322,move
-0.5776448,0.1529684,1.8506365,0.22197317,-0.1184315,-0.00580322,move
-0.18373725,0.7528963,2.1149173,0.3123812,0.10392345,0.16523905,move
-0.18373725,0.7528963,2.1149173,0.3123812,0.10392345,0.16523905,move
0.64518243,1.1083612,1.5700378,0.37896553,0.28901562,0.19517145,move
0.64518243,1.1083612,1.5700378,0.37896553,0.28901562,0.19517145,move
-0.44344878,1.4617357,1.5760369,0.38751763,0.2505311,0.10842858,move
-0.44344878,1.4617357,1.5760369,0.38751763,0.2505311,0.10842858,move
-1.568813,1.9717674,0.35834885,0.47181705,0.24747679,0.18051068,move
-1.568813,1.9717674,0.35834885,0.47181705,0.24747679,0.18051068,move
-0.7854402,2.3096404,-0.9689994,0.32032245,0.22120957,0.3484986,move
-0.7854402,2.3096404,-0.9689994,0.32032245,0.22120957,0.3484986,move
-0.57684237,2.3290524,-0.80432796,-0.23373231,0.047112983,0.32162055,move
-0.57684237,2.3290524,-0.80432796,-0.23373231,0.047112983,0.32162055,move
0.84949565,0.8363762,1.7511058,-0.69432473,-0.36094502,0.20738874,move
0.84949565,0.8363762,1.7511058,-0.69432473,-0.36094502,0.20738874,move
1.1205716,-0.68270636,5.207234,-0.69371384,-0.56741744,0.099265605,move
1.1205716,-0.68270636,5.207234,-0.69371384,-0.56741744,0.099265605,move
-0.22805803,-1.3351464,5.6781077,-0.2092977,0.12224941,0.12492194,move
-0.22805803,-1.3351464,5.6781077,-0.2092977,0.12224941,0.12492194,move
-0.18734846,-1.0188389,1.4282594,0.28672487,0.8485682,0.34055737,move
-0.18734846,-1.0188389,1.4282594,0.28672487,0.8485682,0.34055737,move
-0.3143347,-0.7790904,-1.7622552,0.48953214,0.69279754,0.3594942,move
-0.3143347,-0.7790904,-1.7622552,0.48953214,0.69279754,0.3594942,move
-0.23320885,-0.37149906,-3.2838256,0.3740786,0.02939789,0.3277292,move
-0.23320885,-0.37149906,-3.2838256,0.3740786,0.02939789,0.3277292,move
0.1323084,-0.5763707,-1.901475,-0.020540344,-0.43363798,0.2574797,move
0.1323084,-0.5763707,-1.901475,-0.020540344,-0.43363798,0.2574797,move
0.47468126,-1.0886278,0.49440193,-0.3009275,-0.19723311,0.19639318,move
0.47468126,-1.0886278,0.49440193,-0.3009275,-0.19723311,0.19639318,move
0.56444895,-1.3457065,0.25562525,-0.18852828,0.24869852,0.14446963,move
0.56444895,-1.3457065,0.25562525,-0.18852828,0.24869852,0.14446963,move
0.9454979,-1.1030393,-0.73384285,0.03504839,0.3562108,0.112704635,move
0.9454979,-1.1030393,-0.73384285,0.03504839,0.3562108,0.112704635,move
0.17727172,-1.0619016,-1.4992471,0.32459852,0.05505423,-0.041233405,move
0.17727172,-1.0619016,-1.4992471,0.32459852,0.05505423,-0.041233405,move
-0.7517299,-1.481391,-1.8403788,0.508469,-0.3114649,-0.090713486,move
-0.7517299,-1.481391,-1.8403788,0.508469,-0.3114649,-0.090713486,move
-0.6561887,-1.0425777,-3.3095663,0.1511128,0.2700788,0.028405234,move
-0.6561887,-1.0425777,-3.3095663,0.1511128,0.2700788,0.028405234,move
-0.66923773,-0.9829159,-1.7249131,-0.43715045,0.599946,0.09132435,move
-0.66923773,-0.9829159,-1.7249131,-0.43715045,0.599946,0.09132435,move
-0.7664396,-0.80897427,-0.78761864,-0.43715045,0.599946,0.09132435,move
-0.7664396,-0.80897427,-0.78761864,-0.4817436,0.5406921,0.12064589,move
-0.64551014,-0.8149123,0.04141426,-0.13355042,0.06971499,0.16035213,move
-0.64551014,-0.8149123,0.04141426,-0.13355042,0.06971499,0.16035213,move
0.005202135,-0.46788502,-0.31748104,0.23480132,-0.22288945,0.18967366,move
0.005202135,-0.46788502,-0.31748104,0.23480132,-0.22288945,0.18967366,move
0.79511094,-0.011361599,-0.399127,0.22808181,-0.14347698,0.11148291,move
0.79511094,-0.011361599,-0.399127,0.22808181,-0.14347698,0.11148291,move
0.41246733,0.1307416,-0.12993097,0.13889548,0.10025826,0.015577064,move
0.41246733,0.1307416,-0.12993097,0.13889548,0.10025826,0.015577064,move
0.066312365,0.09210777,0.020611286,0.06314819,0.21876612,-0.03756821,move
0.066312365,0.09210777,0.020611286,0.06314819,0.21876612,-0.03756821,move
0.2001917,0.016840935,0.7418976,0.06681339,-0.002977968,-0.024740042,move
0.2001917,0.016840935,0.7418976,0.06681339,-0.002977968,-0.024740042,move
1.2223794,0.47513628,2.1414032,0.10957395,-0.29985848,-0.04428773,move
1.2223794,0.47513628,2.1414032,0.10957395,-0.29985848,-0.04428773,move
1.2389569,1.1793008,3.149212,0.1755474,-0.1043816,-0.19211712,move
1.2389569,1.1793008,3.149212,0.1755474,-0.1043816,-0.19211712,move
0.13003424,1.6537967,1.8505974,0.28916833,0.42951462,-0.3203988,move
0.13003424,1.6537967,1.8505974,0.28916833,0.42951462,-0.3203988,move
0.6387041,1.0653353,0.02600336,0.14317155,0.39774963,-0.42485678,move
0.6387041,1.0653353,0.02600336,0.14317155,0.39774963,-0.42485678,move
-0.26623118,0.7892957,0.6652665,-0.2990949,-0.067118816,-0.514654,move
-0.26623118,0.7892957,0.6652665,-0.2990949,-0.067118816,-0.514654,move
-0.27747047,0.20831394,2.8873754,-0.2990949,-0.067118816,-0.514654,move
-0.27747047,0.20831394,2.8873754,-0.5715408,-0.41775545,-0.44318274,move
0.23737906,0.08896208,3.9680972,-0.5104543,-0.30230194,-0.3295618,move
0.23737906,0.08896208,3.9680972,-0.5104543,-0.30230194,-0.3295618,move
0.4512549,0.13044357,3.0721655,-0.24839307,-0.12759447,-0.27580565,move
0.4512549,0.13044357,3.0721655,-0.24839307,-0.12759447,-0.27580565,move
0.65302825,-0.0954175,1.561933,-0.059024855,0.021456642,-0.23854288,move
0.65302825,-0.0954175,1.561933,-0.059024855,0.021456642,-0.23854288,move
0.79103506,-0.27689075,0.6104212,-0.008323039,0.15645786,-0.22876903,move
0.79103506,-0.27689075,0.6104212,-0.008323039,0.15645786,-0.22876903,move
0.59881294,-0.7014475,-0.11181784,0.025885414,0.0959822,-0.26053402,move
0.59881294,-0.7014475,-0.11181784,0.025885414,0.0959822,-0.26053402,move
0.41218236,-1.2909608,-0.15250301,0.005726862,-0.1324814,-0.23671028,move
0.41218236,-1.2909608,-0.15250301,0.005726862,-0.1324814,-0.23671028,move
0.4452511,-1.3789124,0.15171194,-0.07735081,-0.067118816,-0.18173242,move
0.4452511,-1.3789124,0.15171194,-0.07735081,-0.067118816,-0.18173242,move
0.25240484,-1.3591237,-0.12029791,0.013057245,0.017180584,-0.14752395,move
0.25240484,-1.3591237,-0.12029791,0.013057245,0.017180584,-0.14752395,move
0.10393378,-1.2036824,-1.2017641,0.22380576,-0.016417004,-0.10293079,move
0.10393378,-1.2036824,-1.2017641,0.22380576,-0.016417004,-0.10293079,move
0.02492112,-1.1013298,-1.9374113,0.23968825,-0.101938136,-0.082161374,move
0.02492112,-1.1013298,-1.9374113,0.23968825,-0.101938136,-0.082161374,move
-0.071155876,-1.129242,-1.616777,0.23968825,-0.101938136,-0.082161374,move
-0.071155876,-1.129242,-1.616777,0.16577356,-0.15447254,-0.06505715,move
0.009012729,-0.8560028,-1.0368342,0.13706289,-0.090331696,-0.049785517,move
0.009012729,-0.8560028,-1.0368342,0.13706289,-0.090331696,-0.049785517,move
0.107334584,-0.6018381,-0.62824154,0.1596649,0.17050776,-0.07422013,move
0.107334584,-0.6018381,-0.62824154,0.1596649,0.17050776,-0.07422013,move
-0.13215664,-0.6422548,-1.0477219,0.17738,0.46555567,-0.089491755,move
-0.13215664,-0.6422548,-1.0477219,0.17738,0.46555567,-0.089491755,move
-0.64287305,-0.8564191,-0.85444117,0.18654297,0.53213996,-0.06994407,move
-0.64287305,-0.8564191,-0.85444117,0.18654297,0.53213996,-0.06994407,move
-0.52917975,-0.8680849,-0.8152995,0.25862506,0.38492146,0.058337633,move
-0.52917975,-0.8680849,-0.8152995,0.25862506,0.38492146,0.058337633,move
0.39019698,-0.5250926,0.29128218,0.15905404,0.5254205,0.19639318,move
0.39019698,-0.5250926,0.29128218,0.15905404,0.5254205,0.19639318,move
1.7008914,1.2808557,0.19427013,0.20853412,0.9646326,0.17379116,move
1.7008914,1.2808557,0.19427013,0.20853412,0.9646326,0.17379116,move
-0.04107976,0.12984467,-0.5483613,0.49075386,0.44967318,-0.19333886,move
-0.04107976,0.12984467,-0.5483613,0.49075386,0.44967318,-0.19333886,move
-1.4180558,-0.71670437,0.5018463,0.41195226,0.26397014,-0.09132435,move
-1.4180558,-0.71670437,0.5018463,0.41195226,0.26397014,-0.09132435,move
-0.36599982,-0.1098814,2.6635494,0.27328584,0.4386776,0.22082779,move
-0.36599982,-0.1098814,2.6635494,0.27328584,0.4386776,0.22082779,move
0.47079986,0.2980752,0.62279034,0.64163756,0.155847,0.24831672,move
0.47079986,0.2980752,0.62279034,0.64163756,0.155847,0.24831672,move
0.47079986,0.2980752,0.62279034,0.64163756,0.155847,0.24831672,move
