accX,accY,accZ,angleX,angleY,angleZ,label
0.63528556,-0.55122757,-1.7554145,-0.11461359,-0.13370313,-0.3155119,move
0.63528556,-0.55122757,-1.7554145,-0.11461359,-0.13370313,-0.3155119,move
0.28257716,-1.598064,-3.9143028,-0.5745951,-0.02313652,-0.40225476,move
0.28257716,-1.598064,-3.9143028,-0.5745951,-0.02313652,-0.40225476,move
0.28257716,-1.598064,-3.9143028,-0.74746996,-0.17218764,-0.3100141,move
-0.48456806,-2.3741474,-2.7378278,-0.74746996,-0.17218764,-0.3100141,move
-0.48456806,-2.3741474,-2.7378278,-0.5202281,-0.4873941,-0.09682214,move
-0.187213,-1.8243885,-1.3160372,-0.5202281,-0.4873941,-0.09682214,move
0.5575482,-0.68246794,-0.86714554,-0.093844175,-0.5295438,-0.0870483,move
0.5575482,-0.68246794,-0.86714554,-0.093844175,-0.5295438,-0.0870483,move
7.145852E-4,0.07600641,-1.6673741,0.22869268,-0.40798163,-0.2666427,move
7.145852E-4,0.07600641,-1.6673741,0.22869268,-0.40798163,-0.2666427,move
-1.1608882,0.022860527,-2.90449,0.2916118,-0.30413455,-0.35827246,move
-1.1608882,0.022860527,-2.90449,0.2916118,-0.30413455,-0.35827246,move
-1.652683,0.18400002,-2.6627836,0.11018482,-0.38110355,-0.23060162,move
-1.652683,0.18400002,-2.6627836,0.11018482,-0.38110355,-0.23060162,move
-1.0461078,0.93234396,-0.98724604,-0.076739945,-0.5063309,-0.06383542,move
-1.0461078,0.93234396,-0.98724604,-0.076739945,-0.5063309,-0.06383542,move
0.21875647,1.5786738,1.1501956,-0.0388663,-0.55886537,-0.04184427,move
0.21875647,1.5786738,1.1501956,-0.0388663,-0.55886537,-0.04184427,move
0.1980831,1.95928,2.58044,0.16210836,-0.42203152,-0.20922135,move
0.1980831,1.95928,2.58044,0.16210836,-0.42203152,-0.20922135,move
-1.4171295,1.2942467,1.2726512,0.4162283,0.04344779,-0.26908615,move
-1.4171295,1.2942467,1.2726512,0.4162283,0.04344779,-0.26908615,move
-2.1469805,1.3179622,-0.014183998,0.35575265,0.21571179,-0.04795292,move
-2.1469805,1.3179622,-0.014183998,0.09796751,0.23403774,0.23609942,move
-1.8749534,1.6307921,0.97670937,0.09796751,0.23403774,0.23609942,move
-1.8749534,1.6307921,0.97670937,0.09796751,0.23403774,0.23609942,move
-2.696628,3.2788181,1.823276,0.080252424,0.43317983,0.45662177,move
-2.696628,3.2788181,1.823276,0.080252424,0.43317983,0.45662177,move
-1.6291063,3.1006827,-0.8888264,0.3056617,0.6677521,0.69913524,move
-1.6291063,3.1006827,-0.8888264,0.3056617,0.6677521,0.69913524,move
2.0216722,2.387434,-3.0325122,0.083306745,-0.05673411,0.7131852,move
2.0216722,2.387434,-3.0325122,0.083306745,-0.05673411,0.7131852,move
2.8870032,0.77040577,2.7876344,-0.8843038,-1.0866529,0.21471913,move
2.8870032,0.77040577,2.7876344,-0.8843038,-1.0866529,0.21471913,move
-0.4776181,-1.0987239,7.0676036,-1.0846676,-0.034742963,-0.26419923,move
-0.4776181,-1.0987239,7.0676036,-1.0846676,-0.034742963,-0.26419923,move
-3.2301679,-2.1458807,4.019225,-0.53672147,1.2199743,0.082161374,move
-3.2301679,-2.1458807,4.019225,-0.53672147,1.2199743,0.082161374,move
-2.6316175,-1.7488265,-0.5169201,-0.18730655,1.4142294,0.6918049,move
-2.6316175,-1.7488265,-0.5169201,-0.18730655,1.4142294,0.6918049,move
-0.40348113,-0.40413427,-2.8171105,-0.08590292,0.7960338,1.0137309,move
-0.40348113,-0.40413427,-2.8171105,-0.08590292,0.7960338,1.0137309,move
1.3549311,0.1651969,-2.3857737,-0.08895725,0.10514518,0.8707884,move
1.3549311,0.1651969,-2.3857737,-0.013209961,-0.039629884,0.55680364,move
1.44485,-0.1949749,-1.9958482,-0.013209961,-0.039629884,0.55680364,move
1.44485,-0.1949749,-1.9958482,-0.013209961,-0.039629884,0.55680364,move
0.54978347,-1.0192432,-1.8980455,-0.008323039,0.18455766,0.3155119,move
0.54978347,-1.0192432,-1.8980455,-0.008323039,0.18455766,0.3155119,move
0.16228488,-1.4154205,-1.4268689,0.028328875,0.39774963,0.2855795,move
0.16228488,-1.4154205,-1.4268689,0.028328875,0.39774963,0.2855795,move
-0.056132495,-1.491476,-1.1669245,0.3038291,0.350713,0.29779682,move
-0.056132495,-1.491476,-1.1669245,0.3038291,0.350713,0.29779682,move
0.50852,-1.1256523,-1.6361628,0.5927684,0.24869852,0.34972036,move
0.50852,-1.1256523,-1.6361628,0.5927684,0.24869852,0.34972036,move
0.85477674,-0.5478945,-1.7632799,0.5768859,0.3000112,0.30207285,move
0.85477674,-0.5478945,-1.7632799,0.5768859,0.3000112,0.30207285,move
0.7652935,0.0211792,-0.67577314,0.41378483,0.46738827,0.19456059,move
0.7652935,0.0211792,-0.67577314,0.41378483,0.46738827,0.19456059,move
0.5481597,0.17917347,0.40616512,0.490143,0.32933274,0.051618114,move
0.5481597,0.17917347,0.40616512,0.490143,0.32933274,0.051618114,move
0.46441203,0.23314333,0.5090456,0.6874525,0.041615196,-0.032070424,move
0.46441203,0.23314333,0.5090456,0.6874525,0.041615196,-0.032070424,move
1.4976082,0.2628293,0.14936781,0.7412086,-0.3114649,-0.14446963,move
1.4976082,0.2628293,0.14936781,0.7412086,-0.3114649,-0.14446963,move
1.4104125,-0.13265848,0.32238245,0.39423716,-0.27603474,-0.38698313,move
1.4104125,-0.13265848,0.32238245,0.39423716,-0.27603474,-0.38698313,move
-0.11137304,0.39410877,1.7885199,-0.112780996,0.13324498,-0.41630468,move
-0.11137304,0.39410877,1.7885199,-0.112780996,0.13324498,-0.41630468,move
0.40591043,2.04991,1.339158,-0.120111376,0.52908564,-0.16890424,move
0.40591043,2.04991,1.339158,-0.120111376,0.52908564,-0.16890424,move
2.8871684,2.903389,-2.9782758,-0.42248967,0.69218665,-0.26358834,move
2.8871684,2.903389,-2.9782758,-0.42248967,0.69218665,-0.26358834,move
3.468077,1.8583589,-0.6506314,-1.6582701,-0.074449204,-1.0626001,move
3.468077,1.8583589,-0.6506314,-1.6582701,-0.074449204,-1.0626001,move
0.32993633,-0.9449682,7.2383857,-1.9692005,-0.2784782,-1.4865406,move
0.32993633,-0.9449682,7.2383857,-1.9692005,-0.2784782,-1.4865406,move
0.460745,-0.6514163,7.038827,-1.015029,0.16928603,-1.0803152,move
0.460745,-0.6514163,7.038827,-1.015029,0.16928603,-1.0803152,move
-1.6424528,-1.5638931,2.0432768,0.019776762,0.42157337,-0.32162055,move
-1.6424528,-1.5638931,2.0432768,0.019776762,0.42157337,-0.32162055,move
0.61275125,-0.8948083,-3.9551435,0.25251642,0.23342688,-0.061391957,move
0.61275125,-0.8948083,-3.9551435,0.25251642,0.23342688,-0.061391957,move
0.8516195,-1.4725227,-4.455245,-0.3974442,-0.36033413,-0.19822577,move
0.8516195,-1.4725227,-4.455245,-0.3974442,-0.36033413,-0.19822577,move
0.7973501,-1.3714867,-4.523842,-0.9686032,-0.5771913,-0.22876903,move
0.7973501,-1.3714867,-4.523842,-0.9686032,-0.5771913,-0.22876903,move
-0.6696578,-2.2663655,2.9590168,-0.65950537,-0.29374984,-0.014966198,move
-0.6696578,-2.2663655,2.9590168,-0.65950537,-0.29374984,-0.014966198,move
0.4732532,-1.0603762,1.424015,0.13706289,0.075212784,0.26908615,move
0.4732532,-1.0603762,1.424015,0.13706289,0.075212784,0.26908615,move
0.94333476,-0.31216145,-2.4791107,0.65446573,0.2083814,0.20616703,move
0.94333476,-0.31216145,-2.4791107,0.65446573,0.2083814,0.20616703,move
0.3811131,-0.031124592,-4.101893,0.5457317,0.106977776,0.027183503,move
0.3811131,-0.031124592,-4.101893,0.5457317,0.106977776,0.027183503,move
-0.60560524,0.086364746,-2.969285,0.2946661,-0.077503525,-0.13652839,move
-0.60560524,0.086364746,-2.969285,0.2946661,-0.077503525,-0.13652839,move
-1.3341366,-0.20020676,-0.9194021,0.24029912,-0.1764637,-0.08155051,move
-1.3341366,-0.20020676,-0.9194021,0.24029912,-0.1764637,-0.08155051,move
-1.3139509,0.28741693,0.33616734,0.36735907,-0.10804679,0.15485434,move
-1.3139509,0.28741693,0.33616734,0.36735907,-0.10804679,0.15485434,move
0.06815615,1.4238787,0.7506771,0.6349181,-0.14530957,0.28619036,move
0.06815615,1.4238787,0.7506771,0.6349181,-0.14530957,0.28619036,move
0.31586218,1.8782,-0.0619812,0.83528185,-0.15263996,0.10415252,move
0.31586218,1.8782,-0.0619812,0.83528185,-0.15263996,0.10415252,move
-0.3053516,1.253056,0.35106373,0.7607563,-0.2570979,-0.10354166,move
-0.3053516,1.253056,0.35106373,0.7607563,-0.2570979,-0.10354166,move
-1.3455145,0.42159462,1.8194609,0.60681826,-0.22838724,-0.09560041,move
-1.3455145,0.42159462,1.8194609,0.60681826,-0.22838724,-0.09560041,move
-1.6191123,0.5877075,2.8113089,0.5939901,0.28168523,0.3222314,move
-1.6191123,0.5877075,2.8113089,0.5939901,0.28168523,0.3222314,move
-3.0768073,3.0829964,-0.12536955,0.5610034,1.0886382,0.6954701,move
-3.0768073,3.0829964,-0.12536955,0.5610034,1.0886382,0.6954701,move
-0.44883683,3.9751253,-5.420192,-0.0046578473,1.08986,0.8536842,move
-0.44883683,3.9751253,-5.420192,-0.0046578473,1.08986,0.8536842,move
2.3774788,2.7131786,-1.6862693,-1.1127675,-0.8313112,0.45112398,move
2.3774788,2.7131786,-1.6862693,-1.1127675,-0.8313112,0.45112398,move
1.7632562,-0.14641571,9.533948,-1.409037,-1.7958674,-0.034513887,move
1.7632562,-0.14641571,9.533948,-1.409037,-1.7958674,-0.034513887,move
-1.2507465,-1.6264715,9.559168,-0.41088325,-0.5411503,-0.06505715,move
-1.2507465,-1.6264715,9.559168,-0.41088325,-0.5411503,-0.06505715,move
-1.3761884,-0.9954281,1.0490942,0.09735665,0.82046837,0.32406402,move
-1.3761884,-0.9954281,1.0490942,0.09735665,0.82046837,0.32406402,move
0.059702188,0.10146856,-3.2209826,-0.17997618,0.8803332,0.49266282,move
0.059702188,0.10146856,-3.2209826,-0.17997618,0.8803332,0.49266282,move
0.12470365,0.14384508,-3.2502785,-0.41027236,0.22731823,0.32711834,move
0.12470365,0.14384508,-3.2502785,-0.41027236,0.22731823,0.32711834,move
1.1513997,-1.0593028,-1.6917028,-0.29848403,-0.13920091,0.06566802,move
1.1513997,-1.0593028,-1.6917028,-0.29848403,-0.13920091,0.06566802,move
0.18226005,-1.9920292,-1.2728314,-0.06757697,-0.09216429,-0.0021380284,move
0.18226005,-1.9920292,-1.2728314,-0.06757697,-0.09216429,-0.0021380284,move
0.05485709,-2.2900264,-1.8634281,0.23113614,0.06910413,0.16218472,move
0.05485709,-2.2900264,-1.8634281,0.23113614,0.06910413,0.16218472,move
0.65663433,-1.789273,-2.2855344,0.39484802,0.15523612,0.33567044,move
0.65663433,-1.789273,-2.2855344,0.39484802,0.15523612,0.33567044,move
0.5973311,-1.3087373,-2.3517365,0.48892128,0.1735621,0.3491095,move
0.5973311,-1.3087373,-2.3517365,0.48892128,0.1735621,0.3491095,move
0.564353,-0.78870726,-2.1971292,0.5414557,0.1521818,0.26908615,move
0.564353,-0.78870726,-2.1971292,0.5414557,0.1521818,0.26908615,move
0.38559183,-0.2536764,-1.2696123,0.50358206,0.19005544,0.124311075,move
0.38559183,-0.2536764,-1.2696123,0.50358206,0.19005544,0.124311075,move
-0.22153994,-0.19089746,-0.9899683,0.49136472,0.34826955,-0.02107485,move
-0.22153994,-0.19089746,-0.9899683,0.49136472,0.34826955,-0.02107485,move
-0.49732617,-0.041460037,-0.5393338,0.5182428,0.21326832,-0.054061573,move
-0.49732617,-0.041460037,-0.5393338,0.5182428,0.21326832,-0.054061573,move
-0.041976858,-0.0026979446,0.20581675,0.5836054,-0.43547055,-0.124311075,move
-0.041976858,-0.0026979446,0.20581675,0.5768859,-0.8423068,-0.19272798,move
0.12422289,-0.5997963,2.6000867,0.5768859,-0.8423068,-0.19272798,move
0.12422289,-0.5997963,2.6000867,0.51641023,-0.65721464,-0.17134771,move
-0.021812022,-0.79418945,4.082697,0.51641023,-0.65721464,-0.17134771,move
-0.021812022,-0.79418945,4.082697,0.51641023,-0.65721464,-0.17134771,move
-0.8841925,0.47170925,3.539435,0.43883032,0.11491902,-0.038179077,move
-0.8841925,0.47170925,3.539435,0.43883032,0.11491902,-0.038179077,move
0.29821956,2.1885204,-1.665751,0.34353533,0.63965225,0.14446963,move
0.29821956,2.1885204,-1.665751,0.34353533,0.63965225,0.14446963,move
2.9960384,3.7461557,-4.4293585,-0.36262488,0.009850202,-0.20372356,move
2.9960384,3.7461557,-4.4293585,-0.36262488,0.009850202,-0.20372356,move
2.0852604,1.1205425,1.0398269,-1.4334717,-0.8508589,-1.0051788,move
2.0852604,1.1205425,1.0398269,-1.4334717,-0.8508589,-1.0051788,move
-1.0750433,-1.2714682,8.166231,-1.6814829,-0.7018078,-1.2452488,move
-1.0750433,-1.2714682,8.166231,-1.6814829,-0.7018078,-1.2452488,move
-3.0878723,-2.0645463,7.488355,-0.78717625,0.21815525,-0.77488256,move
-3.0878723,-2.0645463,7.488355,-0.78717625,0.21815525,-0.77488256,move
-1.4654107,-1.364646,1.599967,-0.025427265,0.654313,-0.087659165,move
-1.4654107,-1.364646,1.599967,-0.025427265,0.654313,-0.087659165,move
0.2816589,-0.8185401,-2.8117957,0.038713586,0.5101488,0.17195857,move
0.2816589,-0.8185401,-2.8117957,0.038713586,0.5101488,0.17195857,move
0.6616101,-1.105,-3.5048232,-0.20013472,0.13446671,0.20189096,move
0.6616101,-1.105,-3.5048232,-0.20013472,0.13446671,0.20189096,move
0.9515227,-1.332057,-2.1677113,-0.28260154,-0.1764637,0.2764165,move
0.9515227,-1.332057,-2.1677113,-0.28260154,-0.1764637,0.2764165,move
1.0296949,-1.2908745,-1.4640021,-0.1091158,-0.3187953,0.31612277,move
1.0296949,-1.2908745,-1.4640021,-0.1091158,-0.3187953,0.31612277,move
1.4843916,-0.881855,-1.3697162,0.15355626,-0.21983513,0.30390546,move
1.4843916,-0.881855,-1.3697162,0.15355626,-0.21983513,0.30390546,move
0.89338475,-0.69836426,-2.9789724,0.34658965,0.004352415,0.11881329,move
0.89338475,-0.69836426,-2.9789724,0.34658965,0.004352415,0.11881329,move
0.88600165,-0.754848,-2.9392786,0.295277,-0.010308351,-0.01863139,move
0.88600165,-0.754848,-2.9392786,0.295277,-0.010308351,-0.01863139,move
-0.55494654,-0.46738434,-2.6080537,0.088804536,-0.11476631,-0.0106901415,move
-0.55494654,-0.46738434,-2.6080537,0.088804536,-0.11476631,-0.0106901415,move
-0.92591655,-0.11571455,-0.50921726,0.10590876,-0.31268665,0.022907447,move
-0.92591655,-0.11571455,-0.50921726,0.10590876,-0.31268665,0.022907447,move
-0.42802724,0.60997343,1.4640532,0.3300963,-0.3554472,0.0870483,move
-0.42802724,0.60997343,1.4640532,0.3300963,-0.3554472,0.0870483,move
-0.42802724,0.60997343,1.4640532,0.55794907,-0.21250474,0.034513887,move
-0.20259559,0.9716282,1.2650938,0.55794907,-0.21250474,0.034513887,move
-0.23510465,1.015296,0.87422466,0.4443281,0.08559749,-0.0290161,move
-0.23510465,1.015296,0.87422466,0.4443281,0.08559749,-0.0290161,move
-0.84244394,0.70372343,1.5964398,0.2946661,0.25297457,-0.03756821,move
-0.84244394,0.70372343,1.5964398,0.2946661,0.25297457,-0.03756821,move
-1.7903081,0.7847533,2.0909343,0.3459788,0.37759107,0.10598512,move
-1.7903081,0.7847533,2.0909343,0.3459788,0.37759107,0.10598512,move
-3.0420108,2.5575743,0.16663313,0.37041342,0.73006034,0.42241332,move
-3.0420108,2.5575743,0.16663313,0.37041342,0.73006034,0.42241332,move
-0.18142186,3.284461,-3.0964642,0.051541757,0.80153155,0.70463306,move
-0.18142186,3.284461,-3.0964642,0.051541757,0.80153155,0.70463306,move
1.9166508,3.1973476,-2.3262382,-0.73097664,-0.31451926,0.38759398,move
1.9166508,3.1973476,-2.3262382,-0.73097664,-0.31451926,0.38759398,move
2.3544216,0.3586011,6.810745,-1.4194218,-1.3328316,-0.058337633,move
2.3544216,0.3586011,6.810745,-1.4194218,-1.3328316,-0.058337633,move
-0.7993796,-1.5863523,10.607508,-0.8830821,-0.6309474,-0.22510384,move
-0.7993796,-1.5863523,10.607508,-0.8830821,-0.6309474,-0.22510384,move
-1.9434193,-1.7382355,4.238697,-0.081016004,0.6518696,0.16035213,move
-1.9434193,-1.7382355,4.238697,-0.081016004,0.6518696,0.16035213,move
-0.2333461,-0.42001534,-1.5197473,0.038713586,0.9554696,0.5366451,move
-0.2333461,-0.42001534,-1.5197473,0.038713586,0.9554696,0.5366451,move
1.0916666,-0.25299263,-3.4164553,-0.118889645,0.4423428,0.44990227,move
1.0916666,-0.25299263,-3.4164553,-0.118889645,0.4423428,0.44990227,move
0.6275494,-0.99852324,-2.7877126,-0.24717134,-0.09582949,0.22082779,move
0.6275494,-0.99852324,-2.7877126,-0.24717134,-0.09582949,0.22082779,move
0.36131078,-1.6228218,-1.5555434,-0.2691625,-0.17402023,0.17562376,move
0.36131078,-1.6228218,-1.5555434,-0.2691625,-0.17402023,0.17562376,move
0.34610188,-1.9415753,-1.1113319,-0.06452264,-0.05551238,0.22937989,move
0.34610188,-1.9415753,-1.1113319,-0.06452264,-0.05551238,0.22937989,move
0.75722706,-1.4915104,-1.6946759,0.2176971,0.08071057,0.32345316,move
0.75722706,-1.4915104,-1.6946759,0.2176971,0.08071057,0.32345316,move
0.85417503,-1.2804551,-2.6967096,0.4479933,0.14301883,0.27580565,move
0.85417503,-1.2804551,-2.6967096,0.4479933,0.14301883,0.27580565,move
0.7440996,-0.95424604,-3.293738,0.41745004,0.13324498,0.16829337,move
0.7440996,-0.95424604,-3.293738,0.41745004,0.13324498,0.16829337,move
0.37339377,-0.6772952,-2.4938092,0.27939448,0.04100433,0.06078109,move
0.37339377,-0.6772952,-2.4938092,0.27939448,0.04100433,0.06078109,move
-0.19702595,-0.20913792,-0.026334286,0.31177035,-0.0622319,0.013133603,move
-0.19702595,-0.20913792,-0.026334286,0.31177035,-0.0622319,0.013133603,move
-0.3978098,0.044560432,0.19713926,0.5426774,-0.09827295,-0.043066,move
-0.3978098,0.044560432,0.19713926,0.5426774,-0.09827295,-0.043066,move
-0.26177377,0.3303113,0.6217928,0.526184,-0.21555908,-0.105374254,move
-0.26177377,0.3303113,0.6217928,0.526184,-0.21555908,-0.105374254,move
-0.037050813,0.16760206,2.0663948,0.44860417,-0.33589953,-0.20372356,move
-0.037050813,0.16760206,2.0663948,0.44860417,-0.33589953,-0.20372356,move
-0.067474306,0.09865904,2.1209683,0.45104763,-0.4263076,-0.24465153,move
-0.067474306,0.09865904,2.1209683,0.45104763,-0.4263076,-0.24465153,move
-0.19622983,-0.3137498,3.6017213,0.51518846,-0.29497156,-0.21471913,move
-0.19622983,-0.3137498,3.6017213,0.51518846,-0.29497156,-0.21471913,move
-1.1424317,1.370697,1.8710275,0.5567273,0.07765625,-0.027183503,move
-1.1424317,1.370697,1.8710275,0.5567273,0.07765625,-0.027183503,move
1.6150038,2.3948388,-1.8834276,0.444939,0.22670737,0.14080444,move
1.6150038,2.3948388,-1.8834276,0.444939,0.22670737,0.14080444,move
3.575673,2.9815898,-2.2410874,-0.31070134,-0.29008463,-0.25686884,move
3.575673,2.9815898,-2.2410874,-0.31070134,-0.29008463,-0.25686884,move
2.0899823,0.97554445,3.0255384,-1.2172253,-0.5099961,-0.926988,move
2.0899823,0.97554445,3.0255384,-1.2172253,-0.5099961,-0.926988,move
-0.3429238,-0.5423417,5.560065,-1.3247377,0.15340354,-1.180497,move
-0.3429238,-0.5423417,5.560065,-1.3247377,0.15340354,-1.180497,move
-2.2811022,-1.4075136,3.4166927,-0.83848894,0.6622543,-0.97341377,move
-2.2811022,-1.4075136,3.4166927,-0.83848894,0.6622543,-0.97341377,move
-1.8301057,-1.3901534,0.04844284,-0.34368807,0.5388595,-0.46578476,move
-1.8301057,-1.3901534,0.04844284,-0.34368807,0.5388595,-0.46578476,move
-0.66140723,-1.2845173,-1.6509848,-0.1408808,0.053221636,-0.1151481,move
-0.66140723,-1.2845173,-1.6509848,-0.1408808,0.053221636,-0.1151481,move
-0.10701983,-1.5712395,-1.6499414,-0.08162687,-0.23205243,0.07422013,move
-0.10701983,-1.5712395,-1.6499414,-0.08162687,-0.23205243,0.07422013,move
0.24572103,-1.5215306,-1.9927645,0.020998493,-0.28825203,0.2452624,move
0.24572103,-1.5215306,-1.9927645,0.020998493,-0.28825203,0.2452624,move
0.9534373,-0.9983587,-1.675426,0.039935317,-0.25404358,0.31306845,move
0.9534373,-0.9983587,-1.675426,0.039935317,-0.25404358,0.31306845,move
1.4307811,-0.4468813,-1.7132902,0.18287778,-0.22594379,0.18845193,move
1.4307811,-0.4468813,-1.7132902,0.18287778,-0.22594379,0.18845193,move
0.92519826,-0.3824873,-2.0219316,0.28550315,-0.17402023,-0.03940081,move
0.92519826,-0.3824873,-2.0219316,0.28550315,-0.17402023,-0.03940081,move
-0.078901105,-0.52181005,-2.3580527,0.34353533,-0.1727985,-0.14813483,move
-0.078901105,-0.52181005,-2.3580527,0.34353533,-0.1727985,-0.14813483,move
-0.37598407,-0.3769126,-2.312039,0.3636939,-0.19112447,-0.12675454,move
-0.37598407,-0.3769126,-2.312039,0.3636939,-0.19112447,-0.12675454,move
-0.5258029,-0.18703079,-2.2314825,0.32215506,-0.1043816,-0.098043874,move
-0.5258029,-0.18703079,-2.2314825,0.32215506,-0.1043816,-0.098043874,move
-0.170835,0.15967512,-1.0811481,0.1914299,-0.11049025,-0.089491755,move
-0.170835,0.15967512,-1.0811481,0.1914299,-0.11049025,-0.089491755,move
-0.19811697,0.44993114,0.6594038,0.17799085,-0.18990274,-0.15118915,move
-0.19811697,0.44993114,0.6594038,0.17799085,-0.18990274,-0.15118915,move
-0.737149,0.29333353,1.6274443,0.25373816,-0.15447254,-0.15363261,move
-0.737149,0.29333353,1.6274443,0.25373816,-0.15447254,-0.15363261,move
-1.0666817,0.06578827,2.4108233,0.26656634,0.12530373,3.0543262E-4,move
-1.0666817,0.06578827,2.4108233,0.26656634,0.12530373,3.0543262E-4,move
-1.1091452,0.44117165,2.246914,0.19448422,0.5241987,0.21105394,move
-1.1091452,0.44117165,2.246914,0.19448422,0.5241987,0.21105394,move
-1.312456,1.4069324,2.6018844,0.15355626,0.70868003,0.40958515,move
-1.312456,1.4069324,2.6018844,0.15355626,0.70868003,0.40958515,move
-1.8043773,3.1265702,-0.33002186,0.28855747,0.99334323,0.61178154,move
-1.8043773,3.1265702,-0.33002186,0.28855747,0.99334323,0.61178154,move
-0.1539011,2.7846308,-3.3239841,0.061926465,0.4631122,0.6270532,move
-0.1539011,2.7846308,-3.3239841,0.061926465,0.4631122,0.6270532,move
1.4512609,1.1556983,1.7233062,-0.6124688,-0.7897724,0.50243664,move
1.4512609,1.1556983,1.7233062,-0.6124688,-0.7897724,0.50243664,move
1.5379602,-0.18281412,7.809521,-0.7511352,-1.0799334,0.33017266,move
1.5379602,-0.18281412,7.809521,-0.7511352,-1.0799334,0.33017266,move
0.42685503,-0.4772277,4.6208467,-0.2373975,0.031230485,0.2556471,move
0.42685503,-0.4772277,4.6208467,-0.2373975,0.031230485,0.2556471,move
-0.16836452,-0.5119252,-0.54031134,-0.22823453,0.87911147,0.2660318,move
-0.16836452,-0.5119252,-0.54031134,-0.22823453,0.87911147,0.2660318,move
0.17323418,-0.2696581,-2.7272162,-0.48113275,0.44845146,0.22021692,move
0.17323418,-0.2696581,-2.7272162,-0.48113275,0.44845146,0.22021692,move
0.3454837,-1.0584488,-0.92430735,-0.5012913,-0.27359128,0.13591751,move
0.3454837,-1.0584488,-0.92430735,-0.5012913,-0.27359128,0.13591751,move
0.3454837,-1.0584488,-0.92430735,-0.5012913,-0.27359128,0.13591751,move
0.3454837,-1.0584488,-0.92430735,-0.5012913,-0.27359128,0.13591751,move
0.3454837,-1.0584488,-0.92430735,-0.5012913,-0.27359128,0.13591751,move
0.3454837,-1.0584488,-0.92430735,-0.2813798,-0.3310126,0.11209377,move
0.3265959,-1.8472695,-0.2090497,-0.022372939,0.28840476,0.26053402,move
0.8139286,-1.1272273,-0.8537321,-0.022372939,0.28840476,0.26053402,move
1.2284033,-0.8747525,-1.0227995,0.17493653,0.3299436,0.20861048,move
1.2284033,-0.8747525,-1.0227995,0.17493653,0.3299436,0.20861048,move
1.0722189,-0.85932875,-2.3602715,0.48953214,0.2578615,0.10293079,move
1.0722189,-0.85932875,-2.3602715,0.48953214,0.2578615,0.10293079,move
0.78750235,-0.96905947,-3.5270472,0.5591708,0.1961641,9.162979E-4,move
0.78750235,-0.96905947,-3.5270472,0.5591708,0.1961641,9.162979E-4,move
-0.19557226,-0.9087949,-2.8546872,0.35453093,0.21449006,-0.051618114,move
-0.19557226,-0.9087949,-2.8546872,0.24396431,0.22915083,-0.030848695,move
-0.77677643,-0.40752268,-1.860826,0.24396431,0.22915083,-0.030848695,move
-0.77677643,-0.40752268,-1.860826,0.24396431,0.22915083,-0.030848695,move
-0.4693813,0.19505358,-0.7854347,0.295277,-0.013362677,-0.023518313,move
-0.4693813,0.19505358,-0.7854347,0.295277,-0.013362677,-0.023518313,move
-0.7483213,0.30050087,0.70179987,0.40340012,-0.37377316,-0.101098195,move
-0.7483213,0.30050087,0.70179987,0.40340012,-0.37377316,-0.101098195,move
-0.984244,-0.064363,1.5891805,0.49808425,-0.5826891,-0.12675454,move
-0.984244,-0.064363,1.5891805,0.49808425,-0.5826891,-0.12675454,move
-0.47933775,-0.10652828,2.793714,0.44310638,-0.6016259,-0.09437868,move
-0.47933775,-0.10652828,2.793714,0.44310638,-0.6016259,-0.09437868,move
-0.40696663,0.50358963,3.2734036,0.32032245,-0.25098926,-0.058948494,move
-0.40696663,0.50358963,3.2734036,0.32032245,-0.25098926,-0.058948494,move
-1.1595964,2.3872929,1.7105675,0.24518603,0.27191138,0.003970624,move
-1.1595964,2.3872929,1.7105675,0.24518603,0.27191138,0.003970624,move
1.0519673,2.820075,-2.0126739,0.08391761,0.4722752,0.030848695,move
1.0519673,2.820075,-2.0126739,0.08391761,0.4722752,0.030848695,move
2.201233,2.5327487,-0.1769557,-0.76885027,-0.37560576,-0.49510628,move
2.201233,2.5327487,-0.1769557,-0.76885027,-0.37560576,-0.49510628,move
0.4172861,0.43268776,6.10823,-1.0351875,-0.47945285,-0.87995136,move
0.4172861,0.43268776,6.10823,-1.0351875,-0.47945285,-0.87995136,move
-1.7110838,-0.8078532,6.6990323,-0.49396092,-0.01947133,-0.77854776,move
-1.7110838,-0.8078532,6.6990323,-0.49396092,-0.01947133,-0.77854776,move
-1.2671725,-0.9043622,2.881816,0.006337727,0.35682166,-0.28313604,move
-1.2671725,-0.9043622,2.881816,0.006337727,0.35682166,-0.28313604,move
0.56107527,-0.45352745,-1.2370782,0.093080595,0.43745586,-0.01740966,move
0.56107527,-0.45352745,-1.2370782,0.093080595,0.43745586,-0.01740966,move
1.7505373,-1.2563772,-3.5871177,-0.10361802,0.27985263,-0.035124753,move
1.7505373,-1.2563772,-3.5871177,-0.10361802,0.27985263,-0.035124753,move
1.4075276,-1.9843187,-3.987421,-0.32475123,0.047112983,-0.08155051,move
1.4075276,-1.9843187,-3.987421,-0.32475123,0.047112983,-0.08155051,move
1.1713542,-2.363778,-3.3427887,-0.4359287,-0.19601138,0.0027488936,move
1.1713542,-2.363778,-3.3427887,-0.4359287,-0.19601138,0.0027488936,move
1.3798215,-1.8361936,-1.7600279,-0.40721804,-0.30230194,0.10903945,move
1.3798215,-1.8361936,-1.7600279,-0.40721804,-0.30230194,0.10903945,move
1.5070626,-1.1580682,-1.240767,-0.19341521,-0.35972327,0.05955936,move
1.5070626,-1.1580682,-1.240767,-0.19341521,-0.35972327,0.05955936,move
0.80378747,-1.0741844,-1.1382737,-0.049861874,-0.2888629,-0.11881329,move
0.80378747,-1.0741844,-1.1382737,-0.049861874,-0.2888629,-0.11881329,move
-0.31734717,-1.0762472,-1.6182556,-0.0016035213,-0.08666651,-0.1872302,move
-0.31734717,-1.0762472,-1.6182556,-0.0016035213,-0.08666651,-0.1872302,move
-0.95467657,-1.03895,-2.0150633,0.03932445,0.056886826,-0.12064589,move
-0.95467657,-1.03895,-2.0150633,0.03932445,0.056886826,-0.12064589,move
-0.8453475,-0.44185162,-2.017661,0.01366811,0.023289237,0.042455133,move
-0.8453475,-0.44185162,-2.017661,0.03688099,-0.29191723,0.15302174,move
-0.10531477,0.445477,0.03493929,0.03688099,-0.29191723,0.15302174,move
-0.10531477,0.445477,0.03493929,0.03688099,-0.29191723,0.15302174,move
0.10458705,1.0668006,2.2695932,0.25862506,-0.56802833,0.11942416,move
0.10458705,1.0668006,2.2695932,0.25862506,-0.56802833,0.11942416,move
-0.29636225,1.1174889,2.1112647,0.4974734,-0.3218496,0.027794369,move
-0.29636225,1.1174889,2.1112647,0.4974734,-0.3218496,0.027794369,move
-0.9288725,0.8752103,2.1989164,0.32765284,0.15767959,0.018020526,move
-0.9288725,0.8752103,2.1989164,0.32765284,0.15767959,0.018020526,move
-1.657083,1.0923395,2.86583,0.18715385,0.5083162,0.122478485,move
-1.657083,1.0923395,2.86583,0.18715385,0.5083162,0.122478485,move
-1.8665087,1.7152839,2.562726,0.42600214,0.51381403,0.33017266,move
-1.8665087,1.7152839,2.562726,0.42600214,0.51381403,0.33017266,move
-2.5780094,3.0283031,-0.72372675,0.5463426,0.6653086,0.48899764,move
-2.5780094,3.0283031,-0.72372675,0.5463426,0.6653086,0.48899764,move
-2.5455022,2.957634,-0.6685028,0.027718011,0.2260965,0.5006041,move
-2.5455022,2.957634,-0.6685028,0.027718011,0.2260965,0.5006041,move
0.97817165,1.9500132,0.31288004,-0.9038515,-0.5209917,0.2770274,move
0.97817165,1.9500132,0.31288004,-0.9038515,-0.5209917,0.2770274,move
1.3306983,-0.5795407,8.683426,-1.0956632,-0.71707946,-0.03268129,move
1.3306983,-0.5795407,8.683426,-1.0956632,-0.71707946,-0.03268129,move
-1.1902115,-1.3792529,7.234179,-0.34002286,0.5370269,-0.054061573,move
-1.1902115,-1.3792529,7.234179,-0.34002286,0.5370269,-0.054061573,move
-1.3342497,-1.0873961,-0.07903004,0.13278683,1.3036628,0.23365596,move
-1.3342497,-1.0873961,-0.07903004,0.13278683,1.3036628,0.23365596,move
-0.3984344,-0.12629032,-3.8825383,0.006337727,0.8485682,0.42546764,move
-0.3984344,-0.12629032,-3.8825383,0.006337727,0.8485682,0.42546764,move
0.6116145,-0.167727,-3.4461226,-0.23128885,0.031230485,0.33505958,move
0.6116145,-0.167727,-3.4461226,-0.23128885,0.031230485,0.33505958,move
0.7450955,-0.9602232,-0.72775316,-0.39805508,-0.1202641,0.17073683,move
0.7450955,-0.9602232,-0.72775316,-0.39805508,-0.1202641,0.17073683,move
0.24333414,-1.8925569,-0.084646225,-0.21174116,0.2590832,0.122478485,move
0.24333414,-1.8925569,-0.084646225,-0.21174116,0.2590832,0.122478485,move
0.35508522,-1.9745204,-1.7946405,0.12545645,0.5315291,0.25137106,move
0.35508522,-1.9745204,-1.7946405,0.12545645,0.5315291,0.25137106,move
1.1308445,-1.5217576,-3.4874225,0.3667482,0.40508002,0.3399465,move
1.1308445,-1.5217576,-3.4874225,0.3667482,0.40508002,0.3399465,move
1.031777,-1.2994466,-3.873746,0.4095088,0.08559749,0.2593123,move
1.031777,-1.2994466,-3.873746,0.4095088,0.08559749,0.2593123,move
0.4364407,-1.1446729,-3.35176,0.32032245,-0.025579982,0.17134771,move
0.4364407,-1.1446729,-3.35176,0.32032245,-0.025579982,0.17134771,move
-0.2537392,-0.7382822,-2.3663216,0.14256068,0.054443367,0.11209377,move
-0.2537392,-0.7382822,-2.3663216,0.14256068,0.054443367,0.11209377,move
-0.59699035,-0.428092,-0.8872676,-0.02603813,0.15157095,0.11148291,move
-0.59699035,-0.428092,-0.8872676,-0.02603813,0.15157095,0.11148291,move
0.05278145,0.20746708,0.4323969,-0.02115121,0.11308643,0.1731803,move
0.05278145,0.20746708,0.4323969,0.22014056,-0.31818444,0.07788532,move
0.7149232,0.9033332,1.9520631,0.22014056,-0.31818444,0.07788532,move
0.7149232,0.9033332,1.9520631,0.46448666,-0.7158577,-0.113926366,move
0.76998806,0.8101468,3.0611315,0.46448666,-0.7158577,-0.113926366,move
0.76998806,0.8101468,3.0611315,0.46448666,-0.7158577,-0.113926366,move
0.18504326,0.09348011,3.8663487,0.44677156,-0.610178,-0.29168814,move
0.18504326,0.09348011,3.8663487,0.44677156,-0.610178,-0.29168814,move
-0.4359902,-0.15480566,4.273359,0.33498323,-0.054901514,-0.27763826,move
-0.4359902,-0.15480566,4.273359,0.33498323,-0.054901514,-0.27763826,move
-1.4765482,1.693233,2.3052197,0.381409,0.36170858,-0.13347405,move
-1.4765482,1.693233,2.3052197,0.381409,0.36170858,-0.13347405,move
0.8172461,2.9454927,-1.1961632,0.231747,0.36903897,-0.04734206,move
0.8172461,2.9454927,-1.1961632,0.231747,0.36903897,-0.04734206,move
2.6976662,3.1220345,-1.3760719,-0.44020477,-0.29130638,-0.50671273,move
2.6976662,3.1220345,-1.3760719,-0.44020477,-0.29130638,-0.50671273,move
1.3578852,0.46891975,3.822977,-1.091998,-0.60406935,-0.9923506,move
1.3578852,0.46891975,3.822977,-1.091998,-0.60406935,-0.9923506,move
-0.4340876,-0.7115364,6.810001,-0.897132,-0.26503915,-0.9630291,move
-0.4340876,-0.7115364,6.810001,-0.897132,-0.26503915,-0.9630291,move
-0.74541914,-1.0845866,4.341277,-0.2599995,0.23953554,-0.60994893,move
-0.74541914,-1.0845866,4.341277,-0.2599995,0.23953554,-0.60994893,move
0.039824948,-1.0825868,-0.8121896,0.16760615,0.51320314,-0.2874121,move
0.039824948,-1.0825868,-0.8121896,0.16760615,0.51320314,-0.2874121,move
0.42390066,-1.8550167,-3.7864757,0.18043432,0.19372064,-0.14935656,move
0.42390066,-1.8550167,-3.7864757,0.18043432,0.19372064,-0.14935656,move
0.1839999,-2.0436885,-3.9377131,0.02405282,-0.25160012,3.0543262E-4,move
0.1839999,-2.0436885,-3.9377131,0.02405282,-0.25160012,3.0543262E-4,move
0.58351856,-1.4157944,-2.9343786,-0.012599096,-0.3187953,0.16279559,move
0.58351856,-1.4157944,-2.9343786,-0.012599096,-0.3187953,0.16279559,move
0.5346733,-1.2893548,-4.058065,0.15783231,-0.06772968,0.129198,move
0.5346733,-1.2893548,-4.058065,0.15783231,-0.06772968,0.129198,move
0.7113269,-1.0264249,-4.996531,0.072922036,-5.345071E-4,-0.008857546,move
0.7113269,-1.0264249,-4.996531,0.072922036,-5.345071E-4,-0.008857546,move
0.2268515,-0.6262369,-2.9125223,-0.26977336,-0.08116872,-0.24220806,move
0.2268515,-0.6262369,-2.9125223,-0.26977336,-0.08116872,-0.24220806,move
-0.20994711,-0.41110325,-0.3462453,-0.29054278,-0.23144157,-0.35216382,move
-0.20994711,-0.41110325,-0.3462453,-0.29054278,-0.23144157,-0.35216382,move
-0.7384593,-0.29597712,0.8848233,0.07841983,-0.37804922,-0.3827071,move
-0.7384593,-0.29597712,0.8848233,0.07841983,-0.37804922,-0.3827071,move
-0.8304585,-0.21898794,2.1405997,0.2757293,-0.23388503,-0.2855795,move
-0.8304585,-0.21898794,2.1405997,0.2757293,-0.23388503,-0.2855795,move
-0.31801677,0.44992018,2.382625,0.4284456,0.020845776,-0.15668693,move
-0.31801677,0.44992018,2.382625,0.4284456,0.020845776,-0.15668693,move
0.1709364,0.75850534,1.6332092,0.4974734,0.26397014,-0.13836098,move
0.1709364,0.75850534,1.6332092,0.4974734,0.26397014,-0.13836098,move
-0.53767014,0.24287558,0.44971704,0.42905647,0.42340598,-0.11026118,move
-0.53767014,0.24287558,0.44971704,0.42905647,0.42340598,-0.11026118,move
-1.3126588,-0.2629323,0.1196332,0.25495988,0.49426633,0.11148291,move
-1.3126588,-0.2629323,0.1196332,0.25495988,0.49426633,0.11148291,move
-1.6648619,-0.17591763,1.5263286,0.17738,0.38369974,0.48716503,move
-1.6648619,-0.17591763,1.5263286,0.17738,0.38369974,0.48716503,move
-1.5891616,0.62258005,2.3495889,0.37468946,0.24992025,0.8793405,move
-1.5891616,0.62258005,2.3495889,0.37468946,0.24992025,0.8793405,move
-1.8285971,2.2617397,0.14619923,0.5652794,0.37942368,1.1603385,move
-1.8285971,2.2617397,0.14619923,0.5652794,0.37942368,1.1603385,move
0.07224339,2.0399528,-3.2958207,0.263512,0.19738583,1.2525792,move
0.07224339,2.0399528,-3.2958207,0.263512,0.19738583,1.2525792,move
1.7598178,1.3087306,0.39597273,-0.57581687,-0.56863916,1.0589349,move
1.7598178,1.3087306,0.39597273,-0.57581687,-0.56863916,1.0589349,move
0.9315754,-0.22842598,5.7138953,-0.7908414,-0.77816594,0.70646566,move
0.9315754,-0.22842598,5.7138953,-0.7908414,-0.77816594,0.70646566,move
0.1655632,-0.73420763,3.0424461,-0.23678663,0.070936725,0.6441574,move
0.1655632,-0.73420763,3.0424461,-0.23678663,0.070936725,0.6441574,move
0.67712766,-0.37656736,-1.8896184,-0.1286635,0.60422206,0.636827,move
0.67712766,-0.37656736,-1.8896184,-0.1286635,0.60422206,0.636827,move
1.3389674,0.16806126,-3.5020347,-0.51839554,0.42035165,0.4382958,move
1.3389674,0.16806126,-3.5020347,-0.51839554,0.42035165,0.4382958,move
1.3389674,0.16806126,-3.5020347,-0.51839554,0.42035165,0.4382958,move
0.9326444,-0.39037132,-0.5563998,-0.8983537,-0.04390594,0.07971791,move
-0.054356724,-1.2918439,1.5370007,-0.82016295,-0.083001316,-0.14996742,move
-0.054356724,-1.2918439,1.5370007,-0.82016295,-0.083001316,-0.14996742,move
-0.9955069,-2.1418605,1.3279066,-0.39438987,0.11491902,-0.13408493,move
-0.9955069,-2.1418605,1.3279066,-0.39438987,0.11491902,-0.13408493,move
0.13275194,-1.669497,-1.2493734,0.17249307,0.22731823,0.1731803,move
0.13275194,-1.669497,-1.2493734,0.17249307,0.22731823,0.1731803,move
1.3918493,-0.93437815,-2.8520508,0.2842814,0.07826711,0.16523905,move
1.3918493,-0.93437815,-2.8520508,0.2842814,0.07826711,0.16523905,move
1.6195877,-0.71734667,-3.1219926,0.19204076,0.050167307,0.0015271631,move
1.6195877,-0.71734667,-3.1219926,0.19204076,0.050167307,0.0015271631,move
1.2061872,-0.5592432,-2.3516893,0.110795684,0.09292787,-0.13408493,move
1.2061872,-0.5592432,-2.3516893,0.110795684,0.09292787,-0.13408493,move
0.38133246,-0.39356184,-1.4918046,0.11629347,0.021456642,-0.21655174,move
0.38133246,-0.39356184,-1.4918046,0.11629347,0.021456642,-0.21655174,move
-0.26562342,-0.0012125969,-0.028197289,0.199982,-0.1605812,-0.2012801,move
-0.26562342,-0.0012125969,-0.028197289,0.199982,-0.1605812,-0.2012801,move
-0.24484424,0.40950203,1.2385054,0.36919168,-0.36399934,-0.18784106,move
-0.24484424,0.40950203,1.2385054,0.36919168,-0.36399934,-0.18784106,move
0.026073188,0.54020786,1.9374332,0.4516585,-0.42569673,-0.23243423,move
0.026073188,0.54020786,1.9374332,0.4516585,-0.42569673,-0.23243423,move
0.45123422,0.45079184,1.9811587,0.42783475,-0.4067599,-0.30879238,move
0.45123422,0.45079184,1.9811587,0.42783475,-0.4067599,-0.30879238,move
0.29846242,0.12445927,3.3277378,0.30260736,-0.38782308,-0.410196,move
0.29846242,0.12445927,3.3277378,0.30260736,-0.38782308,-0.410196,move
-1.0691446,0.7379012,4.111572,0.3459788,-0.17157678,-0.37659842,move
-1.0691446,0.7379012,4.111572,0.3459788,-0.17157678,-0.37659842,move
-1.2038349,2.0706434,-0.104260445,0.4107305,0.21510093,-0.24831672,move
-1.2038349,2.0706434,-0.104260445,0.4107305,0.21510093,-0.24831672,move
0.46479398,3.3523288,-2.6686563,-0.2832124,0.10025826,-0.27763826,move
0.46479398,3.3523288,-2.6686563,-0.2832124,0.10025826,-0.27763826,move
1.8824617,1.78336,2.6898484,-1.3119094,-0.45807257,-0.6979135,move
1.8824617,1.78336,2.6898484,-1.3119094,-0.45807257,-0.6979135,move
0.5845938,-0.16591406,9.193384,-1.536097,-0.338343,-1.0656544,move
0.5845938,-0.16591406,9.193384,-1.536097,-0.338343,-1.0656544,move
-1.8864392,-1.309617,8.23205,-0.7187593,0.48754683,-0.97035944,move
-1.8864392,-1.309617,8.23205,-0.7187593,0.48754683,-0.97035944,move
-1.4937238,-1.8019845,1.8956213,0.1914299,0.94203055,-0.49266282,move
-1.4937238,-1.8019845,1.8956213,0.1914299,0.94203055,-0.49266282,move
-0.22899231,-1.3951283,-3.1195679,0.42233697,0.826577,-0.12003502,move
-0.22899231,-1.3951283,-3.1195679,0.42233697,0.826577,-0.12003502,move
0.4351897,-1.7872605,-4.5795608,0.27634016,0.16745344,0.011301007,move
0.4351897,-1.7872605,-4.5795608,0.27634016,0.16745344,0.011301007,move
0.60847354,-1.8765657,-4.7406626,0.16882788,-0.16180293,0.09437868,move
0.60847354,-1.8765657,-4.7406626,0.09552405,-0.3279583,0.12492194,move
1.0262077,-1.421092,-3.5556831,0.09552405,-0.3279583,0.12492194,move
1.0262077,-1.421092,-3.5556831,0.09552405,-0.3279583,0.12492194,move
0.7175211,-1.2617998,-2.870337,0.1559997,-0.29985848,0.021685716,move
0.7175211,-1.2617998,-2.870337,0.1559997,-0.29985848,0.021685716,move
0.2353972,-1.1666031,-2.9268665,0.19876029,-0.24365887,-0.027183503,move
0.2353972,-1.1666031,-2.9268665,0.19876029,-0.24365887,-0.027183503,move
0.09290421,-0.87196016,-2.8606443,0.2580142,-0.37132972,-0.025350908,move
0.09290421,-0.87196016,-2.8606443,0.2580142,-0.37132972,-0.025350908,move
0.1126625,-0.35865164,-2.5441027,0.2842814,-0.4556291,-0.027183503,move
0.1126625,-0.35865164,-2.5441027,0.2842814,-0.4556291,-0.027183503,move
-0.098672256,0.1269536,-2.0940614,0.23419046,-0.2955824,-0.09010262,move
-0.098672256,0.1269536,-2.0940614,0.23419046,-0.2955824,-0.09010262,move
-0.17595717,0.37175465,-1.7321167,0.1474476,-0.03901902,-0.14996742,move
-0.17595717,0.37175465,-1.7321167,0.1474476,-0.03901902,-0.14996742,move
-0.54229724,0.19813299,-1.0251942,0.17188221,-0.10865766,-0.15424347,move
-0.54229724,0.19813299,-1.0251942,0.17188221,-0.10865766,-0.15424347,move
-0.535778,0.1817851,0.08255863,0.28244883,-0.37132972,-0.062002823,move
-0.535778,0.1817851,0.08255863,0.28244883,-0.37132972,-0.062002823,move
-0.98690057,0.17864275,1.2255015,0.34536794,-0.45929432,0.049785517,move
-0.98690057,0.17864275,1.2255015,0.34536794,-0.45929432,0.049785517,move
-0.7724004,0.6284008,2.1094942,0.28855747,-0.2045635,0.2415972,move
-0.7724004,0.6284008,2.1094942,0.28855747,-0.2045635,0.2415972,move
-0.223328,1.3365712,3.529111,0.17310394,0.12041681,0.32834008,move
-0.223328,1.3365712,3.529111,0.17310394,0.12041681,0.32834008,move
-0.014388882,2.120306,4.174352,0.2512947,0.509538,0.3051272,move
-0.014388882,2.120306,4.174352,0.2512947,0.509538,0.3051272,move
-1.4960505,2.8450007,-0.12295437,0.5023603,0.96279997,0.30634892,move
-1.4960505,2.8450007,-0.12295437,0.5023603,0.96279997,0.30634892,move
-0.58643156,2.8129973,-2.1563134,0.36247218,0.43073636,0.44684792,move
-0.58643156,2.8129973,-2.1563134,0.36247218,0.43073636,0.44684792,move
1.5822386,2.066506,-0.9000988,-0.09934196,-0.28825203,0.42852196,move
1.5822386,2.066506,-0.9000988,-0.09934196,-0.28825203,0.42852196,move
1.5723433,0.79312277,3.7510138,-0.6625597,-0.51793736,0.06566802,move
1.5723433,0.79312277,3.7510138,-0.6625597,-0.51793736,0.06566802,move
0.23009206,-0.27015066,4.078949,-0.4976261,0.1857794,-0.10903945,move
0.23009206,-0.27015066,4.078949,-0.4976261,0.1857794,-0.10903945,move
-0.7917308,-0.44261312,-0.0209136,-0.42126796,0.7056257,-0.09254608,move
-0.7917308,-0.44261312,-0.0209136,-0.42126796,0.7056257,-0.09254608,move
-0.427294,-0.38797855,-2.4953156,-0.51717377,0.51137054,-0.04795292,move
-0.427294,-0.38797855,-2.4953156,-0.51717377,0.51137054,-0.04795292,move
-8.6158514E-4,-0.9126749,-2.048605,-0.60758185,-0.23877195,-0.07544186,move
-8.6158514E-4,-0.9126749,-2.048605,-0.60758185,-0.23877195,-0.07544186,move
0.41148618,-1.3212218,0.36584997,-0.5947537,-0.4825072,-0.10048734,move
0.41148618,-1.3212218,0.36584997,-0.5947537,-0.4825072,-0.10048734,move
-0.3993141,-2.4141254,1.2808795,-0.4096615,-0.10682506,-0.09193522,move
-0.3993141,-2.4141254,1.2808795,-0.4096615,-0.10682506,-0.09193522,move
-0.31992084,-2.4466674,0.098716736,-0.12194397,0.29084823,0.12614368,move
-0.31992084,-2.4466674,0.098716736,-0.12194397,0.29084823,0.12614368,move
0.6484999,-1.8111205,-1.6403723,0.16821702,0.3195589,0.28069258,move
0.6484999,-1.8111205,-1.6403723,0.16821702,0.3195589,0.28069258,move
1.1535101,-1.2329097,-2.7688522,0.29100093,0.10392345,0.2452624,move
1.1535101,-1.2329097,-2.7688522,0.29100093,0.10392345,0.2452624,move
0.8104265,-1.1859064,-2.2950726,0.27328584,-0.0622319,0.15485434,move
0.8104265,-1.1859064,-2.2950726,0.27328584,-0.0622319,0.15485434,move
0.3921005,-0.75452137,-1.3972135,0.2671772,-0.074449204,0.1432479,move
0.3921005,-0.75452137,-1.3972135,0.2671772,-0.074449204,0.1432479,move
0.18105888,-0.20118904,-0.5660491,0.27878362,-0.012140946,0.14996742,move
0.18105888,-0.20118904,-0.5660491,0.27878362,-0.012140946,0.14996742,move
0.5648001,0.6788497,0.57777786,0.30810517,-0.067118816,0.11026118,move
0.5648001,0.6788497,0.57777786,0.30810517,-0.067118816,0.11026118,move
0.55042297,0.8933625,1.013988,0.39057195,-0.14347698,-0.08032878,move
0.55042297,0.8933625,1.013988,0.39057195,-0.14347698,-0.08032878,move
0.18643793,0.2720995,1.4194131,0.42416954,-0.31574097,-0.2764165,move
0.18643793,0.2720995,1.4194131,0.42416954,-0.31574097,-0.2764165,move
-0.098340556,-0.23340464,3.1395297,0.34475708,-0.4806746,-0.35155296,move
-0.098340556,-0.23340464,3.1395297,0.34475708,-0.4806746,-0.35155296,move
-0.148947,-0.014600277,4.5790653,0.404011,-0.3554472,-0.28191432,move
-0.148947,-0.014600277,4.5790653,0.404011,-0.3554472,-0.28191432,move
-0.57438046,2.0046773,1.878139,0.63858324,0.094149604,-0.05467244,move
-0.57438046,2.0046773,1.878139,0.63858324,0.094149604,-0.05467244,move
1.4778204,2.87251,-2.1448035,0.263512,0.16134478,-0.07360926,move
1.4778204,2.87251,-2.1448035,0.263512,0.16134478,-0.07360926,move
2.5300643,2.9093747,-0.8565912,-0.7260897,-0.39393172,-0.6209445,move
2.5300643,2.9093747,-0.8565912,-0.7260897,-0.39393172,-0.6209445,move
0.84142977,0.39160824,5.560703,-1.3314571,-0.40065125,-1.1560625,move
0.84142977,0.39160824,5.560703,-1.3314571,-0.40065125,-1.1560625,move
-2.0551162,-1.2900729,8.61944,-0.90629494,0.1680643,-1.0980303,move
-2.0551162,-1.2900729,8.61944,-0.90629494,0.1680643,-1.0980303,move
-2.068448,-1.5947032,4.783567,-0.027259862,0.6872998,-0.49327368,move
-2.068448,-1.5947032,4.783567,-0.027259862,0.6872998,-0.49327368,move
-0.18829727,-0.855453,-1.4478488,0.3093269,0.67508245,-0.052839845,move
-0.18829727,-0.855453,-1.4478488,0.3093269,0.67508245,-0.052839845,move
0.9255924,-1.2834597,-4.071306,0.096134916,0.26580274,0.008857546,move
0.9255924,-1.2834597,-4.071306,0.096134916,0.26580274,0.008857546,move
0.6167162,-1.8384385,-3.7038407,-0.28565586,-0.1379792,-0.013744468,move
0.6167162,-1.8384385,-3.7038407,-0.28565586,-0.1379792,-0.013744468,move
0.7480577,-1.847343,-1.5660052,-0.4218788,-0.30902144,0.0852157,move
0.7480577,-1.847343,-1.5660052,-0.4218788,-0.30902144,0.0852157,move
0.85165393,-1.7411151,-1.431045,-0.1109484,-0.28458685,0.12308934,move
0.85165393,-1.7411151,-1.431045,-0.1109484,-0.28458685,0.12308934,move
1.0347815,-1.3170543,-2.9123135,0.08636107,-0.27114782,0.10048734,move
1.0347815,-1.3170543,-2.9123135,0.08636107,-0.27114782,0.10048734,move
0.8610326,-1.1378026,-2.3047519,0.03504839,-0.34078646,0.01740966,move
0.8610326,-1.1378026,-2.3047519,0.03504839,-0.34078646,0.01740966,move
0.24638563,-0.89949036,-1.8353767,0.09735665,-0.27236953,-0.0729984,move
0.24638563,-0.89949036,-1.8353767,0.17310394,-0.14225525,-0.09560041,move
-0.81217355,-0.8757715,-2.4873242,0.17310394,-0.14225525,-0.09560041,move
-0.81217355,-0.8757715,-2.4873242,0.17310394,-0.14225525,-0.09560041,move
-1.252712,-0.568367,-1.410748,0.13523029,-0.20578523,0.0571159,move
-1.252712,-0.568367,-1.410748,0.13523029,-0.20578523,0.0571159,move
-1.0428131,0.17101765,-0.16326332,0.26290113,-0.43363798,0.25442538,move
-1.0428131,0.17101765,-0.16326332,0.26290113,-0.43363798,0.25442538,move
0.09374328,1.1808863,0.4767456,0.45837802,-0.5643631,0.3662137,move
0.09374328,1.1808863,0.4767456,0.45837802,-0.5643631,0.3662137,move
0.45463297,1.4839182,0.21595907,0.4534911,-0.20150918,0.21838433,move
0.45463297,1.4839182,0.21595907,0.4534911,-0.20150918,0.21838433,move
-0.4247662,1.3242345,0.91787624,0.2140319,0.07460192,0.10354166,move
-0.4247662,1.3242345,0.91787624,0.2140319,0.07460192,0.10354166,move
-1.1486939,1.3337941,2.0086641,0.07414377,0.2700788,0.12492194,move
-1.1486939,1.3337941,2.0086641,0.07414377,0.2700788,0.12492194,move
-1.562508,1.2730403,2.7755365,0.08697194,0.35865426,0.27152961,move
-1.562508,1.2730403,2.7755365,0.08697194,0.35865426,0.27152961,move
-1.943718,2.2704873,3.0647397,0.24640776,0.45089492,0.49877146,move
-1.943718,2.2704873,3.0647397,0.24640776,0.45089492,0.49877146,move
-1.515978,3.3555245,-0.22972202,0.36919168,0.7343364,0.6612616,move
-1.515978,3.3555245,-0.22972202,0.36919168,0.7343364,0.6612616,move
-0.09672493,3.0613742,-2.861196,0.03810272,0.36720636,0.6246097,move
-0.09672493,3.0613742,-2.861196,0.03810272,0.36720636,0.6246097,move
1.7552457,1.2631307,1.1486773,-0.6259078,-0.4293619,0.43096542,move
1.7552457,1.2631307,1.1486773,-0.6259078,-0.4293619,0.43096542,move
1.2260485,-0.31831455,5.64827,-0.6381251,-0.39759693,0.16218472,move
1.2260485,-0.31831455,5.64827,-0.6381251,-0.39759693,0.16218472,move
-0.73689944,-1.3133388,2.9844894,-0.16287194,0.42157337,0.124311075,move
-0.73689944,-1.3133388,2.9844894,-0.16287194,0.42157337,0.124311075,move
-0.68197423,-1.3216734,-1.9637594,-0.0022143866,0.8339074,0.35643986,move
-0.68197423,-1.3216734,-1.9637594,-0.0022143866,0.8339074,0.35643986,move
0.2461068,-0.8073392,-4.179631,-0.26794076,0.49609894,0.42485678,move
0.2461068,-0.8073392,-4.179631,-0.26794076,0.49609894,0.42485678,move
0.6229288,-1.123879,-1.5797496,-0.57581687,0.01779145,0.32162055,move
0.6229288,-1.123879,-1.5797496,-0.57581687,0.01779145,0.32162055,move
0.14562544,-1.7463803,0.36589336,-0.3919464,-0.09277516,0.2312125,move
0.14562544,-1.7463803,0.36589336,-0.3919464,-0.09277516,0.2312125,move
-0.04755114,-2.2664213,-0.68149614,0.033826664,0.06604981,0.27885997,move
-0.04755114,-2.2664213,-0.68149614,0.033826664,0.06604981,0.27885997,move
0.79997844,-1.7313375,-1.6403966,0.1175152,0.1118647,0.36926803,move
0.79997844,-1.7313375,-1.6403966,0.1175152,0.1118647,0.36926803,move
1.2161502,-1.0475063,-0.519382,0.06253733,0.07887798,0.34116822,move
1.2161502,-1.0475063,-0.519382,0.06253733,0.07887798,0.34116822,move
1.2007437,-0.6325369,-0.24988794,0.2653446,0.10392345,0.22143865,move
1.2007437,-0.6325369,-0.24988794,0.2653446,0.10392345,0.22143865,move
0.7186004,-0.5544028,-2.3763337,0.5048038,0.24136813,0.07788532,move
0.7186004,-0.5544028,-2.3763337,0.5048038,0.24136813,0.07788532,move
0.24264702,-0.4719615,-3.0358534,0.2598468,0.10514518,-0.03390302,move
0.24264702,-0.4719615,-3.0358534,0.2598468,0.10514518,-0.03390302,move
-0.17612463,-0.36476135,0.022808075,-0.003436117,-0.071394876,-0.11759156,move
-0.17612463,-0.36476135,0.022808075,-0.003436117,-0.071394876,-0.11759156,move
-0.85098934,-0.24925184,2.2027903,0.122402124,-0.012751812,-0.09987647,move
-0.85098934,-0.24925184,2.2027903,0.122402124,-0.012751812,-0.09987647,move
-1.0812217,-0.51388454,2.1318889,0.48647782,-0.21189389,0.016187929,move
-1.0812217,-0.51388454,2.1318889,0.48647782,-0.21189389,0.016187929,move
0.25141805,0.07460356,1.7424693,0.5939901,-0.6089563,0.13041973,move
0.25141805,0.07460356,1.7424693,0.5939901,-0.6089563,0.13041973,move
1.1902295,0.2362938,3.0503578,0.49441907,-0.7402923,0.041233405,move
1.1902295,0.2362938,3.0503578,0.49441907,-0.7402923,0.041233405,move
0.71807265,0.7290673,4.0731,0.44982588,-0.32673654,-0.10170906,move
0.71807265,0.7290673,4.0731,0.44982588,-0.32673654,-0.10170906,move
0.067839324,1.4419932,-0.27653027,0.4779257,0.4105778,-0.07422013,move
0.067839324,1.4419932,-0.27653027,0.4779257,0.4105778,-0.07422013,move
0.14721009,1.3844986,-0.23237848,-0.088346384,0.3366631,-0.1695151,move
0.14721009,1.3844986,-0.23237848,-0.088346384,0.3366631,-0.1695151,move
1.3172729,1.2996945,-0.08141899,-0.9582185,-0.24976753,-0.61727935,move
1.3172729,1.2996945,-0.08141899,-0.9582185,-0.24976753,-0.61727935,move
-0.11023176,-0.22237206,5.146661,-1.2312752,-0.34078646,-0.84329945,move
-0.11023176,-0.22237206,5.146661,-1.2312752,-0.34078646,-0.84329945,move
-0.7026175,-0.5971036,5.696825,-0.77129376,-0.11598804,-0.7144069,move
-0.7026175,-0.5971036,5.696825,-0.77129376,-0.11598804,-0.7144069,move
-0.19859862,-0.57260036,2.7870178,-0.29665142,0.111253835,-0.46822822,move
-0.19859862,-0.57260036,2.7870178,-0.29665142,0.111253835,-0.46822822,move
0.7733412,-0.85328627,-0.07714319,-0.17570011,0.27802005,-0.355829,move
0.7733412,-0.85328627,-0.07714319,-0.17570011,0.27802005,-0.355829,move
0.7919868,-1.4943967,-1.550458,-0.20257819,0.2560289,-0.31795537,move
0.7919868,-1.4943967,-1.550458,-0.20257819,0.2560289,-0.31795537,move
0.55025023,-1.7488523,-2.8367243,-0.10178542,0.12408201,-0.23548855,move
0.55025023,-1.7488523,-2.8367243,-0.10178542,0.12408201,-0.23548855,move
0.556848,-1.6349139,-3.8232737,-0.06452264,-0.07200574,-0.121256754,move
0.556848,-1.6349139,-3.8232737,-0.06452264,-0.07200574,-0.121256754,move
0.6278046,-1.1745853,-2.9720821,-0.15798502,-0.22960897,-0.060170226,move
0.6278046,-1.1745853,-2.9720821,-0.15798502,-0.22960897,-0.060170226,move
0.19827129,-0.82653856,-2.4162078,-0.066355236,-0.24793494,-0.08399397,move
0.19827129,-0.82653856,-2.4162078,-0.066355236,-0.24793494,-0.08399397,move
0.008700315,-0.4684744,-2.3130293,0.042378776,-0.15263996,-0.13530666,move
0.008700315,-0.4684744,-2.3130293,0.042378776,-0.15263996,-0.13530666,move
-0.31711072,-0.23906708,-2.1190653,0.12667818,-0.02313652,-0.17928895,move
-0.31711072,-0.23906708,-2.1190653,0.12667818,-0.02313652,-0.17928895,move
-0.8648384,-0.079880714,-2.0449824,0.18532124,-0.04268421,-0.14508049,move
-0.8648384,-0.079880714,-2.0449824,0.18532124,-0.04268421,-0.14508049,move
-0.65226185,0.44866562,-0.8534751,0.26045766,-0.32490396,-3.0543262E-4,move
-0.65226185,0.44866562,-0.8534751,0.26045766,-0.32490396,-3.0543262E-4,move
-0.21643502,0.9678025,1.1117659,0.45776713,-0.5099961,0.048563786,move
-0.21643502,0.9678025,1.1117659,0.45776713,-0.5099961,0.048563786,move
-0.38059884,1.0606012,1.8514776,0.6856199,-0.31390837,0.016187929,move
-0.38059884,1.0606012,1.8514776,0.6856199,-0.31390837,0.016187929,move
-0.5218135,1.4016252,0.8700814,0.7198283,0.07887798,0.013133603,move
-0.5218135,1.4016252,0.8700814,0.7198283,0.07887798,0.013133603,move
-0.7430889,1.4089503,0.25689363,0.4760931,0.48754683,-0.0015271631,move
-0.7430889,1.4089503,0.25689363,0.4760931,0.48754683,-0.0015271631,move
-0.90177613,1.5108438,1.2776718,0.19937114,0.563905,0.062002823,move
-0.90177613,1.5108438,1.2776718,0.19937114,0.563905,0.062002823,move
-1.474519,1.7778077,3.2827878,0.22258402,0.4893794,0.16462818,move
-1.474519,1.7778077,3.2827878,0.22258402,0.4893794,0.16462818,move
-2.3412614,2.3448744,1.2411504,0.44188464,0.6139959,0.35888332,move
-2.3412614,2.3448744,1.2411504,0.44188464,0.6139959,0.35888332,move
-1.4142017,1.8912969,-1.0397568,0.263512,0.40569088,0.623388,move
-1.4142017,1.8912969,-1.0397568,-0.2673299,-0.32612568,0.7809912,move
1.0780262,1.6027856,1.4376745,-0.2673299,-0.32612568,0.7809912,move
1.0780262,1.6027856,1.4376745,-0.2673299,-0.32612568,0.7809912,move
3.28251,1.114953,5.093826,-0.4640285,-0.5778022,0.6404922,move
3.28251,1.114953,5.093826,-0.4640285,-0.5778022,0.6404922,move
2.6368763,0.24747324,2.8691816,-0.24533875,0.20410535,0.24098633,move
2.6368763,0.24747324,2.8691816,-0.24533875,0.20410535,0.24098633,move
0.6067857,-0.6891823,-0.735281,-0.33208162,1.0464885,-0.087659165,move
0.6067857,-0.6891823,-0.735281,-0.33208162,1.0464885,-0.087659165,move
-0.90934217,-1.3258843,-3.0275922,-0.51656294,1.2224177,-0.14080444,move
-0.90934217,-1.3258843,-3.0275922,-0.5501605,0.35498905,-9.162979E-4,move
-1.5409459,-1.7025218,-3.373807,-0.5501605,0.35498905,-9.162979E-4,move
-1.5409459,-1.7025218,-3.373807,-0.5501605,0.35498905,-9.162979E-4,move
-1.0007694,-2.120244,-1.4437828,-0.42982006,-0.36888626,0.23548855,move
-1.0007694,-2.120244,-1.4437828,-0.42982006,-0.36888626,0.23548855,move
0.07242577,-1.7434568,0.64086246,-0.27343854,-0.5252678,0.33750305,move
0.07242577,-1.7434568,0.64086246,-0.27343854,-0.5252678,0.33750305,move
0.55994976,-1.901506,1.3935218,-0.09934196,-0.1605812,0.29840767,move
0.55994976,-1.901506,1.3935218,-0.09934196,-0.1605812,0.29840767,move
0.4602958,-2.0684795,1.4386659,0.12545645,0.1399645,0.27763826,move
0.4602958,-2.0684795,1.4386659,0.12545645,0.1399645,0.27763826,move
0.64595425,-2.0564966,-0.08931923,0.49258646,0.26580274,0.32406402,move
0.64595425,-2.0564966,-0.08931923,0.49258646,0.26580274,0.32406402,move
0.85888886,-1.8400469,-2.1143174,0.7204392,0.24320072,0.3472769,move
0.85888886,-1.8400469,-2.1143174,0.7204392,0.24320072,0.3472769,move
1.1004939,-1.4889283,-3.1048532,0.73021305,0.122860275,0.33078352,move
1.1004939,-1.4889283,-3.1048532,0.73021305,0.122860275,0.33078352,move
1.515076,-0.82039595,-3.6282673,0.6007096,-0.06528623,0.25381452,move
1.515076,-0.82039595,-3.6282673,0.6007096,-0.06528623,0.25381452,move
1.8268518,0.14104986,-1.8419256,0.34475708,-0.35789067,0.020463986,move
1.8268518,0.14104986,-1.8419256,0.34475708,-0.35789067,0.020463986,move
0.4274182,-0.012349606,0.43143797,0.19753855,-0.38965568,-0.3136793,move
0.4274182,-0.012349606,0.43143797,0.19753855,-0.38965568,-0.3136793,move
-0.86014915,-0.16674662,1.3743987,0.12545645,-0.2784782,-0.41325033,move
-0.86014915,-0.16674662,1.3743987,0.12545645,-0.2784782,-0.41325033,move
-1.1364847,-0.65597963,2.4712014,0.13584116,-0.48311806,-0.33567044,move
-1.1364847,-0.65597963,2.4712014,0.13584116,-0.48311806,-0.33567044,move
-0.31282532,-0.27962112,3.5895119,0.1895973,-0.6486625,-0.1731803,move
-0.31282532,-0.27962112,3.5895119,0.1895973,-0.6486625,-0.1731803,move
-0.07649608,1.411212,2.931538,0.2457969,-0.47639853,-0.12614368,move
-0.07649608,1.411212,2.931538,0.2457969,-0.47639853,-0.12614368,move
0.6155343,2.5722299,0.15203762,0.12789991,-0.13859005,-0.15607607,move
0.6155343,2.5722299,0.15203762,0.12789991,-0.13859005,-0.15607607,move
1.5735774,2.7393713,0.41259527,-0.36629006,-0.29802588,-0.3827071,move
1.5735774,2.7393713,0.41259527,-0.36629006,-0.29802588,-0.3827071,move
0.46061438,1.682807,4.0947123,-0.7822893,-0.39576432,-0.7302894,move
0.46061438,1.682807,4.0947123,-0.7822893,-0.39576432,-0.7302894,move
-1.1634754,0.6546025,3.7955422,-0.67722046,0.26274842,-0.8359691,move
-1.1634754,0.6546025,3.7955422,-0.67722046,0.26274842,-0.8359691,move
-1.1035283,0.2095561,2.433456,-0.49335003,0.46433395,-0.57696223,move
-1.1035283,0.2095561,2.433456,-0.49335003,0.46433395,-0.57696223,move
0.23158406,0.14061022,-0.4720502,-0.20807597,0.4105778,-0.39492437,move
0.23158406,0.14061022,-0.4720502,-0.20807597,0.4105778,-0.39492437,move
0.761115,-0.63475657,-2.5031118,-0.18852828,0.06971499,-0.37232238,move
0.761115,-0.63475657,-2.5031118,-0.18852828,0.06971499,-0.37232238,move
0.31050944,-1.4015169,-1.84583,-0.33574682,-0.156916,-0.35888332,move
0.31050944,-1.4015169,-1.84583,-0.33574682,-0.156916,-0.35888332,move
-0.5082251,-1.9733682,-0.99823093,-0.35590535,-0.0622319,-0.2678644,move
-0.5082251,-1.9733682,-0.99823093,-0.35590535,-0.0622319,-0.2678644,move
-0.8584704,-1.8987718,-0.8405609,-0.16409367,0.022678372,-0.04795292,move
-0.8584704,-1.8987718,-0.8405609,-0.16409367,0.022678372,-0.04795292,move
-0.105213925,-1.2600713,-1.978723,0.13645202,0.008628472,0.12980886,move
-0.105213925,-1.2600713,-1.978723,0.13645202,0.008628472,0.12980886,move
0.206492,-0.65394783,-2.9295998,0.2598468,-0.14347698,0.1572978,move
0.206492,-0.65394783,-2.9295998,0.2598468,-0.14347698,0.1572978,move
0.3022253,-0.102977276,-2.824738,0.22441661,-0.27175868,0.090713486,move
0.3022253,-0.102977276,-2.824738,0.22441661,-0.27175868,0.090713486,move
-0.018807583,-0.06801605,-1.8570843,0.1651627,-0.2485458,-0.022907447,move
-0.018807583,-0.06801605,-1.8570843,0.1651627,-0.2485458,-0.022907447,move
-0.6889128,-0.2804532,-1.1643395,0.18165605,-0.1923462,-0.08032878,move
-0.6889128,-0.2804532,-1.1643395,0.18165605,-0.1923462,-0.08032878,move
-0.7828019,-0.2422123,-0.19638872,0.28061622,-0.22655465,-0.006414085,move
-0.7828019,-0.2422123,-0.19638872,0.28061622,-0.22655465,-0.006414085,move
-0.42098728,0.240551,-0.11902666,0.39729148,-0.17524196,0.07849618,move
-0.42098728,0.240551,-0.11902666,0.39729148,-0.17524196,0.07849618,move
-0.17562546,0.7114649,0.081251144,0.35392004,-0.06772968,0.08827003,move
-0.17562546,0.7114649,0.081251144,0.35392004,-0.06772968,0.08827003,move
-0.20752339,1.0455575,0.89516973,0.231747,0.083764896,0.060170226,move
-0.20752339,1.0455575,0.89516973,0.15844317,0.28962648,0.03023783,move
-0.91108024,1.2312169,1.8557959,0.15844317,0.28962648,0.03023783,move
-0.91108024,1.2312169,1.8557959,0.15844317,0.28962648,0.03023783,move
-2.1044366,1.507102,2.383079,0.19265163,0.5419138,0.11575896,move
-2.1044366,1.507102,2.383079,0.19265163,0.5419138,0.11575896,move
-2.8801677,3.1794996,0.5599327,0.36063957,0.8143597,0.43463063,move
-2.8801677,3.1794996,0.5599327,0.15355626,0.599946,0.57940567,move
-1.340784,3.941259,-3.0982385,0.15355626,0.599946,0.57940567,move
-1.340784,3.941259,-3.0982385,0.15355626,0.599946,0.57940567,move
0.50733435,3.137869,-0.37766504,-0.47013718,-0.35178202,0.47494772,move
0.50733435,3.137869,-0.37766504,-0.47013718,-0.35178202,0.47494772,move
1.4744512,0.807353,5.9238687,-0.7047094,-0.7476227,0.27152961,move
1.4744512,0.807353,5.9238687,-0.7047094,-0.7476227,0.27152961,move
0.76757985,-0.62260103,7.30286,-0.16226108,-0.002977968,0.23671028,move
0.76757985,-0.62260103,7.30286,-0.16226108,-0.002977968,0.23671028,move
0.40716156,-0.99675035,0.88005114,0.19692768,1.0458777,0.25320363,move
0.40716156,-0.99675035,0.88005114,0.19692768,1.0458777,0.25320363,move
-0.22369856,-0.7671418,-3.3554049,-0.028481591,1.1766028,0.24587326,move
-0.22369856,-0.7671418,-3.3554049,-0.028481591,1.1766028,0.24587326,move
-1.0825363,-1.088305,-2.6321821,-0.30214924,0.31650457,0.20799962,move
-1.0825363,-1.088305,-2.6321821,-0.30214924,0.31650457,0.20799962,move
-0.85797,-1.5138903,0.7674732,-0.23189972,-0.41103595,0.3387248,move
-0.85797,-1.5138903,0.7674732,-0.23189972,-0.41103595,0.3387248,move
-0.4557795,-1.8348937,2.6071649,0.10713049,-0.45623997,0.42241332,move
-0.4557795,-1.8348937,2.6071649,0.10713049,-0.45623997,0.42241332,move
0.49243483,-1.8834076,1.5972252,0.48892128,-0.026801713,0.5225952,move
0.49243483,-1.8834076,1.5972252,0.48892128,-0.026801713,0.5225952,move
1.5139816,-1.3736296,-1.0728555,0.66118526,0.36537376,0.46517387,move
1.5139816,-1.3736296,-1.0728555,0.66118526,0.36537376,0.46517387,move
1.7093344,-1.3706331,-2.7739654,0.6110943,0.42157337,0.27091873,move
1.7093344,-1.3706331,-2.7739654,0.6110943,0.42157337,0.27091873,move
1.1798735,-1.466425,-2.7280097,0.4883104,0.28779387,0.06811147,move
1.1798735,-1.466425,-2.7280097,0.4883104,0.28779387,0.06811147,move
0.44769084,-1.7538667,-2.262107,0.46082148,0.21815525,-0.04550946,move
0.44769084,-1.7538667,-2.262107,0.46082148,0.21815525,-0.04550946,move
-0.076535836,-1.4262538,-2.2060041,0.45776713,0.19066632,-0.057726767,move
-0.076535836,-1.4262538,-2.2060041,0.45776713,0.19066632,-0.057726767,move
0.16404723,-0.72449493,-2.1516519,0.3844633,0.09476047,-0.055283304,move
0.16404723,-0.72449493,-2.1516519,0.3844633,0.09476047,-0.055283304,move
0.018345805,-0.3162036,-0.6884837,0.21586451,-0.10682506,-0.1554652,move
0.018345805,-0.3162036,-0.6884837,0.21586451,-0.10682506,-0.1554652,move
-0.48123422,-0.3289051,0.68980455,0.14805846,-0.26259568,-0.28924468,move
-0.48123422,-0.3289051,0.68980455,0.14805846,-0.26259568,-0.28924468,move
-0.87228674,-0.8401127,2.104887,0.25740334,-0.4049273,-0.23426682,move
-0.87228674,-0.8401127,2.104887,0.25740334,-0.4049273,-0.23426682,move
-0.6376409,-0.6357794,3.1246624,0.44860417,-0.50083315,-0.07971791,move
-0.6376409,-0.6357794,3.1246624,0.44860417,-0.50083315,-0.07971791,move
-1.1060048,1.6731544,1.6666951,0.5249623,-0.112322845,0.08093964,move
-1.1060048,1.6731544,1.6666951,0.5249623,-0.112322845,0.08093964,move
0.39299744,3.254465,-2.4937992,0.2506838,0.28107437,0.05589417,move
0.39299744,3.254465,-2.4937992,0.2506838,0.28107437,0.05589417,move
1.4346882,3.8493652,-3.0866194,-0.6857726,-0.08788824,-0.39187005,move
1.4346882,3.8493652,-3.0866194,-0.6857726,-0.08788824,-0.39187005,move
0.62905717,1.3433933,3.3501887,-1.5385405,-0.27725646,-0.8872818,move
0.62905717,1.3433933,3.3501887,-1.5385405,-0.27725646,-0.8872818,move
-1.4297588,-0.5205941,7.175233,-1.4389695,0.088040955,-1.0009027,move
-1.4297588,-0.5205941,7.175233,-1.4389695,0.088040955,-1.0009027,move
-2.324664,-1.3457031,6.797628,-0.7352527,0.46861,-0.5684101,move
-2.324664,-1.3457031,6.797628,-0.7352527,0.46861,-0.5684101,move
-0.5837102,-1.0687842,0.9622569,0.003894266,0.7746535,-0.063224554,move
-0.5837102,-1.0687842,0.9622569,0.003894266,0.7746535,-0.063224554,move
1.0007554,-1.4639645,-4.6711807,0.05215262,0.6152177,0.10842858,move
1.0007554,-1.4639645,-4.6711807,0.05215262,0.6152177,0.10842858,move
0.91661,-1.807312,-4.2909613,-0.5776495,-0.011530082,0.07666359,move
0.91661,-1.807312,-4.2909613,-0.5776495,-0.011530082,0.07666359,move
0.9369402,-1.862781,0.6910119,-0.8635344,-0.36399934,0.19028452,move
0.9369402,-1.862781,0.6910119,-0.8635344,-0.36399934,0.19028452,move
1.6534743,-1.2052355,1.5403976,-0.19585867,-0.43241623,0.29046643,move
1.6534743,-1.2052355,1.5403976,-0.19585867,-0.43241623,0.29046643,move
1.8752503,-0.72693443,-2.385212,0.33376148,-0.21555908,0.22815818,move
1.8752503,-0.72693443,-2.385212,0.33376148,-0.21555908,0.22815818,move
1.821793,-0.77757406,-2.3468537,0.17127134,-0.09949467,0.04428773,move
1.821793,-0.77757406,-2.3468537,0.17127134,-0.09949467,0.04428773,move
0.65534663,-0.45344305,-3.655407,-0.2007456,-0.053679783,-0.1432479,move
0.65534663,-0.45344305,-3.655407,-0.2007456,-0.053679783,-0.1432479,move
0.12468159,-0.42059994,-2.0189223,-0.24594963,-0.30963233,-0.17684549,move
0.12468159,-0.42059994,-2.0189223,-0.24594963,-0.30963233,-0.17684549,move
-0.2273717,-0.006801605,-0.78062534,0.025885414,-0.6297257,-0.11209377,move
-0.2273717,-0.006801605,-0.78062534,0.025885414,-0.6297257,-0.11209377,move
-0.35724252,0.28019094,-0.09320259,0.19204076,-0.5985716,-0.05100725,move
-0.35724252,0.28019094,-0.09320259,0.19204076,-0.5985716,-0.05100725,move
0.0049146637,0.7178545,0.24448681,0.2036472,-0.36094502,-0.048563786,move
0.0049146637,0.7178545,0.24448681,0.2036472,-0.36094502,-0.048563786,move
-0.2401172,1.1711984,0.3739419,0.15355626,-0.18379408,-0.112704635,move
-0.2401172,1.1711984,0.3739419,0.15355626,-0.18379408,-0.112704635,move
-0.49188513,1.5019879,0.8747077,0.072922036,-0.13003793,-0.13836098,move
-0.49188513,1.5019879,0.8747077,0.072922036,-0.13003793,-0.13836098,move
-1.204794,1.3639712,2.2896056,0.0051159966,-0.097662084,-0.12614368,move
-1.204794,1.3639712,2.2896056,0.1175152,0.0800997,0.02107485,move
-1.6570483,1.2439442,3.9821396,0.1175152,0.0800997,0.02107485,move
-1.6570483,1.2439442,3.9821396,0.1175152,0.0800997,0.02107485,move
-2.5855021,2.383852,2.099811,0.38385245,0.58345264,0.2171626,move
-2.5855021,2.383852,2.099811,0.38385245,0.58345264,0.2171626,move
-1.8425959,2.8468242,-1.8558898,0.25312728,0.8504008,0.44257188,move
-1.8425959,2.8468242,-1.8558898,0.25312728,0.8504008,0.44257188,move
-0.6081234,2.5520859,-1.4248633,-0.28260154,0.004352415,0.45234573,move
-0.6081234,2.5520859,-1.4248633,-0.28260154,0.004352415,0.45234573,move
0.8848377,1.0862055,4.332453,-0.5959754,-0.87162834,0.39064834,move
0.8848377,1.0862055,4.332453,-0.5959754,-0.87162834,0.39064834,move
0.40940702,0.036476135,5.9903016,-0.13416128,-0.67676234,0.28802297,move
0.40940702,0.036476135,5.9903016,-0.13416128,-0.67676234,0.28802297,move
0.072070956,-0.41755152,1.4308581,0.24213171,0.124692865,0.28008172,move
0.072070956,-0.41755152,1.4308581,0.24213171,0.124692865,0.28008172,move
-0.28340983,-0.6945138,-2.1790462,2.2907447E-4,0.63843054,0.2660318,move
-0.28340983,-0.6945138,-2.1790462,2.2907447E-4,0.63843054,0.2660318,move
-0.2183784,-0.67860174,-2.193482,-0.35101843,0.51137054,0.23732115,move
-0.2183784,-0.67860174,-2.193482,-0.35101843,0.51137054,0.23732115,move
-0.64583343,-1.2873545,-1.4778681,-0.5043456,0.07460192,0.2049453,move
-0.64583343,-1.2873545,-1.4778681,-0.5043456,0.07460192,0.2049453,move
-0.51687753,-1.5668626,-0.20804071,-0.36506835,-0.11904237,0.2593123,move
-0.51687753,-1.5668626,-0.20804071,-0.36506835,-0.11904237,0.2593123,move
-0.13758768,-1.7688766,-0.035363197,-0.10178542,-0.09705122,0.3313944,move
-0.13758768,-1.7688766,-0.035363197,-0.10178542,-0.09705122,0.3313944,move
0.37178984,-1.72753,-0.4106474,0.081474155,0.09903653,0.38331795,move
0.37178984,-1.72753,-0.4106474,0.081474155,0.09903653,0.38331795,move
0.68244433,-1.37534,-0.6953664,0.14256068,0.28473955,0.35094208,move
0.68244433,-1.37534,-0.6953664,0.14256068,0.28473955,0.35094208,move
0.6839305,-1.1956768,-1.2014189,0.2653446,0.36537376,0.25870144,move
0.6839305,-1.1956768,-1.2014189,0.2653446,0.36537376,0.25870144,move
0.28095308,-1.2087708,-1.8019328,0.3936263,0.30062205,0.21594086,move
0.28095308,-1.2087708,-1.8019328,0.3936263,0.30062205,0.21594086,move
0.1739502,-1.0034652,-1.497673,0.41745004,0.05138904,0.22143865,move
0.1739502,-1.0034652,-1.497673,0.41745004,0.05138904,0.22143865,move
0.21178867,-0.5153818,-0.09591293,0.42600214,-0.10865766,0.1695151,move
0.21178867,-0.5153818,-0.09591293,0.42600214,-0.10865766,0.1695151,move
-0.16910744,-0.4493413,-0.28502512,0.47487137,-0.022525655,0.054061573,move
-0.16910744,-0.4493413,-0.28502512,0.47487137,-0.022525655,0.054061573,move
-0.18068755,-0.5147104,-0.23984098,0.36735907,-0.10987939,-0.003970624,move
-0.18068755,-0.5147104,-0.23984098,0.36735907,-0.10987939,-0.003970624,move
0.4170862,-0.5629182,1.6768365,0.23235787,-0.4012621,-0.026572637,move
0.4170862,-0.5629182,1.6768365,0.23235787,-0.4012621,-0.026572637,move
0.97808474,-0.35925436,3.4753532,0.28244883,-0.51732653,-0.09437868,move
0.97808474,-0.35925436,3.4753532,0.28244883,-0.51732653,-0.09437868,move
0.42538685,0.35425806,2.990983,0.39423716,-0.13736832,-0.17684549,move
0.42538685,0.35425806,2.990983,0.39423716,-0.13736832,-0.17684549,move
0.05520898,1.3979259,-0.35174656,0.31543553,0.23770294,-0.12980886,move
0.05520898,1.3979259,-0.35174656,0.31543553,0.23770294,-0.12980886,move
1.7730522,2.4183722,-2.5660944,-0.17020233,0.1381319,-0.20250183,move
1.7730522,2.4183722,-2.5660944,-0.17020233,0.1381319,-0.20250183,move
2.301827,2.0753121,0.5032997,-0.9392817,-0.15386169,-0.5714644,move
2.301827,2.0753121,0.5032997,-0.9392817,-0.15386169,-0.5714644,move
0.8490863,0.6014714,3.4481049,-1.2361622,0.07338019,-0.9147707,move
0.8490863,0.6014714,3.4481049,-1.2361622,0.07338019,-0.9147707,move
-0.40018475,-0.31451988,3.0243602,-1.05107,0.3635412,-0.9691377,move
-0.40018475,-0.31451988,3.0243602,-1.05107,0.3635412,-0.9691377,move
-0.63162446,-0.9743242,1.9748516,-0.7957283,0.44478625,-0.768163,move
-0.63162446,-0.9743242,1.9748516,-0.7957283,0.44478625,-0.768163,move
-0.5426475,-1.5183997,-0.13297749,-0.51778466,0.36170858,-0.5335908,move
-0.5426475,-1.5183997,-0.13297749,-0.51778466,0.36170858,-0.5335908,move
-0.38799688,-1.9253826,-0.95445156,-0.39316815,0.09476047,-0.2959642,move
-0.38799688,-1.9253826,-0.95445156,-0.39316815,0.09476047,-0.2959642,move
-0.23451197,-1.8551464,-1.3822231,-0.18608482,-0.1905136,-0.011911872,move
-0.23451197,-1.8551464,-1.3822231,-0.18608482,-0.1905136,-0.011911872,move
0.47262877,-1.2957759,-1.812551,-0.024205536,-0.3768275,0.1469131,move
0.47262877,-1.2957759,-1.812551,-0.024205536,-0.3768275,0.1469131,move
0.9633635,-0.58301497,-1.8673711,0.08208502,-0.49716794,0.18112154,move
0.9633635,-0.58301497,-1.8673711,0.08208502,-0.49716794,0.18112154,move
1.4267313,0.2004323,-1.7597227,0.14805846,-0.44219008,0.08155051,move
1.4267313,0.2004323,-1.7597227,0.14805846,-0.44219008,0.08155051,move
0.68085957,0.24613333,-2.2987132,0.10163271,-0.22899811,-0.13652839,move
0.68085957,0.24613333,-2.2987132,0.10163271,-0.22899811,-0.13652839,move
-0.32527474,0.110847,-1.7210789,-0.009544769,-0.09277516,-0.23854288,move
-0.32527474,0.110847,-1.7210789,-0.009544769,-0.09277516,-0.23854288,move
-1.1892341,0.10845566,-0.9931483,0.050320026,-0.13859005,-0.18234327,move
-1.1892341,0.10845566,-0.9931483,0.050320026,-0.13859005,-0.18234327,move
-1.1715297,0.3581605,-0.21227503,0.15477799,-0.28641945,-0.005192355,move
-1.1715297,0.3581605,-0.21227503,0.15477799,-0.28641945,-0.005192355,move
-0.22556116,0.9871845,1.9382772,0.22380576,-0.3218496,0.11453723,move
-0.22556116,0.9871845,1.9382772,0.22380576,-0.3218496,0.11453723,move
0.1917299,1.5224037,2.2993379,0.46998444,0.021456642,0.041233405,move
0.1917299,1.5224037,2.2993379,0.46998444,0.021456642,0.041233405,move
-0.80885106,1.1108608,0.19634342,0.55367297,0.41668645,-0.08277224,move
-0.80885106,1.1108608,0.19634342,0.55367297,0.41668645,-0.08277224,move
-1.7458231,0.69001055,0.28835726,0.33070716,0.5828418,-0.0106901415,move
-1.7458231,0.69001055,0.28835726,0.22502749,0.6457609,0.19639318,move
-2.1644793,0.9882908,2.131834,0.22502749,0.6457609,0.19639318,move
-2.1644793,0.9882908,2.131834,0.22502749,0.6457609,0.19639318,move
-2.75883,2.5608797,1.1727009,0.42600214,0.8235227,0.44501534,move
-2.75883,2.5608797,1.1727009,0.42600214,0.8235227,0.44501534,move
-1.7672738,2.816997,-2.0999537,0.47303876,0.9029352,0.655153,move
-1.7672738,2.816997,-2.0999537,0.47303876,0.9029352,0.655153,move
0.22236106,2.4832664,-1.7688179,0.03688099,0.2541963,0.66248333,move
0.22236106,2.4832664,-1.7688179,0.03688099,0.2541963,0.66248333,move
1.4371774,1.4692974,2.7281528,-0.47746754,-0.22105686,0.45356745,move
1.4371774,1.4692974,2.7281528,-0.47746754,-0.22105686,0.45356745,move
0.6692526,0.08418989,4.0594378,-0.39500073,0.0025198192,0.1872302,move
0.6692526,0.08418989,4.0594378,-0.39500073,0.0025198192,0.1872302,move
-0.52895635,-0.8637762,1.5569954,-0.19646953,0.6488153,0.06688975,move
-0.52895635,-0.8637762,1.5569954,-0.19646953,0.6488153,0.06688975,move
-0.89589584,-1.2574649,-1.2818813,-0.21174116,0.8394052,0.14263703,move
-0.89589584,-1.2574649,-1.2818813,-0.21174116,0.8394052,0.14263703,move
-0.46558192,-1.4854856,-3.0251217,-0.27710375,0.44661885,0.16279559,move
-0.46558192,-1.4854856,-3.0251217,-0.27710375,0.44661885,0.16279559,move
-0.46412516,-1.9952049,-1.5646896,-0.45242208,-0.123929285,0.20372356,move
-0.46412516,-1.9952049,-1.5646896,-0.45242208,-0.123929285,0.20372356,move
0.559595,-2.016107,2.7879677,-0.3571271,-0.510607,0.2874121,move
0.559595,-2.016107,2.7879677,-0.3571271,-0.510607,0.2874121,move
0.857684,-2.2945025,3.7030997,0.14683673,-0.23938282,0.3173445,move
0.857684,-2.2945025,3.7030997,0.14683673,-0.23938282,0.3173445,move
1.3246303,-2.0575013,0.5983844,0.54878604,0.16745344,0.3313944,move
1.3246303,-2.0575013,0.5983844,0.54878604,0.16745344,0.3313944,move
1.7746038,-2.0286884,-1.902246,0.6184247,0.3366631,0.27275133,move
1.7746038,-2.0286884,-1.902246,0.6184247,0.3366631,0.27275133,move
1.9742478,-1.6824212,-3.267642,0.4919756,0.29695687,0.13836098,move
1.9742478,-1.6824212,-3.267642,0.4919756,0.29695687,0.13836098,move
1.2362508,-1.6606607,-2.8010015,0.28244883,0.111253835,-0.042455133,move
1.2362508,-1.6606607,-2.8010015,0.28244883,0.111253835,-0.042455133,move
0.10595453,-1.8817973,-1.2159762,0.19326249,0.024510968,-0.10354166,move
0.10595453,-1.8817973,-1.2159762,0.19326249,0.024510968,-0.10354166,move
-0.59913844,-1.5453844,-0.4418559,0.3300963,-0.11720977,-0.01863139,move
-0.59913844,-1.5453844,-0.4418559,0.3300963,-0.11720977,-0.01863139,move
-0.17735505,-0.72473955,-0.38150978,0.47487137,-0.3010802,0.10048734,move
-0.17735505,-0.72473955,-0.38150978,0.47487137,-0.3010802,0.10048734,move
0.3351143,-0.26812315,-0.12527514,0.4742605,-0.533209,0.01740966,move
0.3351143,-0.26812315,-0.12527514,0.4742605,-0.533209,0.01740966,move
0.08502105,-0.54152775,1.0505586,0.26412287,-0.6071237,-0.1572978,move
0.08502105,-0.54152775,1.0505586,0.26412287,-0.6071237,-0.1572978,move
-0.4465154,-1.0659375,3.5748525,0.10285444,-0.47090074,-0.25259277,move
-0.4465154,-1.0659375,3.5748525,0.10285444,-0.47090074,-0.25259277,move
-1.1887635,-0.56795883,4.310259,0.27206412,-0.18012889,-0.16829337,move
-1.1887635,-0.56795883,4.310259,0.27206412,-0.18012889,-0.16829337,move
-1.2530195,1.6740913,1.411705,0.5927684,0.07338019,0.102319926,move
-1.2530195,1.6740913,1.411705,0.5927684,0.07338019,0.102319926,move
1.2535595,3.8803663,-2.77521,0.2598468,-0.064064495,0.032070424,move
1.2535595,3.8803663,-2.77521,0.2598468,-0.064064495,0.032070424,move
2.0618265,3.578793,-0.82372284,-0.87819517,-0.32551482,-0.60994893,move
2.0618265,3.578793,-0.82372284,-0.87819517,-0.32551482,-0.60994893,move
0.3537328,0.46896648,5.4921155,-1.6784286,-0.102549,-1.131017,move
0.3537328,0.46896648,5.4921155,-1.6784286,-0.102549,-1.131017,move
-2.1886327,-1.3780885,9.850615,-1.3717743,0.29206994,-1.0534371,move
-2.1886327,-1.3780885,9.850615,-1.3717743,0.29206994,-1.0534371,move
-2.580348,-1.7139997,7.2469635,-0.30153835,0.5107597,-0.44806966,move
-2.580348,-1.7139997,7.2469635,-0.30153835,0.5107597,-0.44806966,move
-0.45614728,-1.157165,0.84369516,0.26778805,0.5052619,0.030848695,move
-0.45614728,-1.157165,0.84369516,0.26778805,0.5052619,0.030848695,move
0.94150424,-1.2405844,-1.2190328,-0.105450615,0.17478381,0.118202426,move
0.94150424,-1.2405844,-1.2190328,-0.105450615,0.17478381,0.118202426,move
0.6478623,-1.7161555,1.4167423,-0.4078289,0.05627596,0.090713486,move
0.6478623,-1.7161555,1.4167423,-0.4078289,0.05627596,0.090713486,move
0.3044703,-2.0306687,0.65143824,-0.081016004,0.08315403,0.17440203,move
0.3044703,-2.0306687,0.65143824,-0.081016004,0.08315403,0.17440203,move
0.8931917,-1.6789722,-2.0688658,0.17188221,0.15157095,0.27152961,move
0.8931917,-1.6789722,-2.0688658,0.17188221,0.15157095,0.27152961,move
1.1478496,-1.2358732,-3.6942124,0.07108945,0.19921842,0.19761491,move
1.1478496,-1.2358732,-3.6942124,0.07108945,0.19921842,0.19761491,move
0.48194003,-1.3756285,-3.3556676,-0.13660474,0.14973834,0.052839845,move
0.48194003,-1.3756285,-3.3556676,-0.13660474,0.14973834,0.052839845,move
0.042560816,-1.3461199,-2.2777267,-0.1109484,-0.07689266,0.060170226,move
0.042560816,-1.3461199,-2.2777267,-0.1109484,-0.07689266,0.060170226,move
0.15188366,-0.9039998,-1.3886323,0.118126065,-0.34567338,0.110872045,move
0.15188366,-0.9039998,-1.3886323,0.118126065,-0.34567338,0.110872045,move
0.14426935,-0.7916832,-1.258141,0.317879,-0.35666895,0.07788532,move
0.14426935,-0.7916832,-1.258141,0.317879,-0.35666895,0.07788532,move
0.14426935,-0.7916832,-1.258141,0.34109187,-0.16730072,0.026572637,move
-0.5256598,-0.8603692,-1.1919055,0.34109187,-0.16730072,0.026572637,move
-0.53735363,-0.84832335,-0.9098034,0.3655265,-0.109268524,0.074830994,move
-0.53735363,-0.84832335,-0.9098034,0.3655265,-0.109268524,0.074830994,move
0.0074690282,-0.22231007,-0.49295902,0.42905647,-0.112322845,0.16523905,move
0.0074690282,-0.22231007,-0.49295902,0.42905647,-0.112322845,0.16523905,move
0.45914605,0.49094915,-0.8181639,0.47914743,0.035506543,0.160963,move
0.45914605,0.49094915,-0.8181639,0.47914743,0.035506543,0.160963,move
0.41195935,0.94535875,-1.5145478,0.32337677,0.0800997,0.0852157,move
0.41195935,0.94535875,-1.5145478,0.32337677,0.0800997,0.0852157,move
0.41297933,0.90700006,-1.4821415,0.041157044,0.014126259,0.01985312,move
0.41297933,0.90700006,-1.4821415,0.041157044,0.014126259,0.01985312,move
0.36575434,0.61614466,2.6414928,-0.024205536,-0.06528623,-0.022296581,move
0.36575434,0.61614466,2.6414928,-0.024205536,-0.06528623,-0.022296581,move
-0.24024028,0.2927947,3.9914699,0.18348865,0.07154759,0.04184427,move
-0.24024028,0.2927947,3.9914699,0.18348865,0.07154759,0.04184427,move
-1.3346648,0.85160255,2.7471676,0.5182428,0.30428725,0.25686884,move
-1.3346648,0.85160255,2.7471676,0.5182428,0.30428725,0.25686884,move
-1.3233339,0.76829815,2.8199544,0.5054146,0.45883617,0.50976706,move
-1.3233339,0.76829815,2.8199544,0.5054146,0.45883617,0.50976706,move
-0.08835721,3.1633987,-1.6847005,-0.035811976,0.10881037,0.52320606,move
-0.08835721,3.1633987,-1.6847005,-0.035811976,0.10881037,0.52320606,move
0.8054265,2.2462883,2.2162046,-0.60697097,-0.22044599,0.33383787,move
0.8054265,2.2462883,2.2162046,-0.60697097,-0.22044599,0.33383787,move
0.42091656,-0.010338783,5.7157054,-0.629573,-0.1923462,0.1255328,move
0.42091656,-0.010338783,5.7157054,-0.629573,-0.1923462,0.1255328,move
-1.0923376,-1.0738645,5.0786366,-0.22579107,0.34521523,0.160963,move
-1.0923376,-1.0738645,5.0786366,-0.22579107,0.34521523,0.160963,move
-1.2380277,-1.2782221,0.4119768,0.16271923,0.84062696,0.3827071,move
-1.2380277,-1.2782221,0.4119768,0.16271923,0.84062696,0.3827071,move
-0.95049137,-0.742578,-3.095158,0.14500414,0.6842454,0.51893,move
-0.95049137,-0.742578,-3.095158,0.14500414,0.6842454,0.51893,move
-0.40918344,-0.6710739,-3.1467028,-0.088346384,0.13446671,0.5403103,move
-0.40918344,-0.6710739,-3.1467028,-0.088346384,0.13446671,0.5403103,move
0.18721214,-0.86649036,-1.5478268,-0.17020233,-0.25282186,0.49021935,move
0.18721214,-0.86649036,-1.5478268,-0.17020233,-0.25282186,0.49021935,move
0.65729374,-1.257884,-0.55176735,-0.13110696,-0.26137397,0.39920044,move
0.65729374,-1.257884,-0.55176735,-0.13110696,-0.26137397,0.39920044,move
1.331341,-1.1808653,-0.17435789,-0.076739945,-0.100716405,0.31490102,move
1.331341,-1.1808653,-0.17435789,-0.076739945,-0.100716405,0.31490102,move
1.4047357,-1.1991825,-0.3966298,0.051541757,0.00496328,0.16768251,move
1.4047357,-1.1991825,-0.3966298,0.051541757,0.00496328,0.16768251,move
0.9887892,-1.1547761,-1.5660019,0.21708624,0.09476047,3.0543262E-4,move
0.9887892,-1.1547761,-1.5660019,0.21708624,0.09476047,3.0543262E-4,move
0.51512223,-1.1371465,-2.6760511,0.19081903,0.098425664,-0.076052725,move
0.51512223,-1.1371465,-2.6760511,0.19081903,0.098425664,-0.076052725,move
0.13593613,-0.8553791,-2.8705392,0.06375906,0.0031306844,-0.11636983,move
0.13593613,-0.8553791,-2.8705392,0.06375906,0.0031306844,-0.11636983,move
0.09156331,-0.36838531,-1.8925114,-0.056581393,-0.13309227,-0.1255328,move
0.09156331,-0.36838531,-1.8925114,-0.056581393,-0.13309227,-0.1255328,move
0.04476035,-0.075062275,-0.56134796,-0.012599096,-0.23816109,-0.183565,move
0.04476035,-0.075062275,-0.56134796,-0.012599096,-0.23816109,-0.183565,move
-0.46968615,-0.23042917,-0.23154402,0.07475463,-0.1905136,-0.25381452,move
-0.46968615,-0.23042917,-0.23154402,0.07475463,-0.1905136,-0.25381452,move
-0.90603817,-0.5858722,-0.4071231,0.104687035,-0.14103352,-0.23487769,move
-0.90603817,-0.5858722,-0.4071231,0.104687035,-0.14103352,-0.23487769,move
-0.5990569,-0.5223484,-0.077803135,0.10163271,-0.20883955,-0.13103059,move
-0.5990569,-0.5223484,-0.077803135,0.10163271,-0.20883955,-0.13103059,move
0.11952246,0.07400417,0.70256805,0.15477799,-0.31757358,-0.07238753,move
0.11952246,0.07400417,0.70256805,0.15477799,-0.31757358,-0.07238753,move
0.532161,0.8240466,0.4782729,0.19448422,-0.24915667,-0.11026118,move
0.532161,0.8240466,0.4782729,0.19448422,-0.24915667,-0.11026118,move
0.7750416,1.1024814,1.2931986,0.11018482,-0.2308307,-0.2134974,move
0.7750416,1.1024814,1.2931986,0.14928019,-0.38171443,-0.28069258,move
0.4873495,0.76114607,2.8776379,0.14928019,-0.38171443,-0.28069258,move
0.4873495,0.76114607,2.8776379,0.14928019,-0.38171443,-0.28069258,move
-0.12342706,1.1966338,3.1931396,0.36980253,-0.35361463,-0.26053402,move
-0.12342706,1.1966338,3.1931396,0.36980253,-0.35361463,-0.26053402,move
-0.07552549,2.0051441,-0.23147774,0.41378483,0.022067508,-0.22510384,move
-0.07552549,2.0051441,-0.23147774,0.41378483,0.022067508,-0.22510384,move
1.0034146,2.540676,-1.4708409,-0.09078985,0.014126259,-0.33444872,move
1.0034146,2.540676,-1.4708409,-0.09078985,0.014126259,-0.33444872,move
0.66286594,2.0657454,1.7485223,-0.60758185,-0.28092167,-0.59040123,move
0.66286594,2.0657454,1.7485223,-0.60758185,-0.28092167,-0.59040123,move
-0.3636758,0.41375637,3.5208163,-0.6399577,-0.35178202,-0.73761976,move
-0.3636758,0.41375637,3.5208163,-0.6399577,-0.35178202,-0.73761976,move
-1.4800644,-0.7372036,3.3888497,-0.55138224,-0.112322845,-0.63071835,move
-1.4800644,-0.7372036,3.3888497,-0.55138224,-0.112322845,-0.63071835,move
-1.1023706,-1.0709457,3.0676389,-0.4114941,0.02023491,-0.30207285,move
-1.1023706,-1.0709457,3.0676389,-0.4114941,0.02023491,-0.30207285,move
-0.18472062,-1.1292319,2.3340545,-0.23556492,0.03795,-0.16401732,move
-0.18472062,-1.1292319,2.3340545,-0.23556492,0.03795,-0.16401732,move
0.12914896,-1.3414545,0.796885,-0.09934196,0.019624045,-0.109650314,move
0.12914896,-1.3414545,0.796885,-0.09934196,0.019624045,-0.109650314,move
0.65055007,-1.4181776,0.10127878,-0.115835324,-0.0139735425,-0.0870483,move
0.65055007,-1.4181776,0.10127878,-0.115835324,-0.0139735425,-0.0870483,move
0.7426216,-1.5914698,-0.078036785,-0.08712465,0.047112983,-0.10842858,move
0.7426216,-1.5914698,-0.078036785,-0.08712465,0.047112983,-0.10842858,move
0.5776184,-1.7650151,-1.0222678,0.04665483,0.06421721,-0.121256754,move
0.5776184,-1.7650151,-1.0222678,0.04665483,0.06421721,-0.121256754,move
0.50237554,-1.6807718,-2.196813,0.13217597,0.025121834,-0.1151481,move
0.50237554,-1.6807718,-2.196813,0.13217597,0.025121834,-0.1151481,move
0.52489626,-1.3714323,-2.5091414,0.13095424,-0.083001316,-0.09254608,move
0.52489626,-1.3714323,-2.5091414,0.13095424,-0.083001316,-0.09254608,move
0.68948364,-0.8180475,-2.2901735,0.13767375,-0.16363552,-0.12675454,move
0.68948364,-0.8180475,-2.2901735,0.13767375,-0.16363552,-0.12675454,move
0.28257102,-0.65402174,-2.651895,0.13523029,-0.098883815,-0.22082779,move
0.28257102,-0.65402174,-2.651895,0.13523029,-0.098883815,-0.22082779,move
-0.3117542,-0.6415596,-2.693204,0.032604933,-0.098883815,-0.27397305,move
-0.3117542,-0.6415596,-2.693204,0.032604933,-0.098883815,-0.27397305,move
-0.43041593,-0.38649797,-1.6279359,-0.06330091,-0.18623754,-0.2452624,move
-0.43041593,-0.38649797,-1.6279359,-0.06330091,-0.18623754,-0.2452624,move
0.10266338,0.032994747,-0.4751258,-0.0052687125,-0.22411118,-0.19333886,move
0.10266338,0.032994747,-0.4751258,-0.0052687125,-0.22411118,-0.19333886,move
0.093538985,0.02854681,-0.47180843,0.16821702,-0.2008983,-0.23609942,move
0.093538985,0.02854681,-0.47180843,0.16821702,-0.2008983,-0.23609942,move
0.30269116,0.06398964,-0.9358387,0.22991441,-0.18318321,-0.32162055,move
0.30269116,0.06398964,-0.9358387,0.09552405,-0.12515102,-0.33017266,move
0.06621346,0.09504557,-0.31974888,0.09552405,-0.12515102,-0.33017266,move
0.06621346,0.09504557,-0.31974888,0.09552405,-0.12515102,-0.33017266,move
-0.3618155,0.14486122,0.01548624,0.043600507,0.0031306844,-0.31856623,move
-0.3618155,0.14486122,0.01548624,0.043600507,0.0031306844,-0.31856623,move
-0.6245856,0.20340443,0.4468856,0.008781188,0.11919508,-0.24709499,move
-0.6245856,0.20340443,0.4468856,0.008781188,0.11919508,-0.24709499,move
-0.93927467,0.09796381,1.1174922,0.080252424,0.08926269,-0.046120327,move
-0.93927467,0.09796381,1.1174922,0.080252424,0.08926269,-0.046120327,move
-0.93518186,0.2767911,2.2004962,0.2494621,-0.06956228,0.22143865,move
-0.93518186,0.2767911,2.2004962,0.2494621,-0.06956228,0.22143865,move
-0.1425544,0.9539175,3.084022,0.51335585,-0.1501965,0.48349985,move
-0.1425544,0.9539175,3.084022,0.51335585,-0.1501965,0.48349985,move
-0.38533756,2.8604512,1.9907007,0.7039458,0.19677497,0.52442783,move
-0.38533756,2.8604512,1.9907007,0.7039458,0.19677497,0.52442783,move
-0.66744775,3.4315305,-0.9120736,0.41683918,0.5492442,0.47861293,move
-0.66744775,3.4315305,-0.9120736,-0.18241963,0.28351784,0.39187005,move
-0.023832977,3.4291458,-0.39335394,-0.18241963,0.28351784,0.39187005,move
-0.023832977,3.4291458,-0.39335394,-0.18241963,0.28351784,0.39187005,move
0.63394094,1.9932451,2.1755533,-0.6008623,-0.13553573,0.18051068,move
0.63394094,1.9932451,2.1755533,-0.6008623,-0.13553573,0.18051068,move
1.104419,0.22367668,5.263316,-0.71631587,-0.34567338,-0.0027488936,move
1.104419,0.22367668,5.263316,-0.71631587,-0.34567338,-0.0027488936,move
0.11153992,-1.060544,5.6542416,-0.38583776,0.13019066,-0.07727446,move
0.11153992,-1.060544,5.6542416,-0.38583776,0.13019066,-0.07727446,move
-0.667294,-1.4519043,1.3147221,0.03932445,0.86872673,0.02107485,move
-0.667294,-1.4519043,1.3147221,0.03932445,0.86872673,0.02107485,move
-1.3479521,-1.4694462,-3.236743,0.016111571,1.0055605,0.16768251,move
-1.3479521,-1.4694462,-3.236743,0.016111571,1.0055605,0.16768251,move
-1.2631536,-1.368617,-4.0841265,-0.26183212,0.40996695,0.34422258,move
-1.2631536,-1.368617,-4.0841265,-0.26183212,0.40996695,0.34422258,move
-0.55653346,-1.18012,-1.4898701,-0.36201403,-0.46173778,0.49571714,move
-0.55653346,-1.18012,-1.4898701,-0.36201403,-0.46173778,0.49571714,move
0.483952,-1.1501899,0.002339363,-0.14882204,-0.72746414,0.5647449,move
0.483952,-1.1501899,0.002339363,-0.14882204,-0.72746414,0.5647449,move
1.2122976,-1.0321517,-0.3252387,0.064369924,-0.5643631,0.50976706,move
1.2122976,-1.0321517,-0.3252387,0.064369924,-0.5643631,0.50976706,move
1.3361733,-1.1079063,-1.2966743,0.035659257,-0.21800253,0.32284227,move
1.3361733,-1.1079063,-1.2966743,0.035659257,-0.21800253,0.32284227,move
0.65523356,-1.3435788,-1.8483815,-0.1653154,0.07582365,0.12736541,move
0.65523356,-1.3435788,-1.8483815,-0.1653154,0.07582365,0.12736541,move
0.007921442,-1.4381466,-0.8913002,-0.2972623,0.10147999,0.061391957,move
0.007921442,-1.4381466,-0.8913002,-0.2972623,0.10147999,0.061391957,move
-0.29732963,-1.0967784,-0.5759239,-0.07490735,0.023900103,0.14263703,move
-0.29732963,-1.0967784,-0.5759239,-0.07490735,0.023900103,0.14263703,move
-0.26372722,-0.5182128,-1.1660566,0.18287778,-0.025579982,0.19700404,move
-0.26372722,-0.5182128,-1.1660566,0.18287778,-0.025579982,0.19700404,move
-0.07496493,-0.13039398,-2.1559439,0.27511844,-0.06834055,0.16218472,move
-0.07496493,-0.13039398,-2.1559439,0.27511844,-0.06834055,0.16218472,move
0.009549923,0.022258282,-2.4084573,0.1755474,-0.08544478,0.016798794,move
0.009549923,0.022258282,-2.4084573,0.1755474,-0.08544478,0.016798794,move
-0.4912661,-0.058335304,-1.3375893,0.023441954,-0.13920091,-0.11209377,move
-0.4912661,-0.058335304,-1.3375893,0.023441954,-0.13920091,-0.11209377,move
-0.57009065,-0.008651257,-0.3462181,0.0051159966,-0.1501965,-0.129198,move
-0.57009065,-0.008651257,-0.3462181,0.0051159966,-0.1501965,-0.129198,move
-0.30540216,0.24143219,0.7248297,0.071700305,-0.1764637,-0.12675454,move
-0.30540216,0.24143219,0.7248297,0.071700305,-0.1764637,-0.12675454,move
-0.3227575,0.4976349,1.4408579,0.14500414,-0.12209669,-0.1572978,move
-0.3227575,0.4976349,1.4408579,0.14500414,-0.12209669,-0.1572978,move
-0.59217155,0.6188259,1.4855456,0.20303634,0.01779145,-0.21288654,move
-0.59217155,0.6188259,1.4855456,0.20303634,0.01779145,-0.21288654,move
-0.6539681,0.7192898,1.5305696,0.20853412,0.12347114,-0.23243423,move
-0.6539681,0.7192898,1.5305696,0.20853412,0.12347114,-0.23243423,move
-0.3451301,0.8109031,1.9080667,0.199982,0.14790575,-0.2275473,move
-0.3451301,0.8109031,1.9080667,0.199982,0.14790575,-0.2275473,move
0.18191871,1.1086473,2.240427,0.23602305,0.094149604,-0.2171626,move
0.18191871,1.1086473,2.240427,0.23602305,0.094149604,-0.2171626,move
-0.4128753,1.9512844,1.6466694,0.34475708,0.055665094,-0.24098633,move
-0.4128753,1.9512844,1.6466694,0.34475708,0.055665094,-0.24098633,move
-0.029883973,1.9903383,-0.29208422,0.295277,0.041615196,-0.22815818,move
-0.029883973,1.9903383,-0.29208422,0.295277,0.041615196,-0.22815818,move
0.7331626,1.8726382,-0.13197947,-0.0669661,-0.19845484,-0.28985557,move
0.7331626,1.8726382,-0.13197947,-0.0669661,-0.19845484,-0.28985557,move
0.7030653,1.1260333,1.7549529,-0.48235446,-0.22533292,-0.44684792,move
0.7030653,1.1260333,1.7549529,-0.48235446,-0.22533292,-0.44684792,move
0.4889108,-0.38031387,3.3939052,-0.6344599,-0.075670935,-0.5164866,move
0.4889108,-0.38031387,3.3939052,-0.42676574,0.14973834,-0.410196,move
0.108929455,-0.7124386,3.400609,-0.42676574,0.14973834,-0.410196,move
0.108929455,-0.7124386,3.400609,-0.42676574,0.14973834,-0.410196,move
0.098593056,-1.0461307,1.5710444,-0.059024855,0.2120466,-0.26297748,move
0.098593056,-1.0461307,1.5710444,-0.059024855,0.2120466,-0.26297748,move
0.3124708,-0.9837346,-0.607739,0.09063713,0.18089247,-0.109650314,move
0.3124708,-0.9837346,-0.607739,0.09063713,0.18089247,-0.109650314,move
0.24799891,-1.0239234,-1.3886147,0.0020616702,0.044058654,-0.063224554,move
0.24799891,-1.0239234,-1.3886147,0.0020616702,0.044058654,-0.063224554,move
0.47275227,-1.2345543,-1.6507716,-0.10606148,-0.04390594,-0.050396383,move
0.47275227,-1.2345543,-1.6507716,-0.10606148,-0.04390594,-0.050396383,move
0.82009447,-1.2434869,-0.59692717,-0.21357377,-0.13003793,-0.042455133,move
0.82009447,-1.2434869,-0.59692717,-0.21357377,-0.13003793,-0.042455133,move
1.1145836,-1.1598005,0.3797183,-0.08590292,-0.15447254,-0.070554934,move
1.1145836,-1.1598005,0.3797183,-0.08590292,-0.15447254,-0.070554934,move
1.1120827,-0.9530492,-0.3653183,0.12789991,-0.08666651,-0.13408493,move
1.1120827,-0.9530492,-0.3653183,0.12789991,-0.08666651,-0.13408493,move
0.5865265,-0.93243647,-1.5817528,0.22686008,0.004352415,-0.20616703,move
0.5865265,-0.93243647,-1.5817528,0.22686008,0.004352415,-0.20616703,move
0.10797027,-0.95281315,-2.5445704,0.209145,0.06727154,-0.22937989,move
0.10797027,-0.95281315,-2.5445704,0.209145,0.06727154,-0.22937989,move
-0.48967505,-0.9693208,-2.8944616,0.09246973,0.0092393365,-0.18967366,move
-0.48967505,-0.9693208,-2.8944616,0.09246973,0.0092393365,-0.18967366,move
-0.22475189,-0.38929653,-1.862845,-0.037033707,-0.06467536,-0.076052725,move
-0.22475189,-0.38929653,-1.862845,-0.037033707,-0.06467536,-0.076052725,move
0.0099772215,0.045472622,-1.3534617,-0.014431692,-0.075670935,-0.043066,move
0.0099772215,0.045472622,-1.3534617,0.065591656,-0.14714217,-0.08277224,move
0.47027445,0.28482103,-0.7553754,0.065591656,-0.14714217,-0.08277224,move
0.47027445,0.28482103,-0.7553754,0.065591656,-0.14714217,-0.08277224,move
0.14222851,-0.009693623,-0.3364029,0.07841983,-0.16180293,-0.16584991,move
0.14222851,-0.009693623,-0.3364029,0.07841983,-0.16180293,-0.16584991,move
-0.21240383,-0.25774908,0.69321346,0.04298964,-0.051236324,-0.12492194,move
-0.21240383,-0.25774908,0.69321346,0.04298964,-0.051236324,-0.12492194,move
-0.063605905,0.063611984,0.608078,0.14439327,0.09353874,0.0033597588,move
-0.063605905,0.063611984,0.608078,0.14439327,0.09353874,0.0033597588,move
0.16566229,0.42584467,0.00106287,0.22563834,0.18150334,0.11453723,move
0.16566229,0.42584467,0.00106287,0.22563834,0.18150334,0.11453723,move
0.5834668,1.049089,0.5872445,0.23052527,0.11797335,0.18173242,move
0.5834668,1.049089,0.5872445,0.23052527,0.11797335,0.18173242,move
0.66507924,1.6265788,1.5388637,0.30810517,0.027565295,0.15668693,move
0.66507924,1.6265788,1.5388637,0.30810517,0.027565295,0.15668693,move
0.18901423,1.7240353,2.2814965,0.45043677,0.05138904,0.13347405,move
0.18901423,1.7240353,2.2814965,0.45043677,0.05138904,0.13347405,move
-1.3947923,2.5340881,1.181171,0.5438991,0.32872185,0.21533,move
-1.3947923,2.5340881,1.181171,0.5438991,0.32872185,0.21533,move
-1.4269876,3.046587,-1.1779699,0.3917937,0.52236617,0.40469822,move
-1.4269876,3.046587,-1.1779699,0.3917937,0.52236617,0.40469822,move
-0.7945187,3.4766665,-1.6945171,-0.02359467,0.15829046,0.39736784,move
-0.7945187,3.4766665,-1.6945171,-0.02359467,0.15829046,0.39736784,move
-0.0065571666,2.5899453,0.10282898,-0.47441322,-0.35178202,0.20616703,move
-0.0065571666,2.5899453,0.10282898,-0.47441322,-0.35178202,0.20616703,move
0.781255,0.65663147,3.919826,-0.74746996,-0.7268533,0.029626964,move
0.781255,0.65663147,3.919826,-0.74746996,-0.7268533,0.029626964,move
0.05297874,-1.3751369,7.126805,-0.42493314,-0.45623997,-0.06688975,move
0.05297874,-1.3751369,7.126805,-0.42493314,-0.45623997,-0.06688975,move
-1.003373,-2.3206668,2.9639802,0.24518603,0.4423428,0.09987647,move
-1.003373,-2.3206668,2.9639802,0.24518603,0.4423428,0.09987647,move
-1.1623669,-2.1575146,-2.8079166,0.33987015,0.7966446,0.3313944,move
-1.1623669,-2.1575146,-2.8079166,0.33987015,0.7966446,0.3313944,move
-0.7271646,-1.7386341,-4.0999537,-0.088346384,0.35132387,0.44929138,move
-0.7271646,-1.7386341,-4.0999537,-0.088346384,0.35132387,0.44929138,move
-0.25526482,-1.1813378,-1.8059936,-0.38950294,-0.21983513,0.42363504,move
-0.25526482,-1.1813378,-1.8059936,-0.38950294,-0.21983513,0.42363504,move
-0.15564562,-1.3145547,-0.16814566,-0.33574682,-0.4366923,0.3203988,move
-0.15564562,-1.3145547,-0.16814566,-0.33574682,-0.4366923,0.3203988,move
0.06302227,-1.6304631,0.256454,-0.18364136,-0.34017557,0.2519819,move
0.06302227,-1.6304631,0.256454,-0.18364136,-0.34017557,0.2519819,move
0.18590806,-1.720664,-0.44057274,-0.13782647,-0.010919216,0.23365596,move
0.18590806,-1.720664,-0.44057274,-0.13782647,-0.010919216,0.23365596,move
0.44208646,-1.5061245,-0.9678745,-0.1811979,0.18516853,0.20616703,move
0.44208646,-1.5061245,-0.9678745,-0.1811979,0.18516853,0.20616703,move
0.24112289,-1.2816133,-1.2645092,-0.15981762,0.18944459,0.16401732,move
0.24112289,-1.2816133,-1.2645092,-0.15981762,0.18944459,0.16401732,move
0.008731296,-1.0835834,-1.4856114,-0.060246583,0.058108557,0.15485434,move
0.008731296,-1.0835834,-1.4856114,-0.060246583,0.058108557,0.15485434,move
0.055915073,-0.6613016,-1.3036709,0.016111571,-0.074449204,0.17745635,move
0.055915073,-0.6613016,-1.3036709,0.016111571,-0.074449204,0.17745635,move
0.524905,-0.045640945,-1.4602747,0.059483003,-0.0048105638,0.13164146,move
0.524905,-0.045640945,-1.4602747,0.059483003,-0.0048105638,0.13164146,move
0.6142644,0.23588133,-1.9824533,-0.003436117,0.0110719325,-0.025961773,move
0.6142644,0.23588133,-1.9824533,-0.003436117,0.0110719325,-0.025961773,move
-0.09195523,0.013641834,-1.2758012,-0.13782647,-0.075670935,-0.16035213,move
-0.09195523,0.013641834,-1.2758012,-0.13782647,-0.075670935,-0.16035213,move
-0.48327598,-0.11858797,-0.091575146,-0.12744176,-0.16668986,-0.17440203,move
-0.48327598,-0.11858797,-0.091575146,-0.12744176,-0.16668986,-0.17440203,move
-0.37113985,-0.032823563,0.77787733,0.005726862,-0.20822869,-0.10842858,move
-0.37113985,-0.032823563,0.77787733,0.005726862,-0.20822869,-0.10842858,move
-0.119920224,0.456594,1.5277596,0.14011721,-0.18318321,-0.06994407,move
-0.119920224,0.456594,1.5277596,0.14011721,-0.18318321,-0.06994407,move
0.011959903,0.99064636,1.5306916,0.2561816,-0.093386024,-0.090713486,move
0.011959903,0.99064636,1.5306916,0.2561816,-0.093386024,-0.090713486,move
0.14104982,1.1442032,1.3014727,0.29710957,-0.039629884,-0.1572978,move
0.14104982,1.1442032,1.3014727,0.29710957,-0.039629884,-0.1572978,move
0.01937398,0.9874282,1.7390537,0.2879466,-0.08361218,-0.23426682,move
0.01937398,0.9874282,1.7390537,0.3319289,-0.01947133,-0.2678644,move
-0.11774755,0.96093893,1.9535646,0.3319289,-0.01947133,-0.2678644,move
-0.11774755,0.96093893,1.9535646,0.3319289,-0.01947133,-0.2678644,move
-0.6268097,1.6461725,0.23714638,0.39851323,0.08071057,-0.22693644,move
-0.6268097,1.6461725,0.23714638,0.39851323,0.08071057,-0.22693644,move
0.642477,1.8945394,-1.1903806,0.26900977,-0.14592044,-0.1908954,move
0.642477,1.8945394,-1.1903806,0.26900977,-0.14592044,-0.1908954,move
1.0321891,2.2287765,0.040844917,-0.1109484,-0.574137,-0.34972036,move
1.0321891,2.2287765,0.040844917,-0.3497967,-0.7195229,-0.57696223,move
1.0260185,1.4208407,2.3095417,-0.3497967,-0.7195229,-0.57696223,move
1.0260185,1.4208407,2.3095417,-0.3497967,-0.7195229,-0.57696223,move
0.49677584,-0.03355503,2.6131954,-0.37545305,-0.4537965,-0.74372846,move
0.49677584,-0.03355503,2.6131954,-0.37545305,-0.4537965,-0.74372846,move
-0.39966977,-0.86354685,2.1095352,-0.45853072,0.04222606,-0.7296785,move
-0.39966977,-0.86354685,2.1095352,-0.45853072,0.04222606,-0.7296785,move
-0.9441385,-1.4306855,1.0066481,-0.40905064,0.37698022,-0.5873469,move
-0.9441385,-1.4306855,1.0066481,-0.40905064,0.37698022,-0.5873469,move
-0.5637716,-1.2328992,-1.2741952,-0.20807597,0.37942368,-0.34483343,move
-0.5637716,-1.2328992,-1.2741952,-0.20807597,0.37942368,-0.34483343,move
0.04065585,-1.0406737,-2.3925638,-0.18547396,-0.1043816,-0.1908954,move
0.04065585,-1.0406737,-2.3925638,-0.18547396,-0.1043816,-0.1908954,move
0.47276744,-0.9718385,-1.6367931,-0.37728566,-0.31390837,-0.20311269,move
0.47276744,-0.9718385,-1.6367931,-0.37728566,-0.31390837,-0.20311269,move
0.32825816,-1.4443016,0.15613031,-0.53427804,-0.23877195,-0.26297748,move
0.32825816,-1.4443016,0.15613031,-0.53427804,-0.23877195,-0.26297748,move
-0.37297553,-1.7492146,0.69788027,-0.45486555,0.042836927,-0.23793201,move
-0.37297553,-1.7492146,0.69788027,-0.45486555,0.042836927,-0.23793201,move
-0.7584624,-1.8283443,-0.11746311,-0.24289529,0.17172949,-0.0729984,move
-0.7584624,-1.8283443,-0.11746311,-0.24289529,0.17172949,-0.0729984,move
-0.15658057,-1.1580744,-1.1746149,-0.052305337,0.06910413,0.11759156,move
-0.15658057,-1.1580744,-1.1746149,-0.052305337,0.06910413,0.11759156,move
0.2102493,-0.59187365,-1.6589279,0.044211373,-0.049403727,0.13958271,move
0.2102493,-0.59187365,-1.6589279,0.044211373,-0.049403727,0.13958271,move
0.04427725,-0.25750065,-1.9602146,0.033826664,-0.023747386,0.06566802,move
0.04427725,-0.25750065,-1.9602146,0.033826664,-0.023747386,0.06566802,move
-0.32690674,-0.05628252,-1.707264,-0.06818783,0.09048442,-3.0543262E-4,move
-0.32690674,-0.05628252,-1.707264,-0.06818783,0.09048442,-3.0543262E-4,move
-0.26889935,0.0043301582,-1.2804933,-0.08590292,0.22120957,0.0033597588,move
-0.26889935,0.0043301582,-1.2804933,-0.08590292,0.22120957,0.0033597588,move
-0.1373758,0.1290226,-1.5041738,-0.03153592,0.24564418,0.033292156,move
-0.1373758,0.1290226,-1.5041738,-0.03153592,0.24564418,0.033292156,move
0.28759313,0.22953796,-1.111752,0.016722437,0.117362484,0.070554934,move
0.28759313,0.22953796,-1.111752,0.016722437,0.117362484,0.070554934,move
0.56501716,0.5069456,-0.5456009,0.08391761,-0.029245174,0.062002823,move
0.56501716,0.5069456,-0.5456009,0.08391761,-0.029245174,0.062002823,move
0.5585057,0.82021,0.3582468,0.09552405,0.009850202,0.028405234,move
0.5585057,0.82021,0.3582468,0.09552405,0.009850202,0.028405234,move
0.27445173,0.9792042,0.3056612,0.13400856,0.20777054,0.022296581,move
0.27445173,0.9792042,0.3056612,0.13400856,0.20777054,0.022296581,move
0.18557093,1.1076851,0.8403163,0.06742425,0.30611986,0.07238753,move
0.18557093,1.1076851,0.8403163,0.06742425,0.30611986,0.07238753,move
0.22501549,1.2989326,2.167007,0.05642868,0.26702446,0.1518,move
0.22501549,1.2989326,2.167007,0.05642868,0.26702446,0.1518,move
0.33561844,1.3911881,3.420528,0.22502749,0.19555324,0.23793201,move
0.33561844,1.3911881,3.420528,0.22502749,0.19555324,0.23793201,move
-0.3731032,2.1591592,2.3503876,0.5799402,0.3226132,0.3717115,move
-0.3731032,2.1591592,2.3503876,0.5799402,0.3226132,0.3717115,move
-0.9462203,2.9399333,-0.69618607,0.54878604,0.45150578,0.4792238,move
-0.9462203,2.9399333,-0.69618607,0.54878604,0.45150578,0.4792238,move
-0.649797,3.6402245,-1.8590713,0.075976364,0.14118622,0.5140431,move
-0.649797,3.6402245,-1.8590713,0.075976364,0.14118622,0.5140431,move
0.42866468,2.6674304,0.015620708,-0.4469243,-0.3572798,0.34300083,move
0.42866468,2.6674304,0.015620708,-0.4469243,-0.3572798,0.34300083,move
1.1806135,0.4377737,3.9486585,-0.77129376,-0.7775551,0.09437868,move
1.1806135,0.4377737,3.9486585,-0.77129376,-0.7775551,0.09437868,move
-0.039765626,-1.468339,7.6376743,-0.60636014,-0.44219008,-0.03573562,move
-0.039765626,-1.468339,7.6376743,-0.60636014,-0.44219008,-0.03573562,move
-1.6870439,-2.2296798,4.783224,0.049098294,0.5217553,0.22204952,move
-1.6870439,-2.2296798,4.783224,0.049098294,0.5217553,0.22204952,move
-1.0329616,-1.5423408,-0.97453547,0.40889794,0.9554696,0.5928447,move
-1.0329616,-1.5423408,-0.97453547,0.40889794,0.9554696,0.5928447,move
0.10604745,-0.6623988,-3.8241577,0.25434902,0.4631122,0.7180721,move
0.10604745,-0.6623988,-3.8241577,0.25434902,0.4631122,0.7180721,move
0.88473296,-0.38357592,-2.1208248,-0.009544769,-0.30596712,0.5671884,move
0.88473296,-0.38357592,-2.1208248,-0.022983804,-0.58329993,0.31856623,move
0.8242525,-0.6901145,-0.30886364,-0.022983804,-0.58329993,0.31856623,move
0.8242525,-0.6901145,-0.30886364,-0.022983804,-0.58329993,0.31856623,move
0.5037752,-1.5921845,-0.10310984,0.10529789,-0.37927097,0.11636983,move
0.5037752,-1.5921845,-0.10310984,0.10529789,-0.37927097,0.11636983,move
0.17496553,-1.9142237,-1.175179,0.057650406,0.08559749,0.03268129,move
0.17496553,-1.9142237,-1.175179,0.057650406,0.08559749,0.03268129,move
0.1835197,-1.8061128,-1.3651175,-0.057803124,0.30917418,0.021685716,move
0.1835197,-1.8061128,-1.3651175,-0.057803124,0.30917418,0.021685716,move
0.07876199,-1.583415,-2.0172353,0.04054618,0.28901562,0.0033597588,move
0.07876199,-1.583415,-2.0172353,0.04054618,0.28901562,0.0033597588,move
0.07876199,-1.583415,-2.0172353,0.13278683,0.14912748,-0.004581489,move
-0.24262278,-1.3407478,-2.9347801,0.13278683,0.14912748,-0.004581489,move
-0.49934393,-1.1131401,-2.6720634,0.08636107,-0.02069306,-0.0033597588,move
-0.49934393,-1.1131401,-2.6720634,0.08636107,-0.02069306,-0.0033597588,move
-0.29024816,-0.7170534,-2.0192232,0.037491854,-0.043295074,0.026572637,move
-0.29024816,-0.7170534,-2.0192232,0.037491854,-0.043295074,0.026572637,move
-0.19807604,-0.2958579,-1.6513538,-3.8179077E-4,0.031841353,-0.015577064,move
-0.19807604,-0.2958579,-1.6513538,-3.8179077E-4,0.031841353,-0.015577064,move
-0.2677087,-0.10488701,-1.5138364,-0.041309763,0.08437576,-0.067500606,move
-0.2677087,-0.10488701,-1.5138364,-0.041309763,0.08437576,-0.067500606,move
-0.65496385,-0.19622517,-0.91337967,-0.048640147,-0.0139735425,-0.071776666,move
-0.65496385,-0.19622517,-0.91337967,-0.048640147,-0.0139735425,-0.071776666,move
-0.4402534,0.057315826,0.3518448,0.057039544,-0.14530957,0.0015271631,move
-0.4402534,0.057315826,0.3518448,0.057039544,-0.14530957,0.0015271631,move
0.08574702,0.55208826,1.3310986,0.2213623,-0.2045635,0.05100725,move
0.08574702,0.55208826,1.3310986,0.31360295,-0.07933612,0.013133603,move
0.8784493,1.3184538,1.7091517,0.31360295,-0.07933612,0.013133603,move
0.8784493,1.3184538,1.7091517,0.31360295,-0.07933612,0.013133603,move
0.851578,1.492547,1.4621167,0.32582024,0.11614075,-0.20922135,move
0.851578,1.492547,1.4621167,0.32582024,0.11614075,-0.20922135,move
-0.054438278,1.1184735,1.3290343,0.24640776,0.1839468,-0.35216382,move
-0.054438278,1.1184735,1.3290343,0.24640776,0.1839468,-0.35216382,move
-0.49241704,1.1763663,2.2539172,0.22808181,0.14424056,-0.33444872,move
-0.49241704,1.1763663,2.2539172,0.22808181,0.14424056,-0.33444872,move
-1.2290447,2.098156,1.2686124,0.4003458,0.17417295,-0.2489276,move
-1.2290447,2.098156,1.2686124,0.4003458,0.17417295,-0.2489276,move
-0.23300827,2.2096105,-0.72592545,0.38690677,0.0397826,-0.14263703,move
-0.23300827,2.2096105,-0.72592545,0.38690677,0.0397826,-0.14263703,move
0.10298984,2.478074,-0.66169596,-0.015653422,-0.39820778,-0.23609942,move
0.10298984,2.478074,-0.66169596,-0.015653422,-0.39820778,-0.23609942,move
0.4438228,1.604703,1.1613932,-0.59169936,-0.44096833,-0.3827071,move
0.4438228,1.604703,1.1613932,-0.59169936,-0.44096833,-0.3827071,move
0.31446663,0.06365919,3.5449843,-1.0156398,-0.18012889,-0.52748215,move
0.31446663,0.06365919,3.5449843,-1.0156398,-0.18012889,-0.52748215,move
-0.4678867,-1.0044622,5.0650783,-1.0003682,0.20593795,-0.5354234,move
-0.4678867,-1.0044622,5.0650783,-1.0003682,0.20593795,-0.5354234,move
-1.2703928,-1.7432284,3.5641694,-0.50006956,0.5480225,-0.34788775,move
-1.2703928,-1.7432284,3.5641694,-0.50006956,0.5480225,-0.34788775,move
-0.1460414,-2.0897985,0.600904,0.0020616702,0.63781965,-0.041233405,move
-0.1460414,-2.0897985,0.600904,0.0020616702,0.63781965,-0.041233405,move
0.015884101,-1.3511162,-1.1649599,0.26473373,0.31345022,0.00580322,move
0.015884101,-1.3511162,-1.1649599,0.26473373,0.31345022,0.00580322,move
0.09998715,-1.066617,-1.8144164,0.209145,-0.04024075,0.101098195,move
0.09998715,-1.066617,-1.8144164,0.209145,-0.04024075,0.101098195,move
0.44485608,-1.183228,-1.8960252,-0.044974953,-0.031077769,0.14935656,move
0.44485608,-1.183228,-1.8960252,-0.044974953,-0.031077769,0.14935656,move
1.0097606,-1.3854022,-1.1515994,-0.24717134,0.023289237,0.11636983,move
1.0097606,-1.3854022,-1.1515994,-0.22640193,0.06849326,0.008246681,move
0.734683,-1.2946362,-1.0957985,-0.22640193,0.06849326,0.008246681,move
0.734683,-1.2946362,-1.0957985,-0.22640193,0.06849326,0.008246681,move
0.45759952,-1.2437887,-1.5913506,-0.11950051,0.048945576,-0.03573562,move
0.45759952,-1.2437887,-1.5913506,-0.11950051,0.048945576,-0.03573562,move
0.5657225,-1.218451,-1.7519231,0.058872137,-0.051236324,-0.025350908,move
0.5657225,-1.218451,-1.7519231,0.058872137,-0.051236324,-0.025350908,move
0.5341497,-0.45224285,-2.3572721,0.24518603,-0.188681,-0.038789943,move
0.5341497,-0.45224285,-2.3572721,0.24518603,-0.188681,-0.038789943,move
0.7560947,0.18406153,-2.5158324,0.23113614,-0.23144157,-0.0852157,move
0.7560947,0.18406153,-2.5158324,0.23113614,-0.23144157,-0.0852157,move
0.8931001,0.3020296,-2.6146717,0.024663685,-0.053679783,-0.183565,move
0.8931001,0.3020296,-2.6146717,0.024663685,-0.053679783,-0.183565,move
0.38067424,0.29836655,-1.5158129,-0.17814358,0.023900103,-0.28863382,move
0.38067424,0.29836655,-1.5158129,-0.17814358,0.023900103,-0.28863382,move
0.33199087,0.17384243,-0.07212782,-0.14393513,-0.08666651,-0.2660318,move
0.33199087,0.17384243,-0.07212782,0.06253733,-0.17218764,-0.19394971,move
0.52244496,0.18123102,0.7271681,0.06253733,-0.17218764,-0.19394971,move
0.52244496,0.18123102,0.7271681,0.06253733,-0.17218764,-0.19394971,move
0.41769904,0.34954882,0.88300085,0.23480132,-0.07689266,-0.13591751,move
0.41769904,0.34954882,0.88300085,0.23480132,-0.07689266,-0.13591751,move
0.15604705,0.61913013,0.70473766,0.26045766,0.18639025,-0.05467244,move
0.15604705,0.61913013,0.70473766,0.26045766,0.18639025,-0.05467244,move
0.041060448,0.8462801,0.90151024,0.22686008,0.21693352,0.05589417,move
0.041060448,0.8462801,0.90151024,0.22686008,0.21693352,0.05589417,move
-0.23282564,0.9510236,2.040882,0.2616794,0.041615196,0.18845193,move
-0.23282564,0.9510236,2.040882,0.2616794,0.041615196,0.18845193,move
-0.4299065,1.537529,2.9057474,0.43516514,0.0061850105,0.3998113,move
-0.4299065,1.537529,2.9057474,0.43516514,0.0061850105,0.3998113,move
-0.25763053,2.7974749,1.2804055,0.6764569,0.27496573,0.56169057,move
-0.25763053,2.7974749,1.2804055,0.6764569,0.27496573,0.56169057,move
-0.17238879,3.2611427,-2.1322675,0.46754098,0.39958224,0.49021935,move
-0.17238879,3.2611427,-2.1322675,0.46754098,0.39958224,0.49021935,move
-0.08950174,3.2626023,-3.012877,-0.33208162,-0.0463494,0.269697,move
-0.08950174,3.2626023,-3.012877,-0.33208162,-0.0463494,0.269697,move
0.60411084,1.2909851,1.1319475,-1.2153927,-0.7586183,0.04184427,move
0.60411084,1.2909851,1.1319475,-1.2153927,-0.7586183,0.04184427,move
0.43133712,-0.7548413,7.893123,-1.3198507,-0.96264726,-0.11942416,move
0.43133712,-0.7548413,7.893123,-1.3198507,-0.96264726,-0.11942416,move
-1.3826907,-1.7424259,8.162539,-0.3974442,0.040393464,0.035124753,move
-1.3826907,-1.7424259,8.162539,-0.3974442,0.040393464,0.035124753,move
-1.2457219,-1.5514989,1.480331,0.3667482,0.90904385,0.36132678,move
-1.2457219,-1.5514989,1.480331,0.3667482,0.90904385,0.36132678,move
-0.8869597,-0.928525,-3.411049,0.22563834,0.7832056,0.5195409,move
-0.8869597,-0.928525,-3.411049,0.22563834,0.7832056,0.5195409,move
-0.34722635,-0.44590092,-2.940679,-0.2111303,0.121638544,0.5006041,move
-0.34722635,-0.44590092,-2.940679,-0.2111303,0.121638544,0.5006041,move
-0.010449052,-0.6900892,-0.52033615,-0.29054278,-0.35300374,0.37782016,move
-0.010449052,-0.6900892,-0.52033615,-0.060246583,-0.39698604,0.28252518,move
-0.14393646,-1.2460885,0.41693115,-0.060246583,-0.39698604,0.28252518,move
-0.14393646,-1.2460885,0.41693115,-0.060246583,-0.39698604,0.28252518,move
0.2634139,-1.3480768,-0.53319216,0.15661058,-0.12942708,0.31429017,move
0.2634139,-1.3480768,-0.53319216,0.15661058,-0.12942708,0.31429017,move
0.78994673,-1.0854464,-1.4782829,0.20303634,0.0397826,0.27763826,move
0.78994673,-1.0854464,-1.4782829,0.20303634,0.0397826,0.27763826,move
0.9974263,-0.8753519,-2.1365023,0.2018146,0.04589125,0.1695151,move
0.9974263,-0.8753519,-2.1365023,0.2018146,0.04589125,0.1695151,move
0.6113364,-0.9040847,-2.5098052,0.19387336,-0.0035888334,0.0070249503,move
0.6113364,-0.9040847,-2.5098052,0.19387336,-0.0035888334,0.0070249503,move
-0.49595004,-1.0965395,-2.3253999,0.10590876,0.007406741,-0.09987647,move
-0.49595004,-1.0965395,-2.3253999,0.10590876,0.007406741,-0.09987647,move
-0.8421312,-0.9046011,-1.7298441,0.09369145,-0.006032294,-0.03634648,move
-0.8421312,-0.9046011,-1.7298441,0.09369145,-0.006032294,-0.03634648,move
-0.13161403,-0.06299734,-1.6773124,0.18593211,-0.10132727,0.033292156,move
-0.13161403,-0.06299734,-1.6773124,0.18593211,-0.10132727,0.033292156,move
0.2509715,0.19774866,-2.0763798,0.23357959,-0.2222786,-0.06994407,move
0.2509715,0.19774866,-2.0763798,0.23357959,-0.2222786,-0.06994407,move
0.00636106,0.120648384,-1.9080539,0.14133894,-0.37377316,-0.21471913,move
0.00636106,0.120648384,-1.9080539,0.14133894,-0.37377316,-0.21471913,move
-0.46155778,-0.18745947,0.080655575,-0.029703323,-0.49716794,-0.31978795,move
-0.46155778,-0.18745947,0.080655575,-0.029703323,-0.49716794,-0.31978795,move
-0.6657138,-0.15221167,1.3622093,0.081474155,-0.46173778,-0.28802297,move
-0.6657138,-0.15221167,1.3622093,0.29710957,-0.41836634,-0.20189096,move
-0.32322833,0.29439926,1.8335028,0.29710957,-0.41836634,-0.20189096,move
-0.32322833,0.29439926,1.8335028,0.29710957,-0.41836634,-0.20189096,move
0.24661009,0.91540575,1.1938906,0.4565454,-0.26687175,-0.16035213,move
0.24661009,0.91540575,1.1938906,0.4565454,-0.26687175,-0.16035213,move
0.37945932,1.2677298,1.0819106,0.44005206,-0.33895385,-0.22999077,move
0.37945932,1.2677298,1.0819106,0.44005206,-0.33895385,-0.22999077,move
0.35832098,1.2047286,1.1358657,0.3844633,-0.35117117,-0.29718593,move
0.35832098,1.2047286,1.1358657,0.3844633,-0.35117117,-0.29718593,move
-1.1227287,1.1811957,1.2213812,0.37713292,-0.11110111,-0.3155119,move
-1.1227287,1.1811957,1.2213812,0.37713292,-0.11110111,-0.3155119,move
-0.78444266,2.3951077,0.315228,0.068645984,0.28168523,-0.09743301,move
-0.78444266,2.3951077,0.315228,0.068645984,0.28168523,-0.09743301,move
0.33014792,2.1877742,-0.8018694,-0.13049608,-0.08116872,-0.2312125,move
0.33014792,2.1877742,-0.8018694,-0.13049608,-0.08116872,-0.2312125,move
0.92349935,1.5748019,0.6454892,-0.47013718,-0.56863916,-0.36377025,move
0.92349935,1.5748019,0.6454892,-0.47013718,-0.56863916,-0.36377025,move
1.2988805,0.5011177,2.0000749,-0.76213074,-0.6840927,-0.5476407,move
1.2988805,0.5011177,2.0000749,-0.76213074,-0.6840927,-0.5476407,move
0.8492142,-0.62633324,4.400548,-0.8623127,-0.8478046,-0.6728681,move
0.8492142,-0.62633324,4.400548,-0.8623127,-0.8478046,-0.6728681,move
-0.6341569,-2.0237842,6.1098785,-0.5990297,-0.4000404,-0.6075055,move
-0.6341569,-2.0237842,6.1098785,-0.5990297,-0.4000404,-0.6075055,move
-0.15824527,-1.7060709,2.2181697,-0.18486309,0.5913939,-0.28985557,move
-0.15824527,-1.7060709,2.2181697,-0.18486309,0.5913939,-0.28985557,move
0.22255203,-1.294002,-0.68216276,-0.0071013086,0.49426633,-0.13408493,move
0.22255203,-1.294002,-0.68216276,-0.0071013086,0.49426633,-0.13408493,move
0.5685849,-1.0405216,-0.6286912,-0.09750936,0.047112983,-0.0852157,move
0.5685849,-1.0405216,-0.6286912,-0.09750936,0.047112983,-0.0852157,move
0.6056336,-1.2625976,0.21947241,-0.041309763,-0.22777638,-0.13164146,move
0.6056336,-1.2625976,0.21947241,-0.041309763,-0.22777638,-0.13164146,move
0.15065497,-1.713213,-0.75013256,0.18348865,-0.13492486,-0.18784106,move
0.15065497,-1.713213,-0.75013256,0.18348865,-0.13492486,-0.18784106,move
0.13841158,-1.7832837,-2.563702,0.24518603,0.086819224,-0.13164146,move
0.13841158,-1.7832837,-2.563702,0.24518603,0.086819224,-0.13164146,move
0.06707214,-1.4467411,-3.2585697,0.12056953,0.014737124,-0.10170906,move
0.06707214,-1.4467411,-3.2585697,0.12056953,0.014737124,-0.10170906,move
0.31798315,-0.9543638,-3.0420008,0.014278975,-0.12637275,-0.10903945,move
0.31798315,-0.9543638,-3.0420008,0.014278975,-0.12637275,-0.10903945,move
0.15981092,-0.6721854,-2.694519,-0.018707749,-0.28336513,-0.19761491,move
0.15981092,-0.6721854,-2.694519,-0.018707749,-0.28336513,-0.19761491,move
-0.24485885,-0.58716726,-2.177877,-0.10239629,-0.32551482,-0.23182335,move
-0.24485885,-0.58716726,-2.177877,-0.10239629,-0.32551482,-0.23182335,move
-0.2882865,-0.36578417,-0.98052406,-0.1689806,-0.20883955,-0.20066923,move
-0.2882865,-0.36578417,-0.98052406,-0.1689806,-0.20883955,-0.20066923,move
-0.41215983,-0.26977062,-0.61659527,-0.08773552,-0.054901514,-0.15363261,move
-0.41215983,-0.26977062,-0.61659527,-0.08773552,-0.054901514,-0.15363261,move
-0.06274462,0.046515465,-0.12854147,0.013057245,-0.032910366,-0.08032878,move
-0.06274462,0.046515465,-0.12854147,0.11873693,-0.044516806,-0.0711658,move
0.39617872,0.33180857,0.29826403,0.11873693,-0.044516806,-0.0711658,move
0.39617872,0.33180857,0.29826403,0.11873693,-0.044516806,-0.0711658,move
0.45807463,0.46275187,0.6870456,0.23052527,0.07276932,-0.099265605,move
0.45807463,0.46275187,0.6870456,0.23052527,0.07276932,-0.099265605,move
-0.15704702,0.53282595,-0.12064314,0.34353533,0.34277177,-0.10170906,move
-0.15704702,0.53282595,-0.12064314,0.33315063,0.43195808,-9.162979E-4,move
-0.57653034,0.6495619,-0.6406579,0.33315063,0.43195808,-9.162979E-4,move
-0.57653034,0.6495619,-0.6406579,0.33315063,0.43195808,-9.162979E-4,move
-0.4982029,1.1820254,0.22308064,0.31482467,0.30123293,0.14996742,move
-0.4982029,1.1820254,0.22308064,0.31482467,0.30123293,0.14996742,move
-0.40637627,1.4369678,1.439599,0.3728569,0.11675162,0.27458394,move
-0.40637627,1.4369678,1.439599,0.3728569,0.11675162,0.27458394,move
0.34405398,1.6656151,3.161025,0.49625164,0.04772385,0.39370266,move
0.34405398,1.6656151,3.161025,0.49625164,0.04772385,0.39370266,move
-0.19903818,2.7103157,2.440216,0.7186066,0.25114197,0.43463063,move
-0.19903818,2.7103157,2.440216,0.7186066,0.25114197,0.43463063,move
-0.2011559,3.5138679,-1.1395783,0.67523515,0.6653086,0.441961,move
-0.2011559,3.5138679,-1.1395783,0.67523515,0.6653086,0.441961,move
-0.28081223,4.251819,-2.8871884,0.08697194,0.4930446,0.29718593,move
-0.28081223,4.251819,-2.8871884,0.08697194,0.4930446,0.29718593,move
0.6504487,2.401626,-0.46618605,-0.9001863,-0.39515346,-0.062002823,move
0.6504487,2.401626,-0.46618605,-0.9001863,-0.39515346,-0.062002823,move
1.2203567,-0.025211811,5.8990636,-1.309466,-0.96447986,-0.301462,move
1.2203567,-0.025211811,5.8990636,-1.309466,-0.96447986,-0.301462,move
-0.21557225,-2.1061797,9.893845,-0.6417903,-0.42875105,-0.2782491,move
-0.21557225,-2.1061797,9.893845,-0.6417903,-0.42875105,-0.2782491,move
-0.91511494,-2.4794095,4.2267084,0.33803755,0.89071786,0.06872234,move
-0.91511494,-2.4794095,4.2267084,0.33803755,0.89071786,0.06872234,move
-0.7826973,-1.7007422,-2.5847626,0.42233697,1.3671927,0.33444872,move
-0.7826973,-1.7007422,-2.5847626,0.42233697,1.3671927,0.33444872,move
-0.20925593,-0.89976215,-4.5498624,-0.02359467,0.78198385,0.3662137,move
-0.20925593,-0.89976215,-4.5498624,-0.02359467,0.78198385,0.3662137,move
-0.49654448,-0.91302824,-1.9959273,-0.30642527,-0.15080735,0.24220806,move
-0.49654448,-0.91302824,-1.9959273,-0.30642527,-0.15080735,0.24220806,move
-0.36199996,-1.432272,0.35276031,-0.22090414,-0.5032766,0.2049453,move
-0.36199996,-1.432272,0.35276031,-0.22090414,-0.5032766,0.2049453,move
-0.14633435,-1.9024868,0.498796,0.018555032,-0.34628424,0.22204952,move
-0.14633435,-1.9024868,0.498796,0.018555032,-0.34628424,0.22204952,move
0.21077171,-1.8023872,-0.6085377,0.103465304,-0.04268421,0.24709499,move
0.21077171,-1.8023872,-0.6085377,0.103465304,-0.04268421,0.24709499,move
0.44135803,-1.4383283,-1.6104493,0.07231117,0.11919508,0.18845193,move
0.44135803,-1.4383283,-1.6104493,0.07231117,0.11919508,0.18845193,move
0.08550547,-1.2749124,-2.2372742,0.015500706,0.06116288,0.08155051,move
0.08550547,-1.2749124,-2.2372742,0.015500706,0.06116288,0.08155051,move
-0.39111573,-1.1819987,-1.9617128,-0.013209961,-0.100716405,0.02107485,move
-0.39111573,-1.1819987,-1.9617128,-0.013209961,-0.100716405,0.02107485,move
-0.5946388,-1.0931625,-1.9074783,0.037491854,-0.1868484,9.162979E-4,move
-0.5946388,-1.0931625,-1.9074783,0.037491854,-0.1868484,9.162979E-4,move
-0.5952435,-0.85102177,-1.7755861,0.057650406,-0.15508342,-0.0027488936,move
-0.5952435,-0.85102177,-1.7755861,0.057650406,-0.15508342,-0.0027488936,move
-0.49769676,-0.6063385,-1.8020191,0.071700305,-0.14714217,-0.023518313,move
-0.49769676,-0.6063385,-1.8020191,0.071700305,-0.14714217,-0.023518313,move
-0.3451938,-0.4658332,-1.9445782,0.041157044,-0.14408784,-0.07666359,move
-0.3451938,-0.4658332,-1.9445782,0.041157044,-0.14408784,-0.07666359,move
-0.4166805,-0.4899764,-1.6121745,-0.06269005,-0.14530957,-0.15607607,move
-0.4166805,-0.4899764,-1.6121745,-0.06269005,-0.14530957,-0.15607607,move
-0.584403,-0.5032935,-0.7774968,-0.14821118,-0.16363552,-0.22510384,move
-0.584403,-0.5032935,-0.7774968,-0.14821118,-0.16363552,-0.22510384,move
-0.6767726,-0.369246,-0.06986904,-0.10789407,-0.21433735,-0.20922135,move
-0.6767726,-0.369246,-0.06986904,-0.10789407,-0.21433735,-0.20922135,move
-0.5901377,-0.08967972,0.72023344,0.06620252,-0.18990274,-0.19272798,move
-0.5901377,-0.08967972,0.72023344,0.06620252,-0.18990274,-0.19272798,move
-0.52676445,0.19736719,0.35840845,0.22624922,-0.12759447,-0.1853976,move
-0.52676445,0.19736719,0.35840845,0.22624922,-0.12759447,-0.1853976,move
-0.1381348,0.42379332,0.55487967,0.23113614,-0.11904237,-0.18967366,move
-0.1381348,0.42379332,0.55487967,0.23113614,-0.11904237,-0.18967366,move
0.30396163,0.54850435,1.5957551,0.2354122,-0.18440494,-0.22082779,move
0.30396163,0.54850435,1.5957551,0.2354122,-0.18440494,-0.22082779,move
-0.6964456,1.5386419,2.2496438,0.317879,-0.14714217,-0.23732115,move
-0.6964456,1.5386419,2.2496438,0.317879,-0.14714217,-0.23732115,move
-0.69398534,2.2981071,0.2816124,0.3563635,0.09659307,-0.13713925,move
-0.69398534,2.2981071,0.2816124,0.3563635,0.09659307,-0.13713925,move
-0.6693948,2.2560215,0.31878757,-0.061468314,-0.25587618,-0.20005837,move
-0.6693948,2.2560215,0.31878757,-0.061468314,-0.25587618,-0.20005837,move
0.28599924,2.6649594,3.079022,-0.73036575,-0.6333909,-0.45051312,move
0.28599924,2.6649594,3.079022,-0.73036575,-0.6333909,-0.45051312,move
0.15620267,1.1838365,6.197109,-1.1182652,-0.4434118,-0.6441574,move
0.15620267,1.1838365,6.197109,-1.1182652,-0.4434118,-0.6441574,move
-0.42740178,-0.6559911,9.523029,-1.0901654,-0.26259568,-0.5934556,move
-0.42740178,-0.6559911,9.523029,-1.0901654,-0.26259568,-0.5934556,move
-0.55087155,-1.6683888,9.040846,-0.40172026,0.23953554,-0.21044308,move
-0.55087155,-1.6683888,9.040846,-0.40172026,0.23953554,-0.21044308,move
0.45065483,-1.7809916,3.3369865,0.36247218,0.8650615,0.1957823,move
0.45065483,-1.7809916,3.3369865,0.36247218,0.8650615,0.1957823,move
1.3855553,-1.7255077,-1.4632058,0.5109124,0.90537864,0.39614612,move
1.3855553,-1.7255077,-1.4632058,0.5109124,0.90537864,0.39614612,move
1.6599607,-1.2766929,-2.5802636,0.31604642,0.45211664,0.4089743,move
1.6599607,-1.2766929,-2.5802636,0.31604642,0.45211664,0.4089743,move
1.9366978,-1.1571827,-1.9182925,0.20425807,-0.051236324,0.3051272,move
1.9366978,-1.1571827,-1.9182925,0.20425807,-0.051236324,0.3051272,move
1.7619017,-1.3231611,-1.6180458,0.21036673,-0.23693936,0.10476339,move
1.7619017,-1.3231611,-1.6180458,0.21036673,-0.23693936,0.10476339,move
0.9375428,-1.7000365,-1.2752781,0.13584116,-0.14347698,-0.10415252,move
0.9375428,-1.7000365,-1.2752781,0.13584116,-0.14347698,-0.10415252,move
0.48841816,-1.6340456,-1.1748328,0.13584116,-0.09827295,-0.13836098,move
0.48841816,-1.6340456,-1.1748328,0.13584116,-0.09827295,-0.13836098,move
0.34755278,-1.2948136,-1.3066821,0.16394097,-0.11537717,-0.15424347,move
0.34755278,-1.2948136,-1.3066821,0.16394097,-0.11537717,-0.15424347,move
0.15952101,-0.7996602,-1.6045136,0.099189244,-0.14103352,-0.21288654,move
0.15952101,-0.7996602,-1.6045136,0.099189244,-0.14103352,-0.21288654,move
-0.090534866,-0.5989022,-1.3967571,-0.06085745,-0.08116872,-0.2855795,move
-0.090534866,-0.5989022,-1.3967571,-0.06085745,-0.08116872,-0.2855795,move
-0.29178953,-0.42635965,-0.6527834,-0.1689806,0.033673946,-0.30757064,move
