accX,accY,accZ,angleX,angleY,angleZ,label
-0.5476233,2.539782,0.7321148,0.32032245,0.09231701,0.18967366,move
-0.5476233,2.539782,0.7321148,0.32032245,0.09231701,0.18967366,move
-0.9679364,2.209126,-0.852756,0.40156755,-0.012751812,0.20799962,move
-0.9679364,2.209126,-0.852756,0.40156755,-0.012751812,0.20799962,move
-0.9679364,2.209126,-0.852756,0.40156755,-0.012751812,0.20799962,move
-0.5970529,2.1942782,-0.6097617,0.07841983,-0.17402023,0.23548855,move
-0.5828228,1.2245388,0.7824116,-0.30764702,-0.34811684,0.07360926,move
-0.5828228,1.2245388,0.7824116,-0.30764702,-0.34811684,0.07360926,move
-0.66227883,0.28575373,2.6272554,-0.7548004,-0.14408784,-0.027794369,move
-0.66227883,0.28575373,2.6272554,-0.7548004,-0.14408784,-0.027794369,move
-1.4678667,-0.83351946,4.6192513,-0.6576728,-0.11049025,0.13469578,move
-1.4678667,-0.83351946,4.6192513,-0.6576728,-0.11049025,0.13469578,move
-0.7064081,-1.0974679,5.820562,-0.037644573,0.22120957,0.49021935,move
-0.7064081,-1.0974679,5.820562,-0.037644573,0.22120957,0.49021935,move
-0.09628302,-0.8081155,0.9186816,0.6697374,0.48510337,0.7254025,move
-0.09628302,-0.8081155,0.9186816,0.6697374,0.48510337,0.7254025,move
0.31349078,-0.47565985,-3.4522624,0.6697374,0.48510337,0.7254025,move
0.31349078,-0.47565985,-3.4522624,0.6495788,0.11614075,0.659429,move
1.1157923,-0.2194848,-2.9508514,0.08269588,-0.07383834,0.50854534,move
1.1157923,-0.2194848,-2.9508514,0.08269588,-0.07383834,0.50854534,move
0.50081706,-0.52002287,-1.9162655,-0.26855165,-0.018860465,0.17501289,move
0.50081706,-0.52002287,-1.9162655,-0.26855165,-0.018860465,0.17501289,move
-0.50834274,-1.2000804,-1.3908739,-0.40172026,-0.13003793,0.005192355,move
-0.50834274,-1.2000804,-1.3908739,-0.40172026,-0.13003793,0.005192355,move
-0.801077,-1.5584445,0.7077899,-0.4463134,-0.11720977,0.015577064,move
-0.801077,-1.5584445,0.7077899,-0.4463134,-0.11720977,0.015577064,move
-0.66883373,-1.3622484,1.8164692,-0.037033707,0.07887798,0.10842858,move
-0.66883373,-1.3622484,1.8164692,-0.037033707,0.07887798,0.10842858,move
-0.36196053,-0.9817376,-0.89783335,0.44249552,0.20654881,0.14874569,move
-0.36196053,-0.9817376,-0.89783335,0.44249552,0.20654881,0.14874569,move
0.023358107,-0.72585917,-2.9468608,0.37957639,0.083764896,0.029626964,move
0.023358107,-0.72585917,-2.9468608,0.37957639,0.083764896,0.029626964,move
-0.9143547,-1.128789,-1.6147017,-0.0071013086,-0.037797287,-0.102319926,move
-0.9143547,-1.128789,-1.6147017,-0.0071013086,-0.037797287,-0.102319926,move
-0.9049804,-1.1186438,-1.6227593,-0.10972667,-0.011530082,-0.015577064,move
-0.9049804,-1.1186438,-1.6227593,-0.10972667,-0.011530082,-0.015577064,move
-0.9049804,-1.1186438,-1.6227593,0.006948592,0.00496328,0.17562376,move
-0.7336222,-0.8501811,0.47796202,0.006948592,0.00496328,0.17562376,move
-0.019679964,-0.28995848,-0.36568022,0.30627257,0.10392345,0.22449298,move
-0.019679964,-0.28995848,-0.36568022,0.30627257,0.10392345,0.22449298,move
-0.12680179,-0.20577717,-2.8568816,0.47548223,0.036728274,0.15302174,move
-0.12680179,-0.20577717,-2.8568816,0.47548223,0.036728274,0.15302174,move
-0.45500875,-0.18875551,-2.9709811,0.18654297,-0.156916,0.1133155,move
-0.45500875,-0.18875551,-2.9709811,0.18654297,-0.156916,0.1133155,move
-0.43543172,-0.18935108,-1.0737691,-0.15187638,-0.24121541,0.16707164,move
-0.43543172,-0.18935108,-1.0737691,-0.15187638,-0.24121541,0.16707164,move
0.13339141,0.6023555,1.0921612,-0.10606148,-0.12148582,0.24037547,move
0.13339141,0.6023555,1.0921612,-0.10606148,-0.12148582,0.24037547,move
1.1052678,1.301477,1.683773,0.16943875,0.26946792,0.15424347,move
1.1052678,1.301477,1.683773,0.16943875,0.26946792,0.15424347,move
0.27731705,1.164794,-0.8184662,0.65874183,-0.101938136,-0.006414085,move
0.27731705,1.164794,-0.8184662,0.65874183,-0.101938136,-0.006414085,move
0.10493016,1.0020585,-1.7642641,0.44371724,-0.533209,-0.079107046,move
0.10493016,1.0020585,-1.7642641,0.44371724,-0.533209,-0.079107046,move
-0.20408377,0.5625186,0.3731184,0.064369924,-0.74456835,-0.14080444,move
-0.20408377,0.5625186,0.3731184,0.064369924,-0.74456835,-0.14080444,move
-0.26786083,0.122198105,2.6480618,0.011224649,-0.71891207,-0.086437434,move
-0.26786083,0.122198105,2.6480618,0.011224649,-0.71891207,-0.086437434,move
-0.21801966,0.6829543,3.1497664,0.21891883,-0.35850155,0.02107485,move
-0.21801966,0.6829543,3.1497664,0.21891883,-0.35850155,0.02107485,move
0.33167922,1.2888694,0.8889499,0.44188464,-0.14042264,0.07238753,move
0.33167922,1.2888694,0.8889499,0.44188464,-0.14042264,0.07238753,move
1.2890478,1.2553267,-0.14096308,0.32520938,-0.48311806,-0.03023783,move
1.2890478,1.2553267,-0.14096308,0.32520938,-0.48311806,-0.03023783,move
1.7931468,1.1126561,0.48168182,-0.18180877,-0.66271245,-0.3295618,move
1.7931468,1.1126561,0.48168182,-0.18180877,-0.66271245,-0.3295618,move
0.7403493,0.24669456,2.8306422,-0.60574925,-0.45501825,-0.573297,move
0.7403493,0.24669456,2.8306422,-0.60574925,-0.45501825,-0.573297,move
0.20289367,-0.37055683,3.4014683,-0.5623778,0.014737124,-0.537256,move
0.20289367,-0.37055683,3.4014683,-0.5623778,0.014737124,-0.537256,move
-0.008450866,-0.41018152,1.8925295,-0.2587778,0.20471622,-0.4089743,move
-0.008450866,-0.41018152,1.8925295,-0.2587778,0.20471622,-0.4089743,move
0.16456966,-0.74468136,0.35640144,-0.13110696,0.13019066,-0.31612277,move
0.16456966,-0.74468136,0.35640144,-0.13110696,0.13019066,-0.31612277,move
0.05883856,-1.1708446,-0.1881733,-0.23251058,0.0800997,-0.27397305,move
0.05883856,-1.1708446,-0.1881733,-0.23251058,0.0800997,-0.27397305,move
0.2658692,-1.6350927,-0.15917492,-0.35101843,-0.0066431593,-0.21594086,move
0.2658692,-1.6350927,-0.15917492,-0.35101843,-0.0066431593,-0.21594086,move
0.10478388,-1.9110017,0.6548352,-0.40172026,-0.05062546,-0.16279559,move
0.10478388,-1.9110017,0.6548352,-0.40172026,-0.05062546,-0.16279559,move
0.124895945,-2.0999784,0.2641797,-0.092622444,0.062384613,-0.04428773,move
0.124895945,-2.0999784,0.2641797,-0.092622444,0.062384613,-0.04428773,move
0.4794662,-1.8388476,-1.4318004,0.07658723,0.1924989,0.0729984,move
0.4794662,-1.8388476,-1.4318004,0.07658723,0.1924989,0.0729984,move
0.9653945,-1.3998656,-2.8243203,0.06620252,0.14485142,0.056505036,move
0.9653945,-1.3998656,-2.8243203,0.06620252,0.14485142,0.056505036,move
0.6373112,-1.0995107,-3.2656894,-0.124387436,0.07948884,-0.05589417,move
0.6373112,-1.0995107,-3.2656894,-0.124387436,0.07948884,-0.05589417,move
0.33348054,-0.7474146,-2.5169382,-0.28993192,-0.010308351,-0.14263703,move
0.33348054,-0.7474146,-2.5169382,-0.28993192,-0.010308351,-0.14263703,move
0.15881124,-0.6383629,-1.7187667,-0.2654973,-0.1184315,-0.21899518,move
0.15881124,-0.6383629,-1.7187667,-0.2654973,-0.1184315,-0.21899518,move
-0.0406487,-0.5397935,-0.8033514,-0.17386752,-0.20517437,-0.26236662,move
-0.0406487,-0.5397935,-0.8033514,-0.17386752,-0.20517437,-0.26236662,move
-0.108778775,-0.34959793,-0.53088856,0.058872137,-0.2693152,-0.2855795,move
-0.108778775,-0.34959793,-0.53088856,0.058872137,-0.2693152,-0.2855795,move
-0.4584316,-0.49812603,-1.4015913,0.1175152,-0.09582949,-0.28496864,move
-0.4584316,-0.49812603,-1.4015913,0.1175152,-0.09582949,-0.28496864,move
-0.55385244,-0.036307335,-1.3894415,-0.06452264,-0.006032294,-0.16707164,move
-0.55385244,-0.036307335,-1.3894415,-0.06452264,-0.006032294,-0.16707164,move
0.0839667,0.39177322,-0.50216675,-0.20379992,-0.035353824,-0.087659165,move
0.0839667,0.39177322,-0.50216675,-0.20379992,-0.035353824,-0.087659165,move
0.17388257,0.8320446,0.7750764,-0.25328,0.05138904,-0.089491755,move
0.17388257,0.8320446,0.7750764,-0.25328,0.05138904,-0.089491755,move
0.043658108,1.0761857,0.8705931,-0.09445504,0.14424056,-0.07544186,move
0.043658108,1.0761857,0.8705931,-0.09445504,0.14424056,-0.07544186,move
-0.2144348,0.99462223,1.3068776,0.10224357,-0.053679783,-0.035124753,move
-0.2144348,0.99462223,1.3068776,0.10224357,-0.053679783,-0.035124753,move
-0.11163741,1.0105762,1.7551517,0.35025486,-0.26565003,0.049785517,move
-0.11163741,1.0105762,1.7551517,0.35025486,-0.26565003,0.049785517,move
0.18871495,0.7986846,1.5090508,0.51396674,-0.25404358,0.122478485,move
0.18871495,0.7986846,1.5090508,0.51396674,-0.25404358,0.122478485,move
0.3564695,0.92139435,1.8062949,0.42111522,-0.11110111,0.22510384,move
0.3564695,0.92139435,1.8062949,0.42111522,-0.11110111,0.22510384,move
0.22074631,1.4922361,2.810906,0.42111522,-0.11110111,0.22510384,move
0.22074631,1.4922361,2.810906,0.34903312,0.03306308,0.28069258,move
-0.42381695,2.483798,1.3693495,0.5280166,0.49182287,0.2452624,move
-0.42381695,2.483798,1.3693495,0.5280166,0.49182287,0.2452624,move
-0.7143939,2.225637,-0.619174,0.5280166,0.20166188,0.16584991,move
-0.7143939,2.225637,-0.619174,0.5280166,0.20166188,0.16584991,move
-1.0326017,1.9029646,-0.5487566,0.24457517,-0.34078646,0.086437434,move
-1.0326017,1.9029646,-0.5487566,0.24457517,-0.34078646,0.086437434,move
-0.5316602,0.42245865,1.1979718,-0.20807597,-0.59246296,0.027794369,move
-0.5316602,0.42245865,1.1979718,-0.20807597,-0.59246296,0.027794369,move
-0.44788,-0.8902879,3.6526208,-0.4805219,-0.47945285,0.0027488936,move
-0.44788,-0.8902879,3.6526208,-0.4805219,-0.47945285,0.0027488936,move
-1.020889,-1.63553,4.0908537,-0.36690095,0.10881037,0.086437434,move
-1.020889,-1.63553,4.0908537,-0.36690095,0.10881037,0.086437434,move
-0.861568,-1.1024952,1.7258754,-0.049861874,0.58833957,0.29046643,move
-0.861568,-1.1024952,1.7258754,-0.049861874,0.58833957,0.29046643,move
-0.5901773,-0.83682966,-0.79656315,0.12912165,0.4881577,0.33933565,move
-0.5901773,-0.83682966,-0.79656315,0.12912165,0.4881577,0.33933565,move
-0.4587674,-0.7213659,-1.4566522,0.003894266,0.09720393,0.34238997,move
-0.4587674,-0.7213659,-1.4566522,0.003894266,0.09720393,0.34238997,move
-0.35997856,-1.1884885,-0.3436308,-0.18730655,-0.22533292,0.29779682,move
-0.35997856,-1.1884885,-0.3436308,-0.18730655,-0.22533292,0.29779682,move
-0.48085374,-1.6844254,0.8073087,-0.2599995,-0.20639609,0.25809056,move
-0.48085374,-1.6844254,0.8073087,-0.2599995,-0.20639609,0.25809056,move
-0.37139615,-1.9761925,1.1912279,-0.20807597,0.03611741,0.2666427,move
-0.37139615,-1.9761925,1.1912279,-0.20807597,0.03611741,0.2666427,move
-0.21802534,-1.8687963,0.19641066,-0.115835324,0.32750013,0.27885997,move
-0.21802534,-1.8687963,0.19641066,-0.115835324,0.32750013,0.27885997,move
-0.21802534,-1.8687963,0.19641066,-0.115835324,0.32750013,0.27885997,move
-0.0632346,-1.6530347,-0.94845676,-0.054748796,0.48876855,0.2855795,move
-0.027031943,-1.6462498,-0.95399714,-0.054748796,0.48876855,0.2855795,move
-0.027031943,-1.6462498,-0.95399714,-0.0016035213,0.4160756,0.24587326,move
-0.46333826,-1.1996565,-1.6727667,-0.0016035213,0.4160756,0.24587326,move
-0.46333826,-1.1996565,-1.6727667,-0.009544769,0.2138792,0.25625798,move
-0.4457906,-1.0327587,-0.9612174,0.069867715,0.05749769,0.28191432,move
-0.4457906,-1.0327587,-0.9612174,0.069867715,0.05749769,0.28191432,move
-0.35863763,-0.8424635,-0.9814706,0.19387336,0.04222606,0.27763826,move
-0.35863763,-0.8424635,-0.9814706,0.19387336,0.04222606,0.27763826,move
-0.196792,-0.51820946,-1.1922278,0.21158844,0.13568844,0.24587326,move
-0.196792,-0.51820946,-1.1922278,0.21158844,0.13568844,0.24587326,move
-0.16395795,-0.2947302,-1.3425083,0.1737148,0.19555324,0.102319926,move
-0.16395795,-0.2947302,-1.3425083,0.1737148,0.19555324,0.102319926,move
-0.14524493,-0.31899786,-1.3206306,0.16210836,0.16562083,-0.023518313,move
-0.14524493,-0.31899786,-1.3206306,0.16210836,0.16562083,-0.023518313,move
-0.659194,-0.5075879,-0.5213232,0.23052527,0.13263412,-0.079107046,move
-0.659194,-0.5075879,-0.5213232,0.23052527,0.13263412,-0.079107046,move
-0.7892149,-0.27917814,-0.17567682,0.35025486,0.11797335,-0.00580322,move
-0.7892149,-0.27917814,-0.17567682,0.35025486,0.11797335,-0.00580322,move
-0.702542,0.03475094,-0.4362049,0.4180609,0.10514518,0.049785517,move
-0.702542,0.03475094,-0.4362049,0.4180609,0.10514518,0.049785517,move
0.15033115,0.4194913,-0.25913286,0.16882788,0.28779387,0.083383106,move
0.15033115,0.4194913,-0.25913286,0.16882788,0.28779387,0.083383106,move
1.0398824,0.88938856,-0.24278927,0.16882788,0.28779387,0.083383106,move
1.0398824,0.88938856,-0.24278927,-0.07490735,0.3195589,-0.079107046,move
1.0398824,0.88938856,-0.24278927,-0.12805262,-0.18562667,-0.25503623,move
0.36429888,0.24269247,0.30808353,-0.12805262,-0.18562667,-0.25503623,move
-0.6487215,0.2569909,2.6717434,-0.12805262,-0.18562667,-0.25503623,move
-0.6487215,0.2569909,2.6717434,-0.012599096,-0.64316475,-0.22388211,move
-1.1365703,0.3233347,1.7151299,0.13156511,-0.40798163,0.28069258,move
-1.1365703,0.3233347,1.7151299,0.13156511,-0.40798163,0.28069258,move
0.53743255,2.055531,0.29291582,-0.22273675,0.5846744,0.31856623,move
0.53743255,2.055531,0.29291582,-0.22273675,0.5846744,0.31856623,move
1.0236843,2.553564,0.18083143,-0.51961726,-0.032910366,0.0021380284,move
1.0236843,2.553564,0.18083143,-0.51961726,-0.032910366,0.0021380284,move
1.0760679,0.95462847,3.303156,-1.0700068,-0.29008463,-0.31429017,move
1.0760679,0.95462847,3.303156,-1.0700068,-0.29008463,-0.31429017,move
0.93963283,-0.15971327,6.9911833,-1.1109349,-0.5038875,-0.4156938,move
0.93963283,-0.15971327,6.9911833,-1.1109349,-0.5038875,-0.4156938,move
0.47465664,-0.6844983,7.1869373,-0.55138224,-0.35850155,-0.34422258,move
0.47465664,-0.6844983,7.1869373,-0.55138224,-0.35850155,-0.34422258,move
0.6071043,-1.0505381,3.4711437,-0.55138224,-0.35850155,-0.34422258,move
0.6071043,-1.0505381,3.4711437,0.068645984,0.11064297,-0.16768251,move
0.9413166,-0.75911045,-0.030177116,-0.019929478,0.7917577,-0.036957346,move
0.9413166,-0.75911045,-0.030177116,-0.019929478,0.7917577,-0.036957346,move
0.9104183,-1.0351596,-1.1938,-0.07612908,0.39713877,-0.033292156,move
0.9104183,-1.0351596,-1.1938,-0.07612908,0.39713877,-0.033292156,move
1.1150117,-1.4335017,-0.24803448,-0.13843733,-0.36949712,9.162979E-4,move
1.1150117,-1.4335017,-0.24803448,-0.13843733,-0.36949712,9.162979E-4,move
1.3415042,-1.4588885,0.7838931,0.05337435,-0.4452444,-0.003970624,move
1.3415042,-1.4588885,0.7838931,0.05337435,-0.4452444,-0.003970624,move
1.5528028,-1.2512994,-0.0033569336,0.4553237,-0.20517437,-0.024740042,move
1.5528028,-1.2512994,-0.0033569336,0.4553237,-0.20517437,-0.024740042,move
1.0360911,-1.2962894,-2.5176082,0.562836,-0.156916,-0.24037547,move
1.0360911,-1.2962894,-2.5176082,0.562836,-0.156916,-0.24037547,move
1.0360911,-1.2962894,-2.5176082,0.2476295,-0.024969118,-0.23732115,move
0.48988008,-1.6174259,-2.940804,0.2476295,-0.024969118,-0.23732115,move
0.20665187,-1.3563766,-1.6192265,0.02649628,-0.008475755,-0.20799962,move
0.20665187,-1.3563766,-1.6192265,0.02649628,-0.008475755,-0.20799962,move
0.084337294,-1.2095928,-1.3229437,0.077198096,0.04100433,-0.21471913,move
0.084337294,-1.2095928,-1.3229437,0.077198096,0.04100433,-0.21471913,move
0.35588133,-0.7640877,-1.577415,0.07841983,0.12530373,-0.1908954,move
0.35588133,-0.7640877,-1.577415,0.07841983,0.12530373,-0.1908954,move
0.62657726,-0.38488007,-0.99843454,0.07841983,0.12530373,-0.1908954,move
0.62657726,-0.38488007,-0.99843454,0.05642868,0.19372064,-0.28130344,move
0.5443461,-0.3152418,-1.3223143,0.145615,0.24075727,-0.37415496,move
0.5443461,-0.3152418,-1.3223143,0.145615,0.24075727,-0.37415496,move
0.08394101,-0.47021055,-1.982048,0.14317155,0.07460192,-0.4352415,move
0.08394101,-0.47021055,-1.982048,0.14317155,0.07460192,-0.4352415,move
-0.4475525,-0.7995739,-1.3987846,-0.04314236,-0.08666651,-0.3735441,move
-0.4475525,-0.7995739,-1.3987846,-0.04314236,-0.08666651,-0.3735441,move
-0.8635102,-0.6046357,-0.17741823,-0.18730655,-0.16241379,-0.1731803,move
-0.8635102,-0.6046357,-0.17741823,-0.18730655,-0.16241379,-0.1731803,move
-0.17081642,-0.015509605,0.9348483,-0.19830213,0.02939789,0.06505715,move
-0.17081642,-0.015509605,0.9348483,-0.19830213,0.02939789,0.06505715,move
0.4294326,0.4896245,0.40874243,-0.19830213,0.02939789,0.06505715,move
0.4294326,0.4896245,0.40874243,0.0081703225,0.14546229,0.14996742,move
0.70370346,0.6352048,-0.33928013,0.14500414,0.015347989,0.16035213,move
0.70370346,0.6352048,-0.33928013,0.14500414,0.015347989,0.16035213,move
0.59017026,0.4804864,0.34681225,0.104687035,-0.10682506,0.19456059,move
0.59017026,0.4804864,0.34681225,0.104687035,-0.10682506,0.19456059,move
0.44754255,0.5917249,1.3176932,0.06803512,0.0067958757,0.3032946,move
0.44754255,0.5917249,1.3176932,0.06803512,0.0067958757,0.3032946,move
0.5536581,0.81041384,1.4416537,0.20975585,0.19494237,0.40591997,move
0.5536581,0.81041384,1.4416537,0.20975585,0.19494237,0.40591997,move
0.5833014,1.153647,1.1692414,0.20975585,0.19494237,0.40591997,move
0.5833014,1.153647,1.1692414,0.28183794,0.30062205,0.39920044,move
-0.22389787,1.8709445,0.97789955,0.33987015,0.35682166,0.34238997,move
-0.22389787,1.8709445,0.97789955,0.33987015,0.35682166,0.34238997,move
-0.9675871,2.2330794,-0.8111596,0.35575265,0.40324742,0.27152961,move
-0.9675871,2.2330794,-0.8111596,0.35575265,0.40324742,0.27152961,move
-1.3332818,2.297124,-1.4553967,0.047876563,0.072158456,0.2049453,move
-1.3332818,2.297124,-1.4553967,0.047876563,0.072158456,0.2049453,move
-1.5496627,1.4277797,0.07149124,-0.42248967,-0.1868484,0.14446963,move
-1.5496627,1.4277797,0.07149124,-0.42248967,-0.1868484,0.14446963,move
-1.1647532,-0.012122154,3.0382943,-0.74441564,-0.36216673,0.20372356,move
-1.1647532,-0.012122154,3.0382943,-0.74441564,-0.36216673,0.20372356,move
0.041479275,-0.73228407,6.329004,-0.6100253,-0.4574617,0.3484986,move
0.041479275,-0.73228407,6.329004,-0.6100253,-0.4574617,0.3484986,move
0.21216041,-0.77845,5.543754,-0.010155635,-0.0011453723,0.40530908,move
0.21216041,-0.77845,5.543754,-0.010155635,-0.0011453723,0.40530908,move
-0.14357553,-0.6384115,0.62854147,0.39973494,0.48754683,0.4034765,move
-0.14357553,-0.6384115,0.62854147,0.39973494,0.48754683,0.4034765,move
-0.30123234,-0.86643267,-2.368585,0.2506838,0.4930446,0.40653083,move
-0.30123234,-0.86643267,-2.368585,0.2506838,0.4930446,0.40653083,move
-0.42215592,-0.8002472,-2.260456,-0.085292056,0.13263412,0.38148534,move
-0.42215592,-0.8002472,-2.260456,-0.085292056,0.13263412,0.38148534,move
-0.35719913,-1.0558672,-0.089963436,-0.29054278,-0.1905136,0.36254853,move
-0.35719913,-1.0558672,-0.089963436,-0.29054278,-0.1905136,0.36254853,move
-0.1173267,-1.2698984,1.2899456,-0.18547396,-0.16363552,0.33933565,move
-0.1173267,-1.2698984,1.2899456,-0.18547396,-0.16363552,0.33933565,move
-0.08431758,-1.5899415,0.52780056,0.016111571,0.04466952,0.30695978,move
-0.08431758,-1.5899415,0.52780056,0.016111571,0.04466952,0.30695978,move
-0.011840368,-1.4920416,-0.3578472,0.016111571,0.04466952,0.30695978,move
-0.011840368,-1.4920416,-0.3578472,0.043600507,0.24686591,0.2947425,move
0.022219725,-1.5113459,-0.7082114,0.055206947,0.27740917,0.24953845,move
0.022219725,-1.5113459,-0.7082114,0.055206947,0.27740917,0.24953845,move
0.013192661,-1.3540711,-1.1871891,0.08513934,0.24686591,0.21899518,move
0.013192661,-1.3540711,-1.1871891,0.08513934,0.24686591,0.21899518,move
0.1586939,-1.1348066,-1.3049779,0.072922036,0.20593795,0.1731803,move
0.1586939,-1.1348066,-1.3049779,0.072922036,0.20593795,0.1731803,move
0.16587314,-1.1459541,-1.2953353,0.10163271,0.13141239,0.10354166,move
0.16587314,-1.1459541,-1.2953353,0.10163271,0.13141239,0.10354166,move
-0.18525252,-0.9794202,-1.3370032,0.110795684,0.1417971,0.05222898,move
-0.18525252,-0.9794202,-1.3370032,0.110795684,0.1417971,0.05222898,move
-0.54697996,-0.8561053,-1.3880606,0.083306745,0.20288362,0.06811147,move
-0.54697996,-0.8561053,-1.3880606,0.083306745,0.20288362,0.06811147,move
0.005558219,-0.5515914,-1.2725406,0.07903069,0.19433151,0.067500606,move
0.005558219,-0.5515914,-1.2725406,0.07903069,0.19433151,0.067500606,move
0.14307036,-0.20662737,-0.97954226,0.08208502,0.10392345,-0.015577064,move
0.14307036,-0.20662737,-0.97954226,0.08208502,0.10392345,-0.015577064,move
0.05751374,-0.3362193,-0.6312814,0.15783231,-0.051236324,-0.11209377,move
0.05751374,-0.3362193,-0.6312814,0.15783231,-0.051236324,-0.11209377,move
0.063880205,-0.36054087,-0.60965395,0.15844317,-0.06772968,-0.1432479,move
0.063880205,-0.36054087,-0.60965395,0.15844317,-0.06772968,-0.1432479,move
-0.038820736,-0.031593323,0.031079292,0.15844317,-0.06772968,-0.1432479,move
-0.038820736,-0.031593323,0.031079292,0.18043432,-0.045738537,-0.14874569,move
0.03970453,0.33136463,0.24010706,0.19265163,-0.101938136,-0.1518,move
0.03970453,0.33136463,0.24010706,0.19265163,-0.101938136,-0.1518,move
0.042007253,0.30448008,0.2644701,0.17982346,-0.21372648,-0.20066923,move
0.042007253,0.30448008,0.2644701,0.17982346,-0.21372648,-0.20066923,move
0.660817,0.80690575,2.484239,0.21097758,-0.2888629,-0.34605515,move
0.660817,0.80690575,2.484239,0.21097758,-0.2888629,-0.34605515,move
0.660817,0.80690575,2.484239,0.25557074,-0.10743593,-0.43585235,move
-0.42235595,1.1380177,2.373495,0.25557074,-0.10743593,-0.43585235,move
-0.42235595,1.1380177,2.373495,0.18715385,0.08132143,-0.37232238,move
-0.24013036,1.1605492,0.536993,0.18715385,0.08132143,-0.37232238,move
0.108808465,1.439971,0.04510212,-0.14332426,-0.00908662,-0.39614612,move
0.108808465,1.439971,0.04510212,-0.14332426,-0.00908662,-0.39614612,move
0.060461342,0.91146994,1.3103619,-0.49396092,-0.20212004,-0.47067168,move
0.060461342,0.91146994,1.3103619,-0.49396092,-0.20212004,-0.47067168,move
0.30924758,0.27925396,2.350315,-0.64484465,-0.28580856,-0.4352415,move
0.30924758,0.27925396,2.350315,-0.64484465,-0.28580856,-0.4352415,move
0.6123766,-0.29179764,3.255176,-0.64484465,-0.28580856,-0.4352415,move
0.6123766,-0.29179764,3.255176,-0.5965863,-0.38965568,-0.34300083,move
0.8660661,-0.50589705,3.428771,-0.5965863,-0.38965568,-0.34300083,move
0.8660661,-0.50589705,3.428771,-0.27282768,-0.3749949,-0.18478674,move
0.99588853,-0.71277094,1.9198079,-0.0022143866,-0.156916,-0.086437434,move
0.99588853,-0.71277094,1.9198079,-0.0022143866,-0.156916,-0.086437434,move
1.0314884,-0.77365685,0.46193838,0.09063713,-0.065897085,-0.024740042,move
1.0314884,-0.77365685,0.46193838,0.09063713,-0.065897085,-0.024740042,move
1.1198257,-0.80830574,-0.43933773,0.091858864,-0.13553573,-0.024129177,move
1.1198257,-0.80830574,-0.43933773,0.091858864,-0.13553573,-0.024129177,move
1.1198257,-0.80830574,-0.43933773,0.016111571,-0.2693152,-0.0693332,move
1.2626028,-0.8013902,-0.53211784,0.016111571,-0.2693152,-0.0693332,move
1.4122423,-0.8879442,-0.13970566,0.016111571,-0.2693152,-0.0693332,move
1.4122423,-0.8879442,-0.13970566,-0.044974953,-0.2955824,-0.18600847,move
0.7612093,-1.4275198,-0.2121687,-0.040698897,-0.17340937,-0.3136793,move
0.7612093,-1.4275198,-0.2121687,-0.040698897,-0.17340937,-0.3136793,move
0.16740006,-1.7702866,-0.9264693,-0.0071013086,-0.037797287,-0.32589662,move
0.16740006,-1.7702866,-0.9264693,-0.0071013086,-0.037797287,-0.32589662,move
0.2025136,-1.7666044,-0.9286351,-0.01198823,0.019624045,-0.25870144,move
0.2025136,-1.7666044,-0.9286351,-0.01198823,0.019624045,-0.25870144,move
-0.033964097,-1.4670091,-1.4704208,-0.01198823,0.019624045,-0.25870144,move
-0.033964097,-1.4670091,-1.4704208,-0.037033707,-0.024969118,-0.1994475,move
-0.033964097,-1.4670091,-1.4704208,-0.024205536,-0.018860465,-0.15668693,move
-0.095528394,-1.2806425,-1.4515796,-0.024205536,-0.018860465,-0.15668693,move
0.25785878,-0.70660925,-1.7538457,-0.022983804,-0.018860465,-0.13347405,move
0.25785878,-0.70660925,-1.7538457,-0.022983804,-0.018860465,-0.13347405,move
0.36758244,-0.3822193,-1.6314669,-0.06391177,-0.04085161,-0.17867808,move
0.36758244,-0.3822193,-1.6314669,-0.06391177,-0.04085161,-0.17867808,move
0.3849432,-0.37090778,-1.6403527,-0.09078985,-0.07994699,-0.2501493,move
0.3849432,-0.37090778,-1.6403527,-0.09078985,-0.07994699,-0.2501493,move
-0.32476696,-0.28545237,-1.4899487,-0.20563251,-0.13736832,-0.26175576,move
-0.32476696,-0.28545237,-1.4899487,-0.20563251,-0.13736832,-0.26175576,move
-0.4191056,-0.24056005,-0.5562811,-0.34368807,-0.090331696,-0.1994475,move
-0.4191056,-0.24056005,-0.5562811,-0.34368807,-0.090331696,-0.1994475,move
-0.09971839,0.030571938,0.21214628,-0.4011094,0.028176159,-0.110872045,move
-0.09971839,0.030571938,0.21214628,-0.4011094,0.028176159,-0.110872045,move
0.24386825,0.4056673,0.61736536,-0.3131448,0.11369729,-0.063224554,move
0.24386825,0.4056673,0.61736536,-0.3131448,0.11369729,-0.063224554,move
0.2192242,0.63115263,0.49454117,-0.10056369,0.08620836,-0.063224554,move
0.2192242,0.63115263,0.49454117,-0.10056369,0.08620836,-0.063224554,move
0.2192242,0.63115263,0.49454117,0.011224649,0.06910413,-0.005192355,move
0.23772065,0.6411233,0.48756886,0.011224649,0.06910413,-0.005192355,move
-0.06310043,0.49243546,0.58351564,0.011224649,0.06910413,-0.005192355,move
-0.06310043,0.49243546,0.58351564,0.0045051314,0.1277472,0.13836098,move
0.2918398,0.66951895,1.0884581,0.038713586,0.20899227,0.23243423,move
0.2918398,0.66951895,1.0884581,0.038713586,0.20899227,0.23243423,move
0.54558337,0.7197757,1.349154,0.24152085,0.2260965,0.27947086,move
0.54558337,0.7197757,1.349154,0.24152085,0.2260965,0.27947086,move
0.32764906,0.8096819,0.72308207,0.46876273,0.19555324,0.30085114,move
0.32764906,0.8096819,0.72308207,0.46876273,0.19555324,0.30085114,move
-0.889983,1.3800311,0.10252333,0.56466854,0.27618745,0.32711834,move
-0.889983,1.3800311,0.10252333,0.56466854,0.27618745,0.32711834,move
-2.2700524,0.46184444,-1.3868728,0.48220176,0.5125923,0.43096542,move
-2.2700524,0.46184444,-1.3868728,0.48220176,0.5125923,0.43096542,move
-1.2135099,2.2966242,-2.6209164,0.104687035,0.69768447,0.64843345,move
-1.2135099,2.2966242,-2.6209164,0.104687035,0.69768447,0.64843345,move
-1.4161832,1.9587984,-2.0157175,-0.47013718,-0.32918,0.4792238,move
-1.4161832,1.9587984,-2.0157175,-0.47013718,-0.32918,0.4792238,move
-0.25747368,0.7159481,3.2973313,-0.9869292,-1.0609965,0.5299256,move
-0.25747368,0.7159481,3.2973313,-0.9869292,-1.0609965,0.5299256,move
0.6683121,-0.0024342537,5.944834,-0.8647561,-0.97975147,0.5177083,move
0.6683121,-0.0024342537,5.944834,-0.8647561,-0.97975147,0.5177083,move
0.66344196,-0.58386326,5.798005,-0.46647197,-0.383547,0.441961,move
0.66344196,-0.58386326,5.798005,-0.46647197,-0.383547,0.441961,move
0.66344196,-0.58386326,5.798005,-0.14821118,0.40324742,0.38148534,move
0.19406068,-0.8796172,3.1247568,-0.14821118,0.40324742,0.38148534,move
-0.3462265,-0.9791231,0.87932825,-0.06452264,0.7599927,0.35705075,move
-0.3462265,-0.9791231,0.87932825,-0.06452264,0.7599927,0.35705075,move
-0.8864144,-0.7681017,-0.51083183,-0.065133505,0.81374884,0.38515055,move
-0.8864144,-0.7681017,-0.51083183,-0.065133505,0.81374884,0.38515055,move
-0.8174718,-0.75696135,-0.5196986,-0.048640147,0.4930446,0.42180246,move
-0.8174718,-0.75696135,-0.5196986,-0.048640147,0.4930446,0.42180246,move
-0.07407412,-1.0143209,0.15621805,-0.029703323,0.0978148,0.4083634,move
-0.07407412,-1.0143209,0.15621805,-0.029703323,0.0978148,0.4083634,move
0.21083647,-1.2276363,1.0354476,0.19326249,-0.081779584,0.3454443,move
0.21083647,-1.2276363,1.0354476,0.19326249,-0.081779584,0.3454443,move
0.3493984,-1.3106117,-0.09416962,0.39484802,0.12530373,0.29657507,move
0.3493984,-1.3106117,-0.09416962,0.39484802,0.12530373,0.29657507,move
0.49126843,-1.1000867,-1.9911709,0.36980253,0.33421963,0.20922135,move
0.49126843,-1.1000867,-1.9911709,0.36980253,0.33421963,0.20922135,move
0.4867739,-0.9221101,-2.7107568,0.12484559,0.32933274,0.08827003,move
0.4867739,-0.9221101,-2.7107568,0.12484559,0.32933274,0.08827003,move
0.2622944,-0.89067984,-1.8296304,-0.09140071,0.14668402,-0.010079277,move
0.2622944,-0.89067984,-1.8296304,-0.09140071,0.14668402,-0.010079277,move
0.09253347,-0.8570752,-0.51427555,-0.09140071,0.14668402,-0.010079277,move
0.09253347,-0.8570752,-0.51427555,-0.10483975,0.058719423,-0.05100725,move
-0.044191755,-0.73915577,-0.5744934,-0.016264288,0.09903653,-0.07788532,move
-0.044191755,-0.73915577,-0.5744934,-0.016264288,0.09903653,-0.07788532,move
0.036425505,-0.5240836,-0.43467426,0.019165898,0.20410535,-0.08582657,move
0.036425505,-0.5240836,-0.43467426,0.019165898,0.20410535,-0.08582657,move
-0.18510318,-0.4744997,-1.1720839,0.019165898,0.20410535,-0.08582657,move
-0.18510318,-0.4744997,-1.1720839,0.07475463,0.2505311,-0.11453723,move
-0.058094904,-0.39166307,-1.0887885,0.07475463,0.2505311,-0.11453723,move
-0.058094904,-0.39166307,-1.0887885,0.051541757,0.07399105,-0.090713486,move
0.21916108,-0.2431364,-0.33104134,0.050320026,-0.026190847,-0.08827003,move
0.21916108,-0.2431364,-0.33104134,0.050320026,-0.026190847,-0.08827003,move
0.2599366,-0.039237976,0.3540001,0.10529789,-0.008475755,-0.1151481,move
0.2599366,-0.039237976,0.3540001,0.10529789,-0.008475755,-0.1151481,move
0.06078823,0.046229362,0.5330944,0.23602305,0.070936725,-0.1469131,move
0.06078823,0.046229362,0.5330944,0.23602305,0.070936725,-0.1469131,move
0.09008126,0.0048685074,0.5672431,0.38690677,0.034895677,-0.14996742,move
0.09008126,0.0048685074,0.5672431,0.38690677,0.034895677,-0.14996742,move
-0.031308025,0.48343563,0.16686106,0.39729148,-0.14164437,-0.1554652,move
-0.031308025,0.48343563,0.16686106,0.39729148,-0.14164437,-0.1554652,move
0.003834322,0.33209372,1.4052081,0.31360295,-0.21128301,-0.19211712,move
0.003834322,0.33209372,1.4052081,0.31360295,-0.21128301,-0.19211712,move
-0.009087712,0.21924353,1.8076353,0.34720054,-0.1202641,-0.21288654,move
-0.009087712,0.21924353,1.8076353,0.34720054,-0.1202641,-0.21288654,move
-0.37135524,0.7041755,1.2146573,0.4779257,-0.0603993,-0.20433442,move
-0.37135524,0.7041755,1.2146573,0.4779257,-0.0603993,-0.20433442,move
-0.37135524,0.7041755,1.2146573,0.5267949,-0.14530957,-0.14935656,move
-0.28369042,1.0232058,-0.55239916,0.5267949,-0.14530957,-0.14935656,move
0.22697438,1.4836292,-0.59702206,0.18654297,-0.57474786,-0.17867808,move
0.22697438,1.4836292,-0.59702206,0.18654297,-0.57474786,-0.17867808,move
0.5050994,1.2532349,0.6310682,0.18654297,-0.57474786,-0.17867808,move
0.5050994,1.2532349,0.6310682,-0.21418463,-0.7427358,-0.3100141,move
0.72938395,0.42885017,2.103572,-0.6185774,-0.578413,-0.43157628,move
0.72938395,0.42885017,2.103572,-0.6185774,-0.578413,-0.43157628,move
0.5687772,-0.44297743,3.7304559,-0.81955206,-0.39209914,-0.47800204,move
0.5687772,-0.44297743,3.7304559,-0.81955206,-0.39209914,-0.47800204,move
-0.05262845,-1.2562528,4.8735485,-0.62712955,-0.1923462,-0.37782016,move
-0.05262845,-1.2562528,4.8735485,-0.62712955,-0.1923462,-0.37782016,move
-0.35854033,-1.5880852,3.5359836,-0.62712955,-0.1923462,-0.37782016,move
-0.35854033,-1.5880852,3.5359836,-0.10483975,0.1540144,-0.10781772,move
-0.04473813,-1.3781805,0.14137411,-0.10483975,0.1540144,-0.10781772,move
-0.04473813,-1.3781805,0.14137411,0.36247218,0.28290698,0.15363261,move
0.742695,-1.10641,-1.6840777,0.32582024,0.14851661,0.2782491,move
0.742695,-1.10641,-1.6840777,0.32582024,0.14851661,0.2782491,move
1.0374768,-0.285542,-1.7096548,0.06803512,0.051999904,0.15668693,move
1.0374768,-0.285542,-1.7096548,0.06803512,0.051999904,0.15668693,move
1.282173,-0.49040556,-1.0930362,-0.20013472,0.008628472,0.0070249503,move
1.282173,-0.49040556,-1.0930362,-0.20013472,0.008628472,0.0070249503,move
0.9435129,-0.83273506,-0.16241169,-0.3449098,0.08132143,-0.17012598,move
0.9435129,-0.83273506,-0.16241169,-0.3449098,0.08132143,-0.17012598,move
0.66152227,-0.87378263,0.24070406,-0.3449098,0.08132143,-0.17012598,move
0.66152227,-0.87378263,0.24070406,-0.26427558,0.19066632,-0.26297748,move
0.32487977,-0.99657726,-0.34218788,0.010613783,0.16500998,-0.29229903,move
0.32487977,-0.99657726,-0.34218788,0.010613783,0.16500998,-0.29229903,move
0.19167875,-0.73251295,-1.5516567,0.20609066,0.0800997,-0.25870144,move
0.19167875,-0.73251295,-1.5516567,0.20609066,0.0800997,-0.25870144,move
0.32119128,-0.31687593,-1.8849568,0.15355626,-0.010308351,-0.25686884,move
0.32119128,-0.31687593,-1.8849568,0.15355626,-0.010308351,-0.25686884,move
0.41965634,-0.18136215,-1.4998183,-0.014431692,0.0538325,-0.3100141,move
0.41965634,-0.18136215,-1.4998183,-0.014431692,0.0538325,-0.3100141,move
0.36197087,-0.06358147,-1.1677675,-0.014431692,0.0538325,-0.3100141,move
0.36197087,-0.06358147,-1.1677675,-0.13965906,0.17111863,-0.38515055,move
0.06585619,-0.3539071,-1.1266718,-0.15859589,0.22487476,-0.42241332,move
0.06585619,-0.3539071,-1.1266718,-0.15859589,0.22487476,-0.42241332,move
-0.28526074,-0.53163385,-1.2351856,-0.11644619,0.18700112,-0.3295618,move
-0.28526074,-0.53163385,-1.2351856,-0.11644619,0.18700112,-0.3295618,move
-0.01899761,-0.42343235,-1.2939067,-0.104228884,0.16134478,-0.1853976,move
-0.01899761,-0.42343235,-1.2939067,-0.104228884,0.16134478,-0.1853976,move
0.13330096,-0.32444954,-0.73217916,-0.104228884,0.16134478,-0.1853976,move
0.13330096,-0.32444954,-0.73217916,-0.081016004,0.1277472,-0.10720685,move
0.13330096,-0.32444954,-0.73217916,0.01488984,0.0800997,-0.04917465,move
0.16305715,-0.31513643,-0.73693275,0.01488984,0.0800997,-0.04917465,move
-0.33925122,-0.16273546,-0.26175785,0.096134916,0.07765625,0.030848695,move
-0.33925122,-0.16273546,-0.26175785,0.096134916,0.07765625,0.030848695,move
-0.56588113,-0.023928642,0.17300987,0.19081903,0.02939789,0.15118915,move
-0.56588113,-0.023928642,0.17300987,0.19081903,0.02939789,0.15118915,move
-0.58560395,-0.05975914,0.20020533,0.2830597,-0.010919216,0.2941316,move
-0.58560395,-0.05975914,0.20020533,0.2830597,-0.010919216,0.2941316,move
-0.0050249696,0.12876034,0.74133873,0.28550315,0.0031306844,0.40408736,move
-0.0050249696,0.12876034,0.74133873,0.28550315,0.0031306844,0.40408736,move
0.1690608,0.2539549,1.3344011,0.28550315,0.0031306844,0.40408736,move
0.1690608,0.2539549,1.3344011,0.18165605,0.02939789,0.4859433,move
-0.0033855438,1.1258526,2.0668826,0.19814941,0.21571179,0.55863625,move
-0.0033855438,1.1258526,2.0668826,0.19814941,0.21571179,0.55863625,move
0.01525867,2.030807,0.19821548,0.19814941,0.21571179,0.55863625,move
0.01525867,2.030807,0.19821548,0.3197116,0.4209625,0.57635134,move
-0.3259896,2.743063,-1.2213073,0.1737148,0.26763535,0.48472157,move
-0.3259896,2.743063,-1.2213073,0.1737148,0.26763535,0.48472157,move
-0.3259896,2.743063,-1.2213073,-0.2129629,-0.017638734,0.36926803,move
-0.35533115,2.724876,-1.2075992,-0.2129629,-0.017638734,0.36926803,move
-0.06342411,2.0478988,0.46316528,-0.2129629,-0.017638734,0.36926803,move
-0.06342411,2.0478988,0.46316528,-0.67660964,-0.26565003,0.25625798,move
0.57658625,0.9627538,3.9083343,-1.0070877,-0.59185207,0.09865474,move
0.57658625,0.9627538,3.9083343,-1.0070877,-0.59185207,0.09865474,move
0.47842416,1.1145902,3.7809844,-0.84154326,-0.50083315,-0.06383542,move
0.47842416,1.1145902,3.7809844,-0.84154326,-0.50083315,-0.06383542,move
-1.3047549,-1.6175032,4.5808263,-0.20196733,0.1540144,0.024129177,move
-1.3047549,-1.6175032,4.5808263,-0.20196733,0.1540144,0.024129177,move
-1.3047549,-1.6175032,4.5808263,0.19387336,0.67324984,0.25809056,move
-1.3868678,-1.6794691,-0.118236065,0.19387336,0.67324984,0.25809056,move
-1.3868678,-1.6794691,-0.118236065,-0.010155635,0.5235879,0.44318274,move
-1.2326181,-0.9723816,-2.1979485,-0.010155635,0.5235879,0.44318274,move
-0.79192746,-0.71293163,-1.0281425,-0.1372156,0.122860275,0.46028697,move
-0.79192746,-0.71293163,-1.0281425,-0.1372156,0.122860275,0.46028697,move
-0.5439627,-0.9185276,0.01221323,0.033826664,-0.089109965,0.40591997,move
-0.5439627,-0.9185276,0.01221323,0.033826664,-0.089109965,0.40591997,move
-0.5440644,-1.4018173,-0.6087451,0.17982346,-0.0139735425,0.35521814,move
-0.5440644,-1.4018173,-0.6087451,0.17982346,-0.0139735425,0.35521814,move
-0.56379974,-1.7528062,-1.5170865,0.17982346,-0.0139735425,0.35521814,move
-0.56379974,-1.7528062,-1.5170865,0.13706289,0.15096007,0.36071593,move
-0.580765,-1.7695494,-1.504396,0.13706289,0.15096007,0.36071593,move
-0.580765,-1.7695494,-1.504396,-0.004046982,0.19127718,0.4297437,move
0.1766504,-1.000195,-1.9807382,-0.123165704,0.13080151,0.43768495,move
0.1766504,-1.000195,-1.9807382,-0.123165704,0.13080151,0.43768495,move
0.14231706,-0.7835932,-1.1208286,-0.14943291,0.08865182,0.3539964,move
0.14231706,-0.7835932,-1.1208286,-0.14943291,0.08865182,0.3539964,move
0.14231706,-0.7835932,-1.1208286,-0.14943291,0.08865182,0.3539964,move
-0.29985917,-0.60092354,-1.3759809,-0.082237735,0.12652546,0.2574797,move
-0.29985917,-0.60092354,-1.3759809,-0.082237735,0.12652546,0.2574797,move
-0.43430677,-0.54310083,-1.316217,-0.1249983,0.036728274,0.2434298,move
-0.2707827,-0.4311409,-0.26660395,-0.21846068,-0.010919216,0.2519819,move
-0.2707827,-0.4311409,-0.26660395,-0.21846068,-0.010919216,0.2519819,move
0.25294286,-0.1197505,0.48327303,-0.16836974,0.064828075,0.2574797,move
0.25294286,-0.1197505,0.48327303,-0.16836974,0.064828075,0.2574797,move
0.4690415,-0.040195465,-0.058416367,-0.0071013086,0.06849326,0.17684549,move
0.4690415,-0.040195465,-0.058416367,-0.0071013086,0.06849326,0.17684549,move
0.5758991,-0.08054209,-0.22687054,0.047265697,0.0092393365,0.0888809,move
0.5758991,-0.08054209,-0.22687054,0.047265697,0.0092393365,0.0888809,move
0.44931343,-0.16944027,-0.0081067085,0.045433104,0.026343564,0.019242255,move
0.44931343,-0.16944027,-0.0081067085,0.045433104,0.026343564,0.019242255,move
0.5183139,-0.024069786,0.105587006,0.07475463,0.07460192,-0.008246681,move
0.5183139,-0.024069786,0.105587006,0.07475463,0.07460192,-0.008246681,move
0.5595078,0.30641127,-0.12774563,0.1559997,0.06849326,-0.055283304,move
0.5595078,0.30641127,-0.12774563,0.1559997,0.06849326,-0.055283304,move
0.5072713,0.5871954,-0.34087133,0.22747095,-0.07811439,-0.11026118,move
0.5072713,0.5871954,-0.34087133,0.22747095,-0.07811439,-0.11026118,move
0.13330394,0.65577364,0.72949743,0.22258402,-0.32734743,-0.20311269,move
0.13330394,0.65577364,0.72949743,0.22258402,-0.32734743,-0.20311269,move
-0.10689897,0.5490823,1.8239436,0.30749428,-0.437914,-0.21533,move
-0.10689897,0.5490823,1.8239436,0.30749428,-0.437914,-0.21533,move
-0.44257253,0.8286586,1.7372832,0.39057195,-0.2784782,-0.19517145,move
-0.44257253,0.8286586,1.7372832,0.39057195,-0.2784782,-0.19517145,move
-0.14251316,1.2120552,-0.2189579,0.28367054,-0.09216429,-0.17012598,move
-0.14251316,1.2120552,-0.2189579,0.28367054,-0.09216429,-0.17012598,move
-0.006256867,1.7047706,-0.5013709,-0.20441078,-0.2326633,-0.2782491,move
-0.006256867,1.7047706,-0.5013709,-0.20441078,-0.2326633,-0.2782491,move
0.00168854,1.4041543,1.4799051,-0.6259078,-0.45807257,-0.4156938,move
0.00168854,1.4041543,1.4799051,-0.6259078,-0.45807257,-0.4156938,move
0.00168854,1.4041543,1.4799051,-0.78351104,-0.53381985,-0.49021935,move
0.35171777,0.45577574,3.03657,-0.78351104,-0.53381985,-0.49021935,move
0.22313875,-0.39232397,4.8404126,-0.82138467,-0.53931767,-0.5152648,move
0.22313875,-0.39232397,4.8404126,-0.82138467,-0.53931767,-0.5152648,move
-0.3676501,-1.2143159,5.9067945,-0.5623778,-0.2344959,-0.4156938,move
-0.3676501,-1.2143159,5.9067945,-0.5623778,-0.2344959,-0.4156938,move
-0.38740695,-1.4180803,3.5315604,-0.060246583,0.27191138,-0.183565,move
-0.38740695,-1.4180803,3.5315604,-0.060246583,0.27191138,-0.183565,move
-0.0986971,-1.271555,-0.23339081,0.31299207,0.47471866,0.0106901415,move
-0.0986971,-1.271555,-0.23339081,0.31299207,0.47471866,0.0106901415,move
0.15776889,-1.0369062,-1.9191122,0.34903312,0.20715968,0.12370021,move
0.15776889,-1.0369062,-1.9191122,0.34903312,0.20715968,0.12370021,move
0.64931893,-0.7455902,-1.9412575,0.2916118,-0.12515102,0.1469131,move
0.64931893,-0.7455902,-1.9412575,0.2916118,-0.12515102,0.1469131,move
1.2438533,-0.65741444,-1.2619362,0.19326249,-0.21800253,0.071776666,move
1.2438533,-0.65741444,-1.2619362,0.19326249,-0.21800253,0.071776666,move
1.1057178,-0.9016113,-0.84940386,0.13645202,-0.12576188,-0.08399397,move
1.1057178,-0.9016113,-0.84940386,0.13645202,-0.12576188,-0.08399397,move
1.1989261,-0.971756,-1.2102914,0.13523029,-0.00786489,-0.1853976,move
1.1989261,-0.971756,-1.2102914,0.13523029,-0.00786489,-0.1853976,move
1.0282252,-0.8875952,-1.5893803,0.13645202,-0.01947133,-0.28985557,move
1.0282252,-0.8875952,-1.5893803,0.13645202,-0.01947133,-0.28985557,move
0.8630802,-0.81877613,-1.7778587,0.093080595,-0.028023442,-0.38026363,move
0.8630802,-0.81877613,-1.7778587,0.093080595,-0.028023442,-0.38026363,move
0.6158309,-0.62403107,-1.5584879,-0.015042556,0.00496328,-0.4437936,move
0.6158309,-0.62403107,-1.5584879,-0.015042556,0.00496328,-0.4437936,move
0.57985336,-0.4788909,-1.1467519,0.003894266,0.07948884,-0.4822781,move
0.57985336,-0.4788909,-1.1467519,0.003894266,0.07948884,-0.4822781,move
0.15907544,-0.4688835,-1.9484172,0.027107146,0.082543164,-0.5225952,move
0.15907544,-0.4688835,-1.9484172,0.027107146,0.082543164,-0.5225952,move
0.15907544,-0.4688835,-1.9484172,-0.0846812,0.02023491,-0.45723262,move
-3.8476288E-4,-0.43837547,-1.46666,-0.0846812,0.02023491,-0.45723262,move
0.16800708,-0.27556086,-0.85034895,-0.09140071,-0.0048105638,-0.3753767,move
0.16800708,-0.27556086,-0.85034895,-0.09140071,-0.0048105638,-0.3753767,move
0.24119464,-0.16546392,-0.6010823,-0.0669661,-0.015195273,-0.30757064,move
0.24119464,-0.16546392,-0.6010823,-0.0669661,-0.015195273,-0.30757064,move
0.29312098,0.12191105,-0.019770145,-0.06085745,0.0092393365,-0.25503623,move
0.29312098,0.12191105,-0.019770145,-0.06085745,0.0092393365,-0.25503623,move
0.09911081,0.21851397,0.12652445,0.02893974,0.05749769,-0.19028452,move
0.09911081,0.21851397,0.12652445,0.02893974,0.05749769,-0.19028452,move
-0.2604268,0.26365423,0.10021591,0.13156511,0.061773747,-0.067500606,move
-0.2604268,0.26365423,0.10021591,0.13156511,0.061773747,-0.067500606,move
-0.0073376,0.6490092,0.1430893,0.20975585,0.048334714,0.12003502,move
-0.0073376,0.6490092,0.1430893,0.20975585,0.048334714,0.12003502,move
0.5549976,1.1405716,0.25262785,0.30016392,0.0031306844,0.22632557,move
0.5549976,1.1405716,0.25262785,0.30016392,0.0031306844,0.22632557,move
1.0414712,1.5981336,1.0074153,0.38385245,-0.15202908,0.2434298,move
1.0414712,1.5981336,1.0074153,0.38385245,-0.15202908,0.2434298,move
1.0925794,1.5424414,1.9754505,0.4974734,-0.30779973,0.16218472,move
1.0925794,1.5424414,1.9754505,0.4974734,-0.30779973,0.16218472,move
0.03470044,1.5178924,2.3620367,0.6043748,-0.23999368,0.098043874,move
0.03470044,1.5178924,2.3620367,0.6043748,-0.23999368,0.098043874,move
-0.9350983,2.0290966,0.56396294,0.6501897,0.17905988,0.17989981,move
-0.9350983,2.0290966,0.56396294,0.6501897,0.17905988,0.17989981,move
-1.3043935,2.8042746,-1.4273801,0.43272167,0.29023734,0.2415972,move
-1.3043935,2.8042746,-1.4273801,0.43272167,0.29023734,0.2415972,move
-1.0919534,2.9088664,-1.1104474,0.02405282,-0.07261661,0.21960606,move
-1.0919534,2.9088664,-1.1104474,0.02405282,-0.07261661,0.21960606,move
-0.1149981,1.3673425,1.4099979,-0.39438987,-0.5942955,0.10048734,move
-0.1149981,1.3673425,1.4099979,-0.39438987,-0.5942955,0.10048734,move
0.3765639,-0.26346922,5.764037,-0.67722046,-0.9076694,-0.06261369,move
0.3765639,-0.26346922,5.764037,-0.67722046,-0.9076694,-0.06261369,move
-0.78158206,-1.480288,7.8528094,-0.2764929,-0.34200817,-0.053450707,move
-0.78158206,-1.480288,7.8528094,-0.2764929,-0.34200817,-0.053450707,move
-0.7984898,-1.4671054,7.842028,0.4076762,0.49060115,0.20311269,move
-0.7984898,-1.4671054,7.842028,0.4076762,0.49060115,0.20311269,move
-0.884416,-1.4406962,-1.3643284,0.51396674,0.7715992,0.40653083,move
-0.884416,-1.4406962,-1.3643284,0.51396674,0.7715992,0.40653083,move
-0.5828004,-0.9982195,-2.7502975,0.20486893,0.44478625,0.44929138,move
-0.5828004,-0.9982195,-2.7502975,0.20486893,0.44478625,0.44929138,move
-0.20907487,-0.972363,-1.4523106,0.010002919,0.06910413,0.3717115,move
-0.20907487,-0.972363,-1.4523106,0.010002919,0.06910413,0.3717115,move
-0.24595235,-1.4632897,-0.5521803,0.024663685,0.01779145,0.26236662,move
-0.24595235,-1.4632897,-0.5521803,0.024663685,0.01779145,0.26236662,move
-0.23347105,-1.8092265,-0.86816454,0.118126065,0.18272507,0.22388211,move
-0.23347105,-1.8092265,-0.86816454,0.118126065,0.18272507,0.22388211,move
-0.21299832,-1.823286,-1.9699931,0.16088663,0.30062205,0.20433442,move
-0.21299832,-1.823286,-1.9699931,0.16088663,0.30062205,0.20433442,move
-0.02241919,-1.7425122,-2.5854907,0.09857838,0.24808764,0.19456059,move
-0.02241919,-1.7425122,-2.5854907,0.09857838,0.24808764,0.19456059,move
0.06423955,-1.4890351,-2.4924846,-0.024205536,0.19799669,0.18173242,move
0.06423955,-1.4890351,-2.4924846,-0.024205536,0.19799669,0.18173242,move
0.3462094,-1.1178942,-1.8666906,-0.10300715,0.14912748,0.14446963,move
0.3462094,-1.1178942,-1.8666906,-0.10300715,0.14912748,0.14446963,move
0.24357525,-0.9304981,-1.8916707,-0.09140071,0.19433151,0.062002823,move
0.24357525,-0.9304981,-1.8916707,-0.09140071,0.19433151,0.062002823,move
0.09895517,-0.8047061,-1.8168011,-0.08712465,0.15890132,-0.018020526,move
0.09895517,-0.8047061,-1.8168011,-0.08712465,0.15890132,-0.018020526,move
-0.19173852,-0.7532711,-1.509429,-0.09567677,0.09048442,-0.051618114,move
-0.19173852,-0.7532711,-1.509429,-0.09567677,0.09048442,-0.051618114,move
-0.09973039,-0.5839362,-1.1211772,-0.07246389,-0.010919216,-0.03756821,move
-0.09973039,-0.5839362,-1.1211772,-0.07246389,-0.010919216,-0.03756821,move
0.10188903,-0.4178791,-0.8356242,-0.08895725,-0.051236324,-0.030848695,move
0.10188903,-0.4178791,-0.8356242,-0.08895725,-0.051236324,-0.030848695,move
0.3911708,-0.19105291,-0.4065132,-0.17753272,7.6358156E-5,-0.051618114,move
0.3911708,-0.19105291,-0.4065132,-0.17753272,7.6358156E-5,-0.051618114,move
0.26871043,-0.058008194,0.61199856,-0.25755605,0.0959822,-0.12186762,move
0.26871043,-0.058008194,0.61199856,-0.25755605,0.0959822,-0.12186762,move
0.13247406,0.23229551,1.1895823,-0.07002043,0.106977776,-0.14874569,move
0.13247406,0.23229551,1.1895823,-0.07002043,0.106977776,-0.14874569,move
-0.010945454,0.44146252,0.5478859,0.16027577,-0.044516806,-0.1554652,move
-0.010945454,0.44146252,0.5478859,0.16027577,-0.044516806,-0.1554652,move
-0.19891396,0.562541,0.55419874,0.21464278,-0.2503784,-0.11148291,move
-0.19891396,0.562541,0.55419874,0.21464278,-0.2503784,-0.11148291,move
-0.08401391,0.7097635,1.1367645,0.14989106,-0.2925281,-0.058337633,move
-0.08401391,0.7097635,1.1367645,0.14989106,-0.2925281,-0.058337633,move
-0.41160163,1.4614758,1.1788788,0.08575021,-0.14897476,-0.025350908,move
-0.41160163,1.4614758,1.1788788,0.08575021,-0.14897476,-0.025350908,move
0.40248424,1.8942623,0.36608744,-0.020540344,-0.1184315,-0.027794369,move
0.40248424,1.8942623,0.36608744,-0.020540344,-0.1184315,-0.027794369,move
0.71536183,2.4610023,0.17670536,-0.2954297,-0.23021984,-0.1994475,move
0.71536183,2.4610023,0.17670536,-0.2954297,-0.23021984,-0.1994475,move
0.5189201,1.8962665,1.1906948,-0.64056855,-0.33589953,-0.4260785,move
0.5189201,1.8962665,1.1906948,-0.64056855,-0.33589953,-0.4260785,move
0.91475123,0.9206605,2.5106177,-0.96249455,-0.51854825,-0.5830709,move
0.91475123,0.9206605,2.5106177,-0.96249455,-0.51854825,-0.5830709,move
0.19302608,-0.7039108,6.0727754,-1.16408,-0.5997933,-0.71868294,move
0.19302608,-0.7039108,6.0727754,-1.16408,-0.5997933,-0.71868294,move
-0.8538336,-1.8724961,7.7877254,-0.7938957,-0.1727985,-0.6062838,move
-0.8538336,-1.8724961,7.7877254,-0.7938957,-0.1727985,-0.6062838,move
-1.0074463,-2.0761998,4.084122,-0.1286635,0.5901722,-0.28008172,move
-1.0074463,-2.0761998,4.084122,-0.1286635,0.5901722,-0.28008172,move
-0.4239497,-1.5887713,0.027469635,0.14256068,0.9725738,0.04428773,move
-0.4239497,-1.5887713,0.027469635,0.14256068,0.9725738,0.04428773,move
0.15097389,-1.0187144,-1.8955784,0.14317155,0.73128206,0.21655174,move
0.15097389,-1.0187144,-1.8955784,0.14317155,0.73128206,0.21655174,move
0.7249047,-0.5460763,-2.0590425,0.18471038,0.14973834,0.23976462,move
0.7249047,-0.5460763,-2.0590425,0.18471038,0.14973834,0.23976462,move
1.1216642,-0.6052456,-1.4328794,0.24701864,-0.3016911,0.15851954,move
1.1216642,-0.6052456,-1.4328794,0.24701864,-0.3016911,0.15851954,move
0.7970197,-0.97839403,-0.8647628,0.19265163,-0.38110355,0.018020526,move
0.7970197,-0.97839403,-0.8647628,0.19265163,-0.38110355,0.018020526,move
0.6027303,-1.1129699,-0.13569641,0.06009387,-0.08239045,-0.013744468,move
0.6027303,-1.1129699,-0.13569641,0.06009387,-0.08239045,-0.013744468,move
0.95911264,-0.65627,-0.33561373,0.08575021,0.08132143,-0.04428773,move
0.95911264,-0.65627,-0.33561373,0.08575021,0.08132143,-0.04428773,move
1.1656227,-0.35015154,-0.7521553,0.13889548,0.056886826,-0.16768251,move
1.1656227,-0.35015154,-0.7521553,0.13889548,0.056886826,-0.16768251,move
0.64003795,-0.511498,-0.9796419,0.14133894,0.026343564,-0.33567044,move
0.64003795,-0.511498,-0.9796419,0.14133894,0.026343564,-0.33567044,move
-0.16335505,-0.86609125,-1.2658477,0.068645984,0.07399105,-0.36132678,move
-0.16335505,-0.86609125,-1.2658477,0.068645984,0.07399105,-0.36132678,move
-0.08446625,-0.853776,-1.1611791,0.022831088,0.117362484,-0.2611449,move
-0.08446625,-0.853776,-1.1611791,0.022831088,0.117362484,-0.2611449,move
0.17882845,-0.6400323,-1.3723679,0.030772336,0.088040955,-0.16707164,move
0.17882845,-0.6400323,-1.3723679,0.030772336,0.088040955,-0.16707164,move
0.18479544,-0.51817656,-1.3490844,0.016111571,0.07032586,-0.10354166,move
0.18479544,-0.51817656,-1.3490844,0.016111571,0.07032586,-0.10354166,move
0.10085386,-0.5235133,-1.2467127,-0.015653422,0.015958855,-0.028405234,move
0.10085386,-0.5235133,-1.2467127,-0.015653422,0.015958855,-0.028405234,move
0.1456061,-0.24420452,-0.73968506,-0.054748796,0.009850202,0.08399397,move
0.1456061,-0.24420452,-0.73968506,-0.054748796,0.009850202,0.08399397,move
0.1456061,-0.24420452,-0.73968506,0.008781188,0.050778173,0.1591304,move
0.24727339,0.039911747,0.08299255,0.008781188,0.050778173,0.1591304,move
-0.14063126,0.2514162,-0.255733,0.12606731,0.12102768,0.21655174,move
-0.14063126,0.2514162,-0.255733,0.12606731,0.12102768,0.21655174,move
-0.31873465,0.41569757,-0.057708263,0.18043432,0.10147999,0.3155119,move
-0.31873465,0.41569757,-0.057708263,0.18043432,0.10147999,0.3155119,move
-0.2961545,0.4894886,0.5509925,0.23235787,0.009850202,0.41874814,move
-0.2961545,0.4894886,0.5509925,0.23235787,0.009850202,0.41874814,move
-0.073180825,0.6248331,1.3225775,0.25923595,-0.048181996,0.52748215,move
-0.073180825,0.6248331,1.3225775,0.25923595,-0.048181996,0.52748215,move
0.29491913,1.2305975,2.0201297,0.3019965,0.0019089539,0.58551437,move
0.29491913,1.2305975,2.0201297,0.3019965,0.0019089539,0.58551437,move
0.25326002,1.7794566,0.54377127,0.3056617,0.3299436,0.5531385,move
0.25326002,1.7794566,0.54377127,0.3056617,0.3299436,0.5531385,move
-0.47455215,2.3379455,-1.0840364,0.11568261,0.4197408,0.4560109,move
-0.47455215,2.3379455,-1.0840364,0.11568261,0.4197408,0.4560109,move
-0.08932036,2.5313158,-2.4085536,-0.28443414,0.26763535,0.3912592,move
-0.08932036,2.5313158,-2.4085536,-0.28443414,0.26763535,0.3912592,move
1.3737966,1.5699344,1.5337443,-1.0675634,-0.868574,0.13225232,move
1.3737966,1.5699344,1.5337443,-1.0675634,-0.868574,0.13225232,move
1.2186081,-0.5123334,7.259372,-1.1579714,-1.2112694,-0.16157386,move
1.2186081,-0.5123334,7.259372,-1.1579714,-1.2112694,-0.16157386,move
-0.3440104,-2.462976,9.366167,-0.4731915,-0.43608144,-0.1994475,move
-0.3440104,-2.462976,9.366167,-0.4731915,-0.43608144,-0.1994475,move
-1.3424966,-2.9047656,3.5915227,0.19448422,0.85650945,0.09132435,move
-1.3424966,-2.9047656,3.5915227,0.19448422,0.85650945,0.09132435,move
-1.3094828,-2.4159937,-1.8817887,0.2140319,1.2279155,0.3753767,move
-1.3094828,-2.4159937,-1.8817887,0.2140319,1.2279155,0.3753767,move
-0.8987125,-1.7788277,-3.0683317,0.006337727,0.7783187,0.5488624,move
-0.8987125,-1.7788277,-3.0683317,0.006337727,0.7783187,0.5488624,move
-0.14013717,-1.0513391,-1.7212992,0.037491854,0.095371336,0.5946773,move
-0.14013717,-1.0513391,-1.7212992,0.037491854,0.095371336,0.5946773,move
0.5907874,-0.80665874,-1.0830569,0.23419046,-0.071394876,0.5036584,move
0.5907874,-0.80665874,-1.0830569,0.23419046,-0.071394876,0.5036584,move
0.4477945,-0.96861124,-2.118309,0.28733575,0.02023491,0.33505958,move
0.4477945,-0.96861124,-2.118309,0.28733575,0.02023491,0.33505958,move
0.06124145,-1.1177635,-2.278707,0.07903069,0.07399105,0.22937989,move
0.06124145,-1.1177635,-2.278707,0.07903069,0.07399105,0.22937989,move
0.21577647,-0.82156134,-1.0361714,-0.10300715,0.04955644,0.1853976,move
0.21577647,-0.82156134,-1.0361714,-0.10300715,0.04955644,0.1853976,move
0.20152086,-0.5063734,-0.8927603,-0.10300715,0.04955644,0.1853976,move
0.20152086,-0.5063734,-0.8927603,-0.08651379,0.07399105,0.093767814,move
0.1197803,-0.32466984,-0.8195691,-0.11644619,0.076434515,-0.021685716,move
0.1197803,-0.32466984,-0.8195691,-0.11644619,0.076434515,-0.021685716,move
-0.15533955,-0.27632046,-0.3313136,-0.1372156,0.056886826,-0.13164146,move
-0.15533955,-0.27632046,-0.3313136,-0.1372156,0.056886826,-0.13164146,move
-0.6451284,-0.35605383,0.30951834,-0.10300715,0.00496328,-0.19028452,move
-0.6451284,-0.35605383,0.30951834,-0.10300715,0.00496328,-0.19028452,move
-0.4615208,-0.35771227,0.8821926,0.04970916,-0.101938136,-0.11636983,move
-0.4615208,-0.35771227,0.8821926,0.04970916,-0.101938136,-0.11636983,move
0.44341022,0.16693401,0.26702404,0.26595545,-0.1043816,-0.032070424,move
0.44341022,0.16693401,0.26702404,0.26595545,-0.1043816,-0.032070424,move
0.70057625,0.34450674,-0.9681511,0.30688342,0.027565295,-0.102319926,move
0.70057625,0.34450674,-0.9681511,0.30688342,0.027565295,-0.102319926,move
0.9836685,0.3576107,-1.2201176,0.30688342,0.027565295,-0.102319926,move
0.9836685,0.3576107,-1.2201176,0.13095424,0.053221636,-0.22510384,move
0.73248774,0.17877531,-0.12493706,0.083306745,-0.10010554,-0.33505958,move
0.73248774,0.17877531,-0.12493706,0.083306745,-0.10010554,-0.33505958,move
0.06621523,-0.10801554,0.49870586,0.22624922,-0.106214195,-0.36926803,move
0.06621523,-0.10801554,0.49870586,0.22624922,-0.106214195,-0.36926803,move
-0.19951245,-0.07155943,-0.38381672,0.36063957,0.025121834,-0.30451632,move
-0.19951245,-0.07155943,-0.38381672,0.36063957,0.025121834,-0.30451632,move
-0.070531696,0.18484831,-0.6124768,0.37530035,-0.07383834,-0.25137106,move
-0.070531696,0.18484831,-0.6124768,0.37530035,-0.07383834,-0.25137106,move
-0.17091528,0.47914076,-0.024612904,0.34353533,-0.29313895,-0.23060162,move
-0.17091528,0.47914076,-0.024612904,0.34353533,-0.29313895,-0.23060162,move
-0.34788105,0.7608037,0.8950038,0.25923595,-0.3731623,-0.24648413,move
-0.34788105,0.7608037,0.8950038,0.25923595,-0.3731623,-0.24648413,move
-0.8649348,1.1508241,1.640068,0.1914299,-0.21372648,-0.24831672,move
-0.8649348,1.1508241,1.640068,0.1914299,-0.21372648,-0.24831672,move
-0.7566087,1.0967464,-0.029613972,0.12056953,-0.09827295,-0.23243423,move
-0.7566087,1.0967464,-0.029613972,0.12056953,-0.09827295,-0.23243423,move
-0.9102766,1.1504683,0.119932175,-0.27710375,-0.24182628,-0.24953845,move
-0.9102766,1.1504683,0.119932175,-0.27710375,-0.24182628,-0.24953845,move
-0.7978999,0.7922125,1.7596259,-0.27710375,-0.24182628,-0.24953845,move
-0.7978999,0.7922125,1.7596259,-0.6417903,-0.31390837,-0.23793201,move
0.0020661354,0.3083043,2.9130325,-0.811,-0.24610233,-0.2049453,move
0.0020661354,0.3083043,2.9130325,-0.811,-0.24610233,-0.2049453,move
0.3930925,-0.3457098,4.1173053,-0.847041,-0.20334177,-0.2275473,move
0.3930925,-0.3457098,4.1173053,-0.847041,-0.20334177,-0.2275473,move
-0.2594965,-1.1971664,5.424658,-0.6662249,-0.08361218,-0.21655174,move
-0.2594965,-1.1971664,5.424658,-0.6662249,-0.08361218,-0.21655174,move
-1.0783931,-1.7281132,3.7602048,-0.105450615,0.21754439,-0.027794369,move
-1.0783931,-1.7281132,3.7602048,-0.105450615,0.21754439,-0.027794369,move
-0.26961502,-1.3098793,0.5931816,-0.105450615,0.21754439,-0.027794369,move
-0.26961502,-1.3098793,0.5931816,0.36430475,0.40446916,0.27580565,move
0.4733888,-0.70167017,-1.5498209,0.50052774,0.29512426,0.38637227,move
0.4733888,-0.70167017,-1.5498209,0.50052774,0.29512426,0.38637227,move
1.3144045,-0.17357779,-2.1939592,0.42478043,0.028176159,0.3277292,move
1.3144045,-0.17357779,-2.1939592,0.42478043,0.028176159,0.3277292,move
1.8363453,0.0028061867,-1.868043,0.17310394,-0.074449204,0.024129177,move
1.8363453,0.0028061867,-1.868043,0.17310394,-0.074449204,0.024129177,move
1.1267191,-0.60632277,-1.1746402,-0.033368513,0.018402316,-0.2782491,move
1.1267191,-0.60632277,-1.1746402,-0.033368513,0.018402316,-0.2782491,move
0.34117347,-1.1887059,-0.9232826,-0.033368513,0.018402316,-0.2782491,move
0.34117347,-1.1887059,-0.9232826,-0.115835324,0.1680643,-0.3735441,move
0.15895225,-1.2968397,-0.9816427,-0.104228884,0.2138792,-0.31856623,move
0.15895225,-1.2968397,-0.9816427,-0.104228884,0.2138792,-0.31856623,move
0.67808837,-0.92591715,-1.0431952,-0.016875152,0.1399645,-0.24648413,move
0.67808837,-0.92591715,-1.0431952,-0.016875152,0.1399645,-0.24648413,move
0.95260143,-0.5739379,-1.5712776,0.010002919,0.042836927,-0.29046643,move
0.95260143,-0.5739379,-1.5712776,0.010002919,0.042836927,-0.29046643,move
0.63521695,-0.5689864,-1.4022479,-0.070631295,0.048334714,-0.37293324,move
0.63521695,-0.5689864,-1.4022479,-0.070631295,0.048334714,-0.37293324,move
0.14176068,-0.76977634,-1.2987943,-0.09201158,0.11308643,-0.37415496,move
0.14176068,-0.76977634,-1.2987943,-0.09201158,0.11308643,-0.37415496,move
0.009386063,-0.7296958,-1.2479424,-0.08590292,0.1735621,-0.26053402,move
0.009386063,-0.7296958,-1.2479424,-0.08590292,0.1735621,-0.26053402,move
0.22807664,-0.30654955,-1.0143557,0.009392053,0.086819224,-0.12797627,move
0.22807664,-0.30654955,-1.0143557,0.009392053,0.086819224,-0.12797627,move
0.32260677,-0.08869076,-1.1118608,0.10896309,-0.043295074,-0.038179077,move
0.32260677,-0.08869076,-1.1118608,0.10896309,-0.043295074,-0.038179077,move
0.6658482,0.1411972,-0.9261646,0.12606731,-0.1764637,0.034513887,move
0.6658482,0.1411972,-0.9261646,0.12606731,-0.1764637,0.034513887,move
0.92341,0.43757343,-0.047941685,0.110795684,-0.26137397,0.05467244,move
0.92341,0.43757343,-0.047941685,0.110795684,-0.26137397,0.05467244,move
0.76178443,0.53317595,0.29076672,0.12118039,-0.1501965,0.06078109,move
0.76178443,0.53317595,0.29076672,0.12118039,-0.1501965,0.06078109,move
0.43708426,0.686079,0.6148143,0.12118039,-0.1501965,0.06078109,move
0.43708426,0.686079,0.6148143,0.09980011,-0.0041996986,0.11759156,move
0.32226786,0.9179106,1.064053,0.16271923,-0.065897085,0.21594086,move
0.32226786,0.9179106,1.064053,0.16271923,-0.065897085,0.21594086,move
0.32226786,0.9179106,1.064053,0.23968825,-0.188681,0.30390546,move
0.66721356,1.3986101,1.7100096,0.23968825,-0.188681,0.30390546,move
0.66721356,1.3986101,1.7100096,0.36308303,-0.22411118,0.28802297,move
0.40577567,1.9340067,1.998189,0.36308303,-0.22411118,0.28802297,move
-0.45128506,2.2654924,0.5004425,0.4479933,-0.11293371,0.27091873,move
-0.45128506,2.2654924,0.5004425,0.4479933,-0.11293371,0.27091873,move
-0.59127724,2.3464737,-0.6207614,0.22319488,-0.18318321,0.2666427,move
-0.59127724,2.3464737,-0.6207614,0.22319488,-0.18318321,0.2666427,move
-0.34691393,2.2475448,0.34062004,-0.21907155,-0.28580856,0.23060162,move
-0.34691393,2.2475448,0.34062004,-0.21907155,-0.28580856,0.23060162,move
0.31420237,1.4951854,1.8539438,-0.60391665,-0.34139732,0.122478485,move
0.31420237,1.4951854,1.8539438,-0.60391665,-0.34139732,0.122478485,move
0.8910339,0.44910908,4.6509013,-0.7938957,-0.49533537,-0.03756821,move
0.8910339,0.44910908,4.6509013,-0.7938957,-0.49533537,-0.03756821,move
-0.061884508,-1.0945592,6.744477,-0.4292092,-0.27908906,-0.1328632,move
-0.061884508,-1.0945592,6.744477,-0.4292092,-0.27908906,-0.1328632,move
-0.07192966,-1.0557966,6.7152104,0.2775619,0.26152667,-0.005192355,move
-0.07192966,-1.0557966,6.7152104,0.2775619,0.26152667,-0.005192355,move
-1.1349413,-1.7272835,-1.3232646,0.57077724,0.663476,0.1695151,move
-1.1349413,-1.7272835,-1.3232646,0.57077724,0.663476,0.1695151,move
-1.3538382,-1.3980484,-3.927796,0.57077724,0.663476,0.1695151,move
-1.3538382,-1.3980484,-3.927796,0.32459852,0.5480225,0.269697,move
-1.6193253,-1.0779014,-3.03058,0.32459852,0.5480225,0.269697,move
-1.6193253,-1.0779014,-3.03058,-0.03642284,0.11919508,0.30879238,move
-1.0739189,-1.0488181,-0.28111935,-0.057803124,-0.31574097,0.38331795,move
-1.0739189,-1.0488181,-0.28111935,-0.057803124,-0.31574097,0.38331795,move
-0.5077405,-1.0362368,0.36934948,0.23113614,-0.4385249,0.3827071,move
-0.5077405,-1.0362368,0.36934948,0.23113614,-0.4385249,0.3827071,move
-0.19533859,-0.9849696,-0.8959737,0.30321825,-0.21250474,0.32162055,move
-0.19533859,-0.9849696,-0.8959737,0.30321825,-0.21250474,0.32162055,move
-0.29578957,-1.0841327,-1.4386749,0.05093089,0.07399105,0.19883664,move
-0.29578957,-1.0841327,-1.4386749,0.05093089,0.07399105,0.19883664,move
-0.6373137,-1.2160635,-1.2703938,-0.1372156,0.18333593,0.121256754,move
-0.6373137,-1.2160635,-1.2703938,-0.1372156,0.18333593,0.121256754,move
-0.45479172,-1.0622549,-1.1683688,-0.112780996,0.047112983,0.12736541,move
-0.45479172,-1.0622549,-1.1683688,-0.112780996,0.047112983,0.12736541,move
-0.27593577,-0.6945634,-1.1711864,-0.08773552,-0.11110111,0.129198,move
-0.27593577,-0.6945634,-1.1711864,-0.08773552,-0.11110111,0.129198,move
0.08870404,-0.18745899,0.13784838,-0.08773552,-0.11110111,0.129198,move
0.08870404,-0.18745899,0.13784838,-0.15737416,-0.08483391,0.0888809,move
0.23698637,-0.0044517517,0.17289352,0.005726862,0.2786309,-0.08277224,move
0.23698637,-0.0044517517,0.17289352,0.005726862,0.2786309,-0.08277224,move
-0.30722106,-0.4812169,-1.1409497,0.13156511,0.3103959,-0.1908954,move
-0.30722106,-0.4812169,-1.1409497,0.13156511,0.3103959,-0.1908954,move
-0.553834,-0.65389967,-1.5422611,0.10163271,0.11675162,-0.15363261,move
-0.553834,-0.65389967,-1.5422611,0.10163271,0.11675162,-0.15363261,move
-0.16843869,-0.46138382,-0.58822393,0.047265697,-0.07200574,-0.09560041,move
-0.16843869,-0.46138382,-0.58822393,0.047265697,-0.07200574,-0.09560041,move
0.047691725,-0.20587015,0.25357962,0.07414377,-0.06834055,-0.10720685,move
0.047691725,-0.20587015,0.25357962,0.07414377,-0.06834055,-0.10720685,move
0.047691725,-0.20587015,0.25357962,0.1737148,0.030619621,-0.13897185,move
-0.1546756,0.031512737,0.9590721,0.1737148,0.030619621,-0.13897185,move
-0.4633221,0.2493267,0.3905034,0.1737148,0.030619621,-0.13897185,move
-0.4633221,0.2493267,0.3905034,0.27206412,0.058108557,-0.13408493,move
-0.114322916,0.29673386,0.25406885,0.25923595,-0.0035888334,-0.11453723,move
-0.114322916,0.29673386,0.25406885,0.25923595,-0.0035888334,-0.11453723,move
0.2674564,0.5089326,0.8444519,0.22441661,-0.16974418,-0.1414153,move
0.2674564,0.5089326,0.8444519,0.22441661,-0.16974418,-0.1414153,move
0.26048046,0.57561207,1.4372039,0.23968825,-0.29008463,-0.22266038,move
0.26048046,0.57561207,1.4372039,0.23968825,-0.29008463,-0.22266038,move
-0.20256819,0.74791,0.41832018,0.23968825,-0.29008463,-0.22266038,move
-0.20256819,0.74791,0.41832018,0.22258402,-0.16974418,-0.2507602,move
-0.12616546,0.7271762,-0.5178337,0.22258402,-0.16974418,-0.2507602,move
-0.12616546,0.7271762,-0.5178337,-0.013209961,-0.10682506,-0.23976462,move
0.25054276,1.0174017,-0.35779762,-0.37667477,-0.26381743,-0.25381452,move
0.25054276,1.0174017,-0.35779762,-0.37667477,-0.26381743,-0.25381452,move
0.6696131,0.6245117,1.0407009,-0.37667477,-0.26381743,-0.25381452,move
0.6696131,0.6245117,1.0407009,-0.7254788,-0.33895385,-0.34788775,move
0.84501797,-0.4232602,2.7100515,-0.9551642,-0.33345607,-0.47250426,move
0.84501797,-0.4232602,2.7100515,-0.9551642,-0.33345607,-0.47250426,move
0.17771263,-1.2150917,4.748996,-0.92706436,-0.27114782,-0.5213735,move
0.17771263,-1.2150917,4.748996,-0.92706436,-0.27114782,-0.5213735,move
-0.6848615,-1.602777,4.1955085,-0.4713589,-0.024969118,-0.3717115,move
-0.6848615,-1.602777,4.1955085,-0.4713589,-0.024969118,-0.3717115,move
-0.21447735,-1.361383,1.3718023,-0.01198823,0.1857794,-0.06505715,move
-0.21447735,-1.361383,1.3718023,-0.01198823,0.1857794,-0.06505715,move
-0.18239006,-1.3661866,1.3760738,0.12118039,0.17539468,0.13775012,move
-0.18239006,-1.3661866,1.3760738,0.12118039,0.17539468,0.13775012,move
1.0093749,-0.17295885,-0.9446287,0.13278683,0.0110719325,0.13225232,move
1.0093749,-0.17295885,-0.9446287,0.13278683,0.0110719325,0.13225232,move
1.4796427,0.042683125,-1.2208633,0.13278683,0.0110719325,0.13225232,move
1.4796427,0.042683125,-1.2208633,0.0753655,-0.15202908,-0.016187929,move
1.2192038,-0.24605894,-0.65173197,0.0753655,-0.15202908,-0.016187929,move
1.2192038,-0.24605894,-0.65173197,-0.042531494,-0.2008983,-0.20861048,move
0.7953931,-0.6546378,0.14500618,-0.070631295,-0.102549,-0.3222314,move
0.7953931,-0.6546378,0.14500618,-0.070631295,-0.102549,-0.3222314,move
0.51373357,-0.81774855,-0.22986841,0.04298964,0.044058654,-0.33444872,move
0.51373357,-0.81774855,-0.22986841,0.04298964,0.044058654,-0.33444872,move
0.4795481,-0.73365927,-1.5146041,0.122402124,0.10147999,-0.33322698,move
0.4795481,-0.73365927,-1.5146041,0.122402124,0.10147999,-0.33322698,move
0.5310455,-0.74864674,-1.5017996,0.043600507,0.031841353,-0.35338554,move
0.5310455,-0.74864674,-1.5017996,0.043600507,0.031841353,-0.35338554,move
0.24524048,-0.42848873,-1.123723,-0.037033707,-0.053679783,-0.3539964,move
0.24524048,-0.42848873,-1.123723,-0.037033707,-0.053679783,-0.3539964,move
0.31205192,-0.33947754,-0.50306034,-0.0052687125,-0.036575556,-0.35460728,move
0.31205192,-0.33947754,-0.50306034,-0.0052687125,-0.036575556,-0.35460728,move
-0.016714483,-0.39355564,-0.69574785,0.052763484,0.10209085,-0.35155296,move
-0.016714483,-0.39355564,-0.69574785,0.052763484,0.10209085,-0.35155296,move
-0.4546112,-0.5976062,-1.2231412,0.10713049,0.14057536,-0.28130344,move
-0.4546112,-0.5976062,-1.2231412,0.10713049,0.14057536,-0.28130344,move
-0.29357052,-0.413054,-1.3803878,0.10713049,0.14057536,-0.28130344,move
-0.29357052,-0.413054,-1.3803878,0.14011721,0.020845776,-0.12370021,move
-0.06793916,-0.20217466,-1.1627107,0.14011721,0.020845776,-0.12370021,move
-0.06793916,-0.20217466,-1.1627107,0.11629347,-0.05245805,-0.008857546,move
0.00730145,-0.06547499,-0.8420582,0.059483003,-0.00908662,0.083383106,move
0.00730145,-0.06547499,-0.8420582,0.059483003,-0.00908662,0.083383106,move
-0.10391033,0.12615919,-0.21075249,0.031994067,0.048334714,0.15607607,move
-0.10391033,0.12615919,-0.21075249,0.031994067,0.048334714,0.15607607,move
-0.32999545,0.28989077,0.027316093,0.08391761,0.10819951,0.2415972,move
-0.32999545,0.28989077,0.027316093,0.08391761,0.10819951,0.2415972,move
-0.32999545,0.28989077,0.027316093,0.1437824,0.061773747,0.36254853,move
-0.48389786,0.43623924,0.3183446,0.1437824,0.061773747,0.36254853,move
-0.07917106,0.83345366,1.3242292,0.1437824,0.061773747,0.36254853,move
-0.07917106,0.83345366,1.3242292,0.25434902,-0.1483639,0.5494733,move
0.4796309,1.231072,2.3227968,0.25434902,-0.1483639,0.5494733,move
0.4796309,1.231072,2.3227968,0.41439572,-0.1868484,0.6020077,move
0.80103993,1.5990667,2.4164376,0.5408448,0.0061850105,0.56107974,move
0.80103993,1.5990667,2.4164376,0.5408448,0.0061850105,0.56107974,move
0.08762408,2.1686478,1.1424594,0.6110943,0.296346,0.5018258,move
0.08762408,2.1686478,1.1424594,0.6110943,0.296346,0.5018258,move
-0.2628777,2.3283567,-0.92816496,0.45226935,0.46738827,0.50915617,move
-0.2628777,2.3283567,-0.92816496,0.45226935,0.46738827,0.50915617,move
0.0686366,2.7559986,-1.7793217,0.020387627,0.2926808,0.43096542,move
0.0686366,2.7559986,-1.7793217,0.020387627,0.2926808,0.43096542,move
0.7566927,2.1471734,0.14566755,-0.50068045,-0.19356793,0.20677789,move
0.7566927,2.1471734,0.14566755,-0.50068045,-0.19356793,0.20677789,move
1.3389062,0.8129206,4.0348377,-0.8067239,-0.49167016,-0.054061573,move
1.3389062,0.8129206,4.0348377,-0.8067239,-0.49167016,-0.054061573,move
0.11074666,-1.0350347,6.128696,-0.58253634,-0.21555908,-0.25809056,move
0.11074666,-1.0350347,6.128696,-0.58253634,-0.21555908,-0.25809056,move
-1.0460815,-2.3281434,4.128008,-0.026648996,0.38003454,-0.11759156,move
-1.0460815,-2.3281434,4.128008,-0.026648996,0.38003454,-0.11759156,move
-1.0061425,-2.5041718,-0.14860201,0.29894218,0.7563275,0.18234327,move
-1.0061425,-2.5041718,-0.14860201,0.29894218,0.7563275,0.18234327,move
-0.71099806,-1.6409512,-2.5276394,0.18104519,0.5975026,0.36254853,move
-0.71099806,-1.6409512,-2.5276394,0.18104519,0.5975026,0.36254853,move
-0.41258544,-1.0961819,-1.6288657,-0.024205536,0.20044015,0.40469822,move
-0.41258544,-1.0961819,-1.6288657,-0.024205536,0.20044015,0.40469822,move
0.089568615,-0.78841114,-0.43325853,0.024663685,-0.07078401,0.37415496,move
0.089568615,-0.78841114,-0.43325853,0.024663685,-0.07078401,0.37415496,move
0.089568615,-0.78841114,-0.43325853,0.024663685,-0.07078401,0.37415496,move
-0.030574158,-1.0972033,-0.46080208,0.14194982,-0.17402023,0.26725355,move
-0.030574158,-1.0972033,-0.46080208,0.14194982,-0.17402023,0.26725355,move
-0.2120085,-1.370152,-0.34926176,0.11568261,-0.13981178,0.20861048,move
-0.55960137,-1.4186306,-0.60838366,0.080252424,0.036728274,0.21227567,move
-0.55960137,-1.4186306,-0.60838366,0.080252424,0.036728274,0.21227567,move
-0.08207667,-1.0071669,-1.3454471,0.080252424,0.036728274,0.21227567,move
-0.08207667,-1.0071669,-1.3454471,0.12056953,0.06971499,0.27947086,move
0.52065176,-0.39560175,-1.546546,0.093080595,-0.057344973,0.23915374,move
0.52065176,-0.39560175,-1.546546,0.093080595,-0.057344973,0.23915374,move
0.50783247,-0.22207022,-0.7712946,0.093080595,-0.057344973,0.23915374,move
0.50783247,-0.22207022,-0.7712946,-0.03397938,-0.089109965,0.018020526,move
0.50783247,-0.22207022,-0.7712946,-0.07246389,0.06299548,-0.1151481,move
-0.20477322,-0.52074146,-0.14550829,-0.07246389,0.06299548,-0.1151481,move
-0.46403205,-0.6678338,-0.17387629,0.025885414,0.13874277,-0.08582657,move
-0.46403205,-0.6678338,-0.17387629,0.025885414,0.13874277,-0.08582657,move
-0.025834259,-0.43914795,-0.5429163,0.14439327,0.056886826,-0.005192355,move
-0.025834259,-0.43914795,-0.5429163,0.14439327,0.056886826,-0.005192355,move
0.6025601,-0.13312912,-0.70752573,0.20486893,-0.036575556,-0.02107485,move
0.6025601,-0.13312912,-0.70752573,0.20486893,-0.036575556,-0.02107485,move
0.6626006,-0.10672188,-0.9360056,0.18409951,-0.009697486,-0.12614368,move
0.6626006,-0.10672188,-0.9360056,0.18409951,-0.009697486,-0.12614368,move
0.3037879,-0.35687256,-0.8793211,0.10285444,0.050778173,-0.22204952,move
0.3037879,-0.35687256,-0.8793211,0.10285444,0.050778173,-0.22204952,move
-0.25084072,-0.4732833,-0.180614,0.096134916,0.050167307,-0.22815818,move
-0.25084072,-0.4732833,-0.180614,0.096134916,0.050167307,-0.22815818,move
-0.6332681,-0.31691933,-0.018764496,0.22991441,0.03795,-0.14508049,move
-0.6332681,-0.31691933,-0.018764496,0.22991441,0.03795,-0.14508049,move
-0.48154876,0.042394638,-0.34803438,0.3093269,0.0055741454,-0.048563786,move
-0.48154876,0.042394638,-0.34803438,0.3093269,0.0055741454,-0.048563786,move
-0.3386467,0.39918756,-0.35271215,0.2506838,-0.14347698,-0.0143553335,move
-0.3386467,0.39918756,-0.35271215,0.2506838,-0.14347698,-0.0143553335,move
0.16342062,0.6448436,0.61947966,0.19081903,-0.32429308,-0.0143553335,move
0.16342062,0.6448436,0.61947966,0.19081903,-0.32429308,-0.0143553335,move
0.09808628,0.8380604,1.4632611,0.15783231,-0.35056028,-0.121256754,move
0.09808628,0.8380604,1.4632611,0.15783231,-0.35056028,-0.121256754,move
-0.6924118,0.9216528,0.93594503,0.11995866,-0.11049025,-0.16707164,move
-0.6924118,0.9216528,0.93594503,0.11995866,-0.11049025,-0.16707164,move
-0.74907386,1.0586061,0.102986336,0.0020616702,-0.032910366,-0.11575896,move
-0.74907386,1.0586061,0.102986336,0.0020616702,-0.032910366,-0.11575896,move
-0.18300213,1.343092,0.42034626,-0.22090414,-0.17951803,-0.04917465,move
-0.18300213,1.343092,0.42034626,-0.22090414,-0.17951803,-0.04917465,move
0.59667355,1.3469682,1.0611691,-0.50251305,-0.22166772,-0.070554934,move
0.59667355,1.3469682,1.0611691,-0.50251305,-0.22166772,-0.070554934,move
1.3768796,0.8118348,2.7823443,-0.8287151,-0.23144157,-0.18845193,move
1.3768796,0.8118348,2.7823443,-0.8287151,-0.23144157,-0.18845193,move
1.1977929,-0.25818682,5.3477407,-0.8122217,-0.0041996986,-0.35521814,move
1.1977929,-0.25818682,5.3477407,-0.8122217,-0.0041996986,-0.35521814,move
0.28796178,-1.0414982,4.307142,-0.26610819,0.46555567,-0.31123585,move
0.28796178,-1.0414982,4.307142,-0.26610819,0.46555567,-0.31123585,move
0.07412848,-1.1557364,0.37693453,0.18593211,0.6335436,-0.09987647,move
0.07412848,-1.1557364,0.37693453,0.18593211,0.6335436,-0.09987647,move
0.42177844,-0.66515064,-2.1476183,0.2842814,0.48204905,0.018020526,move
0.42177844,-0.66515064,-2.1476183,0.2842814,0.48204905,0.018020526,move
0.6926374,-0.35915136,-3.2948027,0.1333977,0.16195565,-0.016187929,move
0.6926374,-0.35915136,-3.2948027,0.1333977,0.16195565,-0.016187929,move
0.7079221,-0.46530914,-2.8540401,-0.20379992,-0.010919216,-0.15363261,move
0.7079221,-0.46530914,-2.8540401,-0.20379992,-0.010919216,-0.15363261,move
0.3881646,-1.0525217,-0.81521034,-0.45791987,-0.04879286,-0.24587326,move
0.3881646,-1.0525217,-0.81521034,-0.45791987,-0.04879286,-0.24587326,move
0.19109422,-1.2518749,0.1664567,-0.45791987,-0.04879286,-0.24587326,move
0.19109422,-1.2518749,0.1664567,-0.37789652,-0.0622319,-0.24281894,move
0.19109422,-1.2518749,0.1664567,-0.37789652,-0.0622319,-0.24281894,move
0.13143912,-1.3306127,0.1959424,-0.16165021,-0.0182496,-0.15302174,move
0.41116732,-0.97198105,-0.4255638,0.030161472,-0.031688634,-0.04734206,move
0.41116732,-0.97198105,-0.4255638,0.030161472,-0.031688634,-0.04734206,move
0.78103757,-0.4233222,-0.96166563,0.068645984,-0.04879286,-0.01740966,move
0.78103757,-0.4233222,-0.96166563,0.068645984,-0.04879286,-0.01740966,move
0.82174635,-0.12224007,-0.79784155,2.2907447E-4,0.0129045285,-0.055283304,move
0.82174635,-0.12224007,-0.79784155,2.2907447E-4,0.0129045285,-0.055283304,move
0.59690034,-0.12789202,-0.59957504,-0.0028252518,0.088040955,-0.118202426,move
0.59690034,-0.12789202,-0.59957504,-0.0028252518,0.088040955,-0.118202426,move
0.2012535,-0.3107376,-0.9872637,0.07231117,0.14790575,-0.11942416,move
0.2012535,-0.3107376,-0.9872637,0.07231117,0.14790575,-0.11942416,move
0.35889763,-0.12045574,-1.1474657,0.13156511,0.041615196,-0.04062254,move
0.35889763,-0.12045574,-1.1474657,0.13156511,0.041615196,-0.04062254,move
0.69824004,0.03738737,-1.0681682,0.13828462,-0.06467536,-0.005192355,move
0.69824004,0.03738737,-1.0681682,0.13828462,-0.06467536,-0.005192355,move
0.6924936,0.13064861,-0.3214712,0.07780896,-0.098883815,-0.016798794,move
0.6924936,0.13064861,-0.3214712,0.07780896,-0.098883815,-0.016798794,move
0.32749885,0.03644085,0.17845583,0.11018482,-0.037797287,-0.034513887,move
0.32749885,0.03644085,0.17845583,0.11018482,-0.037797287,-0.034513887,move
-0.0981918,0.06474352,-0.19596624,0.13706289,0.21143574,0.030848695,move
-0.0981918,0.06474352,-0.19596624,0.13706289,0.21143574,0.030848695,move
-0.20783347,0.30010796,-0.2567606,0.10590876,0.19921842,0.16584991,move
-0.20783347,0.30010796,-0.2567606,0.10590876,0.19921842,0.16584991,move
0.11157906,0.6566291,0.620379,0.16088663,-0.0023671028,0.28191432,move
0.11157906,0.6566291,0.620379,0.16088663,-0.0023671028,0.28191432,move
0.4769313,0.83391714,1.3286104,0.16088663,-0.0023671028,0.28191432,move
0.4769313,0.83391714,1.3286104,0.31848988,-0.25954136,0.3368922,move
0.66783905,0.895741,2.0857925,0.31848988,-0.25954136,0.3368922,move
0.66783905,0.895741,2.0857925,0.4534911,-0.41409028,0.34605515,move
-0.001137197,1.1161313,2.4315739,0.4534911,-0.41409028,0.34605515,move
-0.001137197,1.1161313,2.4315739,0.54695344,-0.19112447,0.3368922,move
-0.6915338,1.7266436,-0.2036128,0.5341253,0.29695687,0.39492437,move
-0.6915338,1.7266436,-0.2036128,0.5341253,0.29695687,0.39492437,move
-0.5647481,2.0800962,-2.0970507,0.13523029,0.41424298,0.4334089,move
-0.5647481,2.0800962,-2.0970507,0.13523029,0.41424298,0.4334089,move
0.062351525,2.265276,-0.4633422,-0.30581442,6.872234E-4,0.34605515,move
0.062351525,2.265276,-0.4633422,-0.30581442,6.872234E-4,0.34605515,move
0.6814415,1.2461557,2.1128378,-0.4957935,-0.4440227,0.16157386,move
0.6814415,1.2461557,2.1128378,-0.4957935,-0.4440227,0.16157386,move
0.6805177,-0.25864553,4.779352,-0.4872414,-0.5289329,-0.026572637,move
0.6805177,-0.25864553,4.779352,-0.4872414,-0.5289329,-0.026572637,move
-0.3382789,-1.5357213,4.7521973,-0.4872414,-0.5289329,-0.026572637,move
-0.3382789,-1.5357213,4.7521973,-0.1286635,-0.089109965,-0.06994407,move
-1.0572201,-2.0051413,0.5649414,0.3019965,0.40324742,0.040011674,move
-1.0572201,-2.0051413,0.5649414,0.3019965,0.40324742,0.040011674,move
-1.3452371,-1.5223637,-3.0021071,0.21219932,0.55413115,0.22449298,move
-1.3452371,-1.5223637,-3.0021071,0.21219932,0.55413115,0.22449298,move
-1.2411709,-0.98913383,-2.4045558,-0.10728321,0.13874277,0.3417791,move
-1.2411709,-0.98913383,-2.4045558,-0.10728321,0.13874277,0.3417791,move
-0.3572858,-0.5915127,-0.7693615,-0.10728321,0.13874277,0.3417791,move
-0.3572858,-0.5915127,-0.7693615,-0.14210252,-0.2607631,0.3930918,move
-0.090423785,-0.77094126,-0.089402676,-0.07918341,-0.38415787,0.29779682,move
-0.090423785,-0.77094126,-0.089402676,-0.07918341,-0.38415787,0.29779682,move
-0.01786767,-1.1564088,-0.039093018,-0.08773552,-0.31390837,0.20066923,move
-0.01786767,-1.1564088,-0.039093018,-0.08773552,-0.31390837,0.20066923,move
-0.06622107,-1.2403855,-0.18562317,-0.16470455,-0.010308351,0.14080444,move
-0.06622107,-1.2403855,-0.18562317,-0.16470455,-0.010308351,0.14080444,move
0.01861234,-1.1910062,-0.76166534,-0.13416128,0.122860275,0.12186762,move
0.01861234,-1.1910062,-0.76166534,-0.13416128,0.122860275,0.12186762,move
0.0033408403,-1.0419197,-1.4625955,-0.10300715,0.14546229,0.10903945,move
0.0033408403,-1.0419197,-1.4625955,-0.10300715,0.14546229,0.10903945,move
0.0070759356,-0.7203851,-1.5893793,-0.1408808,0.11064297,0.074830994,move
0.0070759356,-0.7203851,-1.5893793,-0.1408808,0.11064297,0.074830994,move
-0.05600918,-0.473948,-1.1297784,-0.17508925,0.11308643,0.013744468,move
-0.05600918,-0.473948,-1.1297784,-0.17508925,0.11308643,0.013744468,move
-0.28097704,-0.34710217,-0.62186956,-0.1530981,0.08743009,-0.027794369,move
-0.28097704,-0.34710217,-0.62186956,-0.1530981,0.08743009,-0.027794369,move
-0.38425446,-0.41572046,-0.42481804,-0.048640147,0.08071057,-0.03573562,move
-0.38425446,-0.41572046,-0.42481804,-0.048640147,0.08071057,-0.03573562,move
-0.38425446,-0.41572046,-0.42481804,-0.048640147,0.08071057,-0.03573562,move
-0.39031613,-0.42362785,-0.9956231,0.003894266,0.110032104,-0.022907447,move
-0.22862653,-0.26244116,-0.9796214,0.003894266,0.110032104,-0.022907447,move
-0.22862653,-0.26244116,-0.9796214,-0.06269005,0.08987355,-0.02107485,move
-0.07042904,-0.074037075,0.18460655,-0.07185303,0.012293663,-0.041233405,move
-0.07042904,-0.074037075,0.18460655,-0.07185303,0.012293663,-0.041233405,move
0.036085755,0.1785841,0.91487074,0.09002627,0.007406741,-0.0571159,move
0.036085755,0.1785841,0.91487074,0.09002627,0.007406741,-0.0571159,move
-0.015022943,0.5674572,0.2055893,0.22991441,0.06543894,-0.0870483,move
-0.015022943,0.5674572,0.2055893,0.22991441,0.06543894,-0.0870483,move
0.08337182,0.7188897,-0.020148754,0.22991441,0.06543894,-0.0870483,move
0.08337182,0.7188897,-0.020148754,0.19692768,0.028787024,-0.12370021,move
0.18658744,0.66752386,1.2133126,0.19692768,0.028787024,-0.12370021,move
0.18658744,0.66752386,1.2133126,0.14500414,-0.15997034,-0.16401732,move
-0.054590106,0.78456354,2.2934546,0.14500414,-0.15997034,-0.16401732,move
-0.054590106,0.78456354,2.2934546,0.2213623,-0.22655465,-0.1853976,move
-0.52133536,1.3645377,0.3704629,0.29039007,0.06666067,-0.16218472,move
-0.52133536,1.3645377,0.3704629,0.29039007,0.06666067,-0.16218472,move
-0.14481017,1.6142321,-0.8315177,0.04970916,0.094149604,-0.13225232,move
-0.14481017,1.6142321,-0.8315177,0.04970916,0.094149604,-0.13225232,move
0.24711701,1.735704,0.42976618,-0.3308599,-0.21250474,-0.20433442,move
0.24711701,1.735704,0.42976618,-0.3308599,-0.21250474,-0.20433442,move
0.40242183,1.0578775,2.0262284,-0.69676816,-0.36155587,-0.3399465,move
0.40242183,1.0578775,2.0262284,-0.69676816,-0.36155587,-0.3399465,move
0.6399337,0.16212559,4.273788,-0.8525388,-0.36338845,-0.37415496,move
0.6399337,0.16212559,4.273788,-0.8525388,-0.36338845,-0.37415496,move
0.16288492,-0.47842407,6.490609,-0.67844224,-0.064064495,-0.32406402,move
0.16288492,-0.47842407,6.490609,-0.67844224,-0.064064495,-0.32406402,move
-0.16451997,-0.76049566,4.3597374,-0.13232869,0.44967318,-0.129198,move
-0.16451997,-0.76049566,4.3597374,-0.13232869,0.44967318,-0.129198,move
0.4714593,-0.63231087,0.7934685,-0.13232869,0.44967318,-0.129198,move
0.4714593,-0.63231087,0.7934685,0.19692768,0.5632941,0.0693332,move
0.9283983,-0.6005273,-1.3044286,0.19692768,0.5632941,0.0693332,move
0.9283983,-0.6005273,-1.3044286,0.2476295,0.33360878,0.14996742,move
1.4138541,-0.61853313,-1.481771,0.2476295,0.33360878,0.14996742,move
1.4138541,-0.61853313,-1.481771,0.21708624,-0.0011453723,0.13041973,move
1.4138541,-0.61853313,-1.481771,0.16455182,-0.13125966,0.016798794,move
1.4671041,-0.95204353,-1.2427921,0.16455182,-0.13125966,0.016798794,move
1.1064205,-1.4244857,-0.6256132,0.10957395,-0.0762818,-0.09010262,move
1.1064205,-1.4244857,-0.6256132,0.10957395,-0.0762818,-0.09010262,move
0.8236415,-1.6293488,-0.699594,0.1333977,0.09231701,-0.113926366,move
0.8236415,-1.6293488,-0.699594,0.1333977,0.09231701,-0.113926366,move
0.83478683,-1.5196295,-1.4717784,0.1333977,0.09231701,-0.113926366,move
0.83478683,-1.5196295,-1.4717784,0.20731239,0.1821142,-0.09437868,move
0.80181146,-1.2460132,-2.2109818,0.2494621,0.18089247,-0.11148291,move
0.80181146,-1.2460132,-2.2109818,0.2494621,0.18089247,-0.11148291,move
0.5422563,-1.046185,-2.6132545,0.24090998,0.11797335,-0.16462818,move
0.5422563,-1.046185,-2.6132545,0.24090998,0.11797335,-0.16462818,move
0.33378467,-0.7422333,-2.4484677,0.24090998,0.11797335,-0.16462818,move
0.33378467,-0.7422333,-2.4484677,0.18409951,0.050167307,-0.18478674,move
0.16960092,-0.5729928,-2.2428713,0.12851077,0.0397826,-0.18845193,move
0.16960092,-0.5729928,-2.2428713,0.12851077,0.0397826,-0.18845193,move
-0.068962336,-0.36728,-2.0476055,0.014278975,0.060552016,-0.1572978,move
-0.068962336,-0.36728,-2.0476055,0.014278975,0.060552016,-0.1572978,move
0.06621915,-0.26499987,-1.1085491,-0.101174556,-0.013362677,-0.09315695,move
0.06621915,-0.26499987,-1.1085491,-0.101174556,-0.013362677,-0.09315695,move
0.2512439,-0.3509121,-0.07817888,-0.09078985,-0.11049025,-0.01740966,move
0.2512439,-0.3509121,-0.07817888,-0.09078985,-0.11049025,-0.01740966,move
0.59672993,-0.08694506,0.8964715,0.03443753,-0.14897476,0.09132435,move
0.59672993,-0.08694506,0.8964715,0.03443753,-0.14897476,0.09132435,move
0.59672993,-0.08694506,0.8964715,0.03443753,-0.14897476,0.09132435,move
0.73679,0.42183352,0.6755123,0.20303634,0.04466952,0.090713486,move
0.32393062,0.4887252,-0.2400322,0.20303634,0.04466952,0.090713486,move
0.32393062,0.4887252,-0.2400322,0.11446088,0.20410535,0.093767814,move
0.1305461,0.61583996,1.4199052,0.012446379,0.10881037,0.1731803,move
0.1305461,0.61583996,1.4199052,0.012446379,0.10881037,0.1731803,move
0.1305461,0.61583996,1.4199052,0.22197317,-0.02985604,0.2837469,move
0.18199016,0.77096367,2.3059044,0.22197317,-0.02985604,0.2837469,move
0.39457816,0.9849849,2.828845,0.22197317,-0.02985604,0.2837469,move
0.39457816,0.9849849,2.828845,0.3581961,-0.031077769,0.37415496,move
0.091717914,2.0959678,1.8253374,0.45593455,0.25297457,0.419359,move
0.091717914,2.0959678,1.8253374,0.45593455,0.25297457,0.419359,move
-0.392351,2.3459625,-0.9139633,0.35880697,0.42890376,0.39920044,move
-0.392351,2.3459625,-0.9139633,0.35880697,0.42890376,0.39920044,move
-0.4257276,2.5022373,-1.6673799,0.35880697,0.42890376,0.39920044,move
-0.4257276,2.5022373,-1.6673799,-0.052916203,0.13385585,0.3643811,move
-0.009278536,1.7306385,0.44138384,-0.48663053,-0.3487277,0.2770274,move
-0.009278536,1.7306385,0.44138384,-0.48663053,-0.3487277,0.2770274,move
0.6479919,0.6445403,4.0826006,-0.7578547,-0.50449836,0.15424347,move
0.6479919,0.6445403,4.0826006,-0.7578547,-0.50449836,0.15424347,move
-0.24616453,-0.9979315,5.958793,-0.58497983,-0.17951803,0.03756821,move
-0.24616453,-0.9979315,5.958793,-0.58497983,-0.17951803,0.03756821,move
-1.1295116,-1.6179585,2.9073772,-0.07551821,0.30611986,0.13591751,move
-1.1295116,-1.6179585,2.9073772,-0.07551821,0.30611986,0.13591751,move
-1.1612841,-1.7789845,-0.92475843,0.099189244,0.5089271,0.32162055,move
-1.1612841,-1.7789845,-0.92475843,0.099189244,0.5089271,0.32162055,move
-0.92039156,-1.4329138,-1.8321972,-0.10361802,0.28351784,0.44868052,move
-0.92039156,-1.4329138,-1.8321972,-0.10361802,0.28351784,0.44868052,move
-0.3247621,-0.95739603,-0.63691187,-0.2092977,-0.09827295,0.47311515,move
-0.3247621,-0.95739603,-0.63691187,-0.2092977,-0.09827295,0.47311515,move
-0.16718437,-1.1984735,0.17422915,-0.2092977,-0.09827295,0.47311515,move
-0.16718437,-1.1984735,0.17422915,-0.11033753,-0.27542385,0.38698313,move
-0.17050329,-1.4984856,-0.06401014,-0.0052687125,-0.14958562,0.3210097,move
-0.17050329,-1.4984856,-0.06401014,-0.0052687125,-0.14958562,0.3210097,move
0.2430315,-1.5222421,-0.9040985,0.03810272,0.086819224,0.29657507,move
0.2430315,-1.5222421,-0.9040985,0.03810272,0.086819224,0.29657507,move
0.46658304,-1.2536745,-1.5320601,-0.0016035213,0.24869852,0.22571471,move
0.46658304,-1.2536745,-1.5320601,-0.0016035213,0.24869852,0.22571471,move
0.34544337,-1.1485586,-2.1969,-0.013820826,0.23037256,0.13347405,move
0.34544337,-1.1485586,-2.1969,-0.013820826,0.23037256,0.13347405,move
-0.15190452,-0.9527855,-2.0232234,-0.06330091,0.10147999,0.051618114,move
-0.15190452,-0.9527855,-2.0232234,-0.06330091,0.10147999,0.051618114,move
-0.5656804,-0.79387283,-1.5454574,-0.06574437,0.028787024,0.035124753,move
-0.5656804,-0.79387283,-1.5454574,-0.06574437,0.028787024,0.035124753,move
-0.42735228,-0.46076202,-1.1533432,-0.06269005,0.050167307,0.06872234,move
-0.42735228,-0.46076202,-1.1533432,-0.06269005,0.050167307,0.06872234,move
-0.18787308,-0.09550619,-0.93252325,-0.016875152,0.04772385,0.052839845,move
-0.18787308,-0.09550619,-0.93252325,-0.016875152,0.04772385,0.052839845,move
0.047112755,0.025134087,-0.99071264,-0.003436117,-0.024969118,0.006414085,move
0.047112755,0.025134087,-0.99071264,-0.003436117,-0.024969118,0.006414085,move
0.12555398,0.041648388,-0.50152445,-0.06085745,-0.0884991,-0.07788532,move
0.12555398,0.041648388,-0.50152445,-0.06085745,-0.0884991,-0.07788532,move
-0.09305778,-0.10393715,0.29277134,-0.07735081,-0.11171198,-0.12980886,move
-0.09305778,-0.10393715,0.29277134,-0.07735081,-0.11171198,-0.12980886,move
0.17625877,-0.09192753,1.0490971,8.399397E-4,-0.067118816,-0.10415252,move
0.17625877,-0.09192753,1.0490971,8.399397E-4,-0.067118816,-0.10415252,move
0.37298253,0.30364275,0.448462,0.15905404,-0.0066431593,-0.101098195,move
0.37298253,0.30364275,0.448462,0.15905404,-0.0066431593,-0.101098195,move
0.35374856,0.5467086,-0.061791897,0.20609066,-0.006032294,-0.13408493,move
0.35374856,0.5467086,-0.061791897,0.20609066,-0.006032294,-0.13408493,move
0.35374856,0.5467086,-0.061791897,0.20609066,-0.006032294,-0.13408493,move
0.23386663,0.8210354,0.46129656,0.22624922,-0.17402023,-0.1853976,move
0.5399396,1.0996652,1.4222841,0.2916118,-0.37438405,-0.23854288,move
0.5399396,1.0996652,1.4222841,0.2916118,-0.37438405,-0.23854288,move
0.21501376,1.7826681,1.5943685,0.2916118,-0.37438405,-0.23854288,move
0.21501376,1.7826681,1.5943685,0.33131805,-0.3554472,-0.3277292,move
0.33166286,2.3316503,0.32970905,0.24701864,-0.1202641,-0.38087448,move
0.33166286,2.3316503,0.32970905,0.24701864,-0.1202641,-0.38087448,move
0.79198027,2.3343968,-0.064368725,0.03932445,-0.23144157,-0.4822781,move
0.79198027,2.3343968,-0.064368725,0.03932445,-0.23144157,-0.4822781,move
0.93057615,1.9513693,0.7164178,-0.32414037,-0.5289329,-0.6826419,move
0.93057615,1.9513693,0.7164178,-0.32414037,-0.5289329,-0.6826419,move
1.0935202,0.7855835,3.1962004,-0.66194886,-0.58757603,-0.8347474,move
1.0935202,0.7855835,3.1962004,-0.66194886,-0.58757603,-0.8347474,move
0.23943785,-0.41500044,5.5221663,-0.7004334,-0.28947377,-0.904386,move
0.23943785,-0.41500044,5.5221663,-0.7004334,-0.28947377,-0.904386,move
-0.8702248,-1.2067518,5.0596204,-0.2777146,0.17111863,-0.73639804,move
-0.8702248,-1.2067518,5.0596204,-0.2777146,0.17111863,-0.73639804,move
-0.8896064,-1.6916809,1.1656547,0.21342105,0.337274,-0.40591997,move
-0.8896064,-1.6916809,1.1656547,0.21342105,0.337274,-0.40591997,move
-0.38121292,-1.4907684,-1.2799182,0.22319488,-0.029245174,-0.15668693,move
-0.38121292,-1.4907684,-1.2799182,0.22319488,-0.029245174,-0.15668693,move
0.29165334,-1.2496448,-0.3800292,0.035659257,-0.31268665,-0.051618114,move
0.29165334,-1.2496448,-0.3800292,0.035659257,-0.31268665,-0.051618114,move
0.39966202,-1.3929367,0.7220726,-0.015042556,-0.26198483,-0.09132435,move
0.39966202,-1.3929367,0.7220726,-0.015042556,-0.26198483,-0.09132435,move
0.059683204,-1.787621,0.34831762,0.04970916,-0.031688634,-0.098043874,move
0.059683204,-1.787621,0.34831762,0.04970916,-0.031688634,-0.098043874,move
-0.02880627,-1.973908,-0.57332134,0.15477799,0.058719423,-0.028405234,move
-0.02880627,-1.973908,-0.57332134,0.15477799,0.058719423,-0.028405234,move
0.29811364,-1.6781788,-1.9086308,0.2140319,0.026343564,0.03634648,move
0.29811364,-1.6781788,-1.9086308,0.2140319,0.026343564,0.03634648,move
0.45760655,-1.4115238,-2.071879,0.2140319,0.026343564,0.03634648,move
0.45760655,-1.4115238,-2.071879,0.15844317,-0.07689266,0.038179077,move
0.36449048,-1.0369096,-1.6681323,0.15844317,-0.07689266,0.038179077,move
0.36449048,-1.0369096,-1.6681323,0.0894154,-0.048181996,0.004581489,move
0.18507643,-0.84122086,-1.8952336,0.077198096,0.08743009,-0.04917465,move
0.18507643,-0.84122086,-1.8952336,0.077198096,0.08743009,-0.04917465,move
-0.11590353,-0.7566662,-2.3237877,0.06009387,0.13874277,-0.076052725,move
-0.11590353,-0.7566662,-2.3237877,0.06009387,0.13874277,-0.076052725,move
-0.071265936,-0.5259037,-2.3902464,0.06803512,0.058108557,-0.046120327,move
-0.071265936,-0.5259037,-2.3902464,0.06803512,0.058108557,-0.046120327,move
-0.071265936,-0.5259037,-2.3902464,0.081474155,-0.10743593,-0.022907447,move
0.14654768,-0.29749918,-2.1465816,0.081474155,-0.10743593,-0.022907447,move
0.2306107,-0.1409154,-1.6498871,0.02649628,-0.12331842,-0.02107485,move
0.2306107,-0.1409154,-1.6498871,0.02649628,-0.12331842,-0.02107485,move
0.1500535,-0.14714861,-0.7561054,-0.027870728,-0.04268421,-0.035124753,move
0.1500535,-0.14714861,-0.7561054,-0.027870728,-0.04268421,-0.035124753,move
0.07718758,-0.002693653,-0.25817013,0.006948592,0.08559749,0.0021380284,move
0.07718758,-0.002693653,-0.25817013,0.006948592,0.08559749,0.0021380284,move
0.11311127,0.2782035,-0.012765884,0.055206947,0.111253835,0.04917465,move
0.11311127,0.2782035,-0.012765884,0.055206947,0.111253835,0.04917465,move
0.09343189,0.51289463,0.6152787,0.055206947,0.111253835,0.04917465,move
0.09343189,0.51289463,0.6152787,0.058872137,0.08315403,0.09682214,move
-0.024041682,0.7413354,1.708539,0.058872137,0.08315403,0.09682214,move
-0.024041682,0.7413354,1.708539,0.10590876,-0.029245174,0.16035213,move
0.19134104,0.82635975,2.7750773,0.19631682,-0.08972083,0.23793201,move
0.19134104,0.82635975,2.7750773,0.19631682,-0.08972083,0.23793201,move
0.18702948,1.1735611,3.6344948,0.28672487,0.08620836,0.28802297,move
0.18702948,1.1735611,3.6344948,0.28672487,0.08620836,0.28802297,move
-0.5703716,1.7516866,1.2753601,0.46631926,0.446008,0.33933565,move
-0.5703716,1.7516866,1.2753601,0.46631926,0.446008,0.33933565,move
-0.48921984,2.2453213,-1.6829014,0.46631926,0.446008,0.33933565,move
-0.48921984,2.2453213,-1.6829014,0.27023152,0.43073636,0.41630468,move
0.076638125,2.6216993,-0.9280853,0.27023152,0.43073636,0.41630468,move
0.076638125,2.6216993,-0.9280853,-0.26427558,-0.09216429,0.3436117,move
0.46746364,1.2196989,2.5258598,-0.6863835,-0.45013133,0.18845193,move
0.46746364,1.2196989,2.5258598,-0.6863835,-0.45013133,0.18845193,move
0.34256768,-0.21030283,6.1125064,-0.8329911,-0.478842,0.074830994,move
0.34256768,-0.21030283,6.1125064,-0.8329911,-0.478842,0.074830994,move
-0.5543325,-1.1570048,7.473533,-0.4169919,-0.05429065,0.15363261,move
-0.5543325,-1.1570048,7.473533,-0.4169919,-0.05429065,0.15363261,move
-0.625299,-1.2243648,2.036139,-0.4169919,-0.05429065,0.15363261,move
-0.625299,-1.2243648,2.036139,0.29710957,0.4631122,0.3717115,move
0.008230653,-0.60877085,-2.4667845,0.29710957,0.4631122,0.3717115,move
0.008230653,-0.60877085,-2.4667845,0.32520938,0.58772874,0.5195409,move
0.3028845,-0.23511457,-3.444718,0.024663685,0.17783815,0.4560109,move
0.3028845,-0.23511457,-3.444718,0.024663685,0.17783815,0.4560109,move
0.3028845,-0.23511457,-3.444718,-0.1915826,-0.30413455,0.30024028,move
0.2969947,-0.45003128,-0.6133013,-0.1915826,-0.30413455,0.30024028,move
0.043995515,-1.1031103,0.3747573,-0.12072224,-0.2607631,0.1591304,move
0.043995515,-1.1031103,0.3747573,-0.12072224,-0.2607631,0.1591304,move
-0.1854989,-1.4519258,-0.17035294,-0.042531494,-0.010308351,0.109650314,move
-0.1854989,-1.4519258,-0.17035294,-0.042531494,-0.010308351,0.109650314,move
0.31077173,-1.3827653,-1.0424018,-0.0064904434,0.17172949,0.10415252,move
0.31077173,-1.3827653,-1.0424018,-0.0064904434,0.17172949,0.10415252,move
0.40707067,-1.2530837,-2.0510688,0.030772336,0.19188805,0.025961773,move
0.40707067,-1.2530837,-2.0510688,0.030772336,0.19188805,0.025961773,move
-0.029087417,-1.2328134,-2.2905097,8.399397E-4,0.10819951,-0.05100725,move
-0.029087417,-1.2328134,-2.2905097,8.399397E-4,0.10819951,-0.05100725,move
-0.45393094,-1.003561,-1.6575832,-0.030314188,0.050167307,-0.06383542,move
-0.45393094,-1.003561,-1.6575832,-0.030314188,0.050167307,-0.06383542,move
-0.43799308,-0.99982166,-1.6607575,-0.030314188,0.050167307,-0.06383542,move
-0.43799308,-0.99982166,-1.6607575,0.010002919,0.08620836,-0.028405234,move
-0.1361337,-0.39073086,-1.1341114,0.15355626,0.06421721,0.01863139,move
-0.1361337,-0.39073086,-1.1341114,0.15355626,0.06421721,0.01863139,move
0.23286313,-0.0051164627,-1.681375,0.23235787,-0.027412578,-0.025961773,move
0.23286313,-0.0051164627,-1.681375,0.23235787,-0.027412578,-0.025961773,move
0.20489785,0.014653206,-1.4444518,0.10957395,-0.031688634,-0.1414153,move
0.20489785,0.014653206,-1.4444518,0.10957395,-0.031688634,-0.1414153,move
-0.31544074,-0.27275515,-0.5490861,0.0051159966,0.022067508,-0.22082779,move
-0.31544074,-0.27275515,-0.5490861,0.0051159966,0.022067508,-0.22082779,move
-0.43887717,-0.20639038,0.4060712,0.09002627,-0.018860465,-0.18784106,move
-0.43887717,-0.20639038,0.4060712,0.09002627,-0.018860465,-0.18784106,move
-0.22882308,0.24427557,0.51152945,0.25312728,-0.058566704,-0.12980886,move
-0.22882308,0.24427557,0.51152945,0.25312728,-0.058566704,-0.12980886,move
-0.008224808,0.6702719,0.5878587,0.27878362,-0.037797287,-0.13347405,move
-0.008224808,0.6702719,0.5878587,0.27878362,-0.037797287,-0.13347405,move
-0.014698387,0.90244865,1.4976449,0.27878362,-0.037797287,-0.13347405,move
-0.014698387,0.90244865,1.4976449,0.25190556,-0.13859005,-0.17256944,move
0.15658377,0.99350214,2.3694,0.3478114,-0.32429308,-0.1957823,move
0.15658377,0.99350214,2.3694,0.3478114,-0.32429308,-0.1957823,move
-0.41923052,1.3688788,2.1816554,0.4253913,-0.27969992,-0.19700404,move
-0.41923052,1.3688788,2.1816554,0.4253913,-0.27969992,-0.19700404,move
0.2213529,1.5556684,0.02030468,0.31604642,-0.051847186,-0.12736541,move
0.2213529,1.5556684,0.02030468,0.31604642,-0.051847186,-0.12736541,move
0.724112,1.902978,0.1449585,-0.096898496,-0.081779584,-0.183565,move
0.724112,1.902978,0.1449585,-0.096898496,-0.081779584,-0.183565,move
0.7555845,1.6841788,0.6789522,-0.49518263,-0.0322995,-0.34055737,move
0.7555845,1.6841788,0.6789522,-0.49518263,-0.0322995,-0.34055737,move
0.71539646,0.04920721,2.3057947,-0.8684213,-0.27542385,-0.5103779,move
0.71539646,0.04920721,2.3057947,-0.8684213,-0.27542385,-0.5103779,move
0.5464366,-0.63272333,5.453035,-0.80061525,-0.46234864,-0.46761733,move
0.5464366,-0.63272333,5.453035,-0.80061525,-0.46234864,-0.46761733,move
-0.060411796,-1.0483255,5.317003,-0.23006712,-0.1746311,-0.27580565,move
-0.060411796,-1.0483255,5.317003,-0.23006712,-0.1746311,-0.27580565,move
-0.04653744,-1.0345025,5.306157,0.16271923,0.12530373,-0.06994407,move
-0.04653744,-1.0345025,5.306157,0.16271923,0.12530373,-0.06994407,move
0.65665936,-0.8660407,1.0131235,0.01488984,0.12713633,-0.027794369,move
0.65665936,-0.8660407,1.0131235,0.01488984,0.12713633,-0.027794369,move
0.8856233,-0.8309436,-0.4910307,-0.06574437,-0.087277375,-0.0693332,move
0.8856233,-0.8309436,-0.4910307,-0.06574437,-0.087277375,-0.0693332,move
0.795652,-1.1989055,0.05113125,-0.02359467,-0.17890716,-0.118202426,move
0.795652,-1.1989055,0.05113125,-0.02359467,-0.17890716,-0.118202426,move
0.51003075,-1.582953,-0.3834281,0.07903069,-0.0884991,-0.15790866,move
0.51003075,-1.582953,-0.3834281,0.07903069,-0.0884991,-0.15790866,move
0.38847542,-1.814148,-1.3305168,0.14256068,-0.012751812,-0.14263703,move
0.38847542,-1.814148,-1.3305168,0.14256068,-0.012751812,-0.14263703,move
0.43360755,-1.6123834,-2.1852865,0.13217597,-0.020082194,-0.11209377,move
0.43360755,-1.6123834,-2.1852865,0.13217597,-0.020082194,-0.11209377,move
0.4545821,-1.2558942,-2.0423589,0.0735329,-0.097662084,-0.14080444,move
0.4545821,-1.2558942,-2.0423589,0.0735329,-0.097662084,-0.14080444,move
-0.039970636,-1.2102456,-1.7232914,0.049098294,-0.10865766,-0.20189096,move
-0.039970636,-1.2102456,-1.7232914,0.049098294,-0.10865766,-0.20189096,move
-0.2920856,-1.0040212,-1.3800921,0.06742425,-0.07078401,-0.183565,move
-0.2920856,-1.0040212,-1.3800921,0.06742425,-0.07078401,-0.183565,move
-0.009256341,-0.6621294,-1.5638309,0.12545645,-0.02313652,-0.12980886,move
-0.009256341,-0.6621294,-1.5638309,0.12545645,-0.02313652,-0.12980886,move
0.17407063,-0.43532085,-1.9642205,0.12789991,0.00496328,-0.118202426,move
0.17407063,-0.43532085,-1.9642205,0.12789991,0.00496328,-0.118202426,move
0.17305794,-0.23413754,-1.6894631,0.05642868,-0.050014593,-0.129198,move
0.17305794,-0.23413754,-1.6894631,0.05642868,-0.050014593,-0.129198,move
0.09675109,-0.19219637,-0.7866559,-0.0064904434,-0.097662084,-0.15118915,move
0.09675109,-0.19219637,-0.7866559,-0.0064904434,-0.097662084,-0.15118915,move
0.16278365,-0.18372583,0.46454,0.017944166,-0.08055785,-0.12736541,move
0.16278365,-0.18372583,0.46454,0.017944166,-0.08055785,-0.12736541,move
0.16278365,-0.18372583,0.46454,0.22869268,0.15157095,-0.053450707,move
-0.06962547,-0.07804823,0.4263444,0.22869268,0.15157095,-0.053450707,move
-0.3413212,0.17123461,-0.42990208,0.22869268,0.15157095,-0.053450707,move
-0.3413212,0.17123461,-0.42990208,0.27206412,0.26274842,0.057726767,move
-0.09156111,0.6272645,-0.018016815,0.21036673,0.17417295,0.16157386,move
-0.09156111,0.6272645,-0.018016815,0.21036673,0.17417295,0.16157386,move
0.03001462,0.78458405,1.3110933,0.22930354,0.06666067,0.2134974,move
0.03001462,0.78458405,1.3110933,0.22930354,0.06666067,0.2134974,move
0.03001462,0.78458405,1.3110933,0.22930354,0.06666067,0.2134974,move
0.14502004,0.75299263,2.3991446,0.33315063,-0.0139735425,0.2782491,move
0.14502004,0.75299263,2.3991446,0.33315063,-0.0139735425,0.2782491,move
0.29413813,0.88689375,3.764731,0.48036915,0.058108557,0.32589662,move
-0.76479024,1.5584192,2.1536684,0.72960216,0.5101488,0.3717115,move
-0.76479024,1.5584192,2.1536684,0.72960216,0.5101488,0.3717115,move
-0.7754241,2.1639009,-2.6501594,0.6178138,0.7532732,0.4364632,move
-0.7754241,2.1639009,-2.6501594,0.6178138,0.7532732,0.4364632,move
-0.5635826,2.4641805,-3.2781978,-0.1091158,0.20288362,0.38148534,move
-0.5635826,2.4641805,-3.2781978,-0.1091158,0.20288362,0.38148534,move
0.5017738,1.051281,1.7907767,-0.8818603,-0.29130638,0.2574797,move
0.5017738,1.051281,1.7907767,-0.8818603,-0.29130638,0.2574797,move
0.4481281,-0.84481907,7.0540376,-1.0516809,-0.23021984,0.08093964,move
0.4481281,-0.84481907,7.0540376,-1.0516809,-0.23021984,0.08093964,move
-1.4173806,-1.6366477,5.888652,-0.41760275,0.35132387,0.11453723,move
-1.4173806,-1.6366477,5.888652,-0.41760275,0.35132387,0.11453723,move
-1.7084903,-1.6676259,0.7495165,0.13767375,0.5828418,0.4156938,move
-1.7084903,-1.6676259,0.7495165,0.13767375,0.5828418,0.4156938,move
-0.88680035,-0.64549065,-2.639132,0.091858864,0.34155002,0.66859204,move
-0.88680035,-0.64549065,-2.639132,0.091858864,0.34155002,0.66859204,move
0.2320777,-0.19482183,-1.7981443,-0.16348282,-0.23816109,0.6771441,move
0.2320777,-0.19482183,-1.7981443,-0.16348282,-0.23816109,0.6771441,move
0.706008,-0.42453527,-0.2183857,-0.31070134,-0.43974662,0.49327368,move
0.706008,-0.42453527,-0.2183857,-0.31070134,-0.43974662,0.49327368,move
0.7820833,-1.0491152,1.1443868,-0.4133267,-0.2680935,0.2764165,move
0.7820833,-1.0491152,1.1443868,-0.4133267,-0.2680935,0.2764165,move
0.1497098,-1.6581674,1.3421092,-0.34552065,0.12224941,0.09560041,move
0.1497098,-1.6581674,1.3421092,-0.34552065,0.12224941,0.09560041,move
0.1497098,-1.6581674,1.3421092,-0.02115121,0.29145908,0.13347405,move
0.16840486,-1.612925,1.3050032,-0.02115121,0.29145908,0.13347405,move
0.57987756,-1.4443564,-1.9461565,-0.02115121,0.29145908,0.13347405,move
0.57987756,-1.4443564,-1.9461565,0.17615826,0.16134478,0.19517145,move
0.8324162,-0.98923445,-2.8539844,0.1511128,0.021456642,0.112704635,move
0.8324162,-0.98923445,-2.8539844,0.1511128,0.021456642,0.112704635,move
0.28574732,-0.63204956,-2.5601234,-0.022372939,0.033673946,-0.04550946,move
0.28574732,-0.63204956,-2.5601234,-0.022372939,0.033673946,-0.04550946,move
-0.6794202,-0.78894377,-1.5565057,-0.19219348,0.14607315,-0.13225232,move
-0.6794202,-0.78894377,-1.5565057,-0.19219348,0.14607315,-0.13225232,move
-1.2410601,-0.81450367,-0.78385067,-0.15737416,0.16073392,-0.070554934,move
-1.2410601,-0.81450367,-0.78385067,-0.15737416,0.16073392,-0.070554934,move
-0.81287533,-0.61386967,-0.29406357,-9.92656E-4,0.083764896,0.07360926,move
-0.81287533,-0.61386967,-0.29406357,-9.92656E-4,0.083764896,0.07360926,move
-0.16194676,-0.1923089,-0.97797203,0.13889548,0.0019089539,0.10598512,move
-0.16194676,-0.1923089,-0.97797203,0.13889548,0.0019089539,0.10598512,move
0.15088293,-0.017994404,-0.600441,0.058872137,-0.11537717,0.04734206,move
0.15088293,-0.017994404,-0.600441,0.058872137,-0.11537717,0.04734206,move
-0.013726622,0.04760933,0.49433756,0.032604933,-0.17035505,-0.027183503,move
-0.013726622,0.04760933,0.49433756,0.032604933,-0.17035505,-0.027183503,move
-0.3517688,0.059039116,0.9558687,0.08697194,-0.12576188,-0.051618114,move
-0.3517688,0.059039116,0.9558687,0.08697194,-0.12576188,-0.051618114,move
-0.09418137,0.26367617,1.4595981,0.20303634,-0.065897085,0.013744468,move
-0.09418137,0.26367617,1.4595981,0.20303634,-0.065897085,0.013744468,move
0.64441025,0.63540936,1.0789738,0.34353533,-0.17157678,0.042455133,move
0.64441025,0.63540936,1.0789738,0.34353533,-0.17157678,0.042455133,move
1.3527868,0.9225793,1.7656455,0.30871603,-0.26870435,-0.018020526,move
1.3527868,0.9225793,1.7656455,0.30871603,-0.26870435,-0.018020526,move
1.6032951,0.8124738,2.5806499,0.30138564,-0.30230194,-0.18295415,move
1.6032951,0.8124738,2.5806499,0.30138564,-0.30230194,-0.18295415,move
0.5552896,0.8547511,2.4361048,0.33620495,-0.15508342,-0.31612277,move
0.5552896,0.8547511,2.4361048,0.33620495,-0.15508342,-0.31612277,move
0.5552896,0.8547511,2.4361048,0.34842226,-0.03596469,-0.27030787,move
0.16344137,0.78676414,0.5133786,0.34842226,-0.03596469,-0.27030787,move
0.81886,1.2458458,0.45723772,0.34842226,-0.03596469,-0.27030787,move
0.81886,1.2458458,0.45723772,0.15783231,-0.2729804,-0.1853976,move
1.1474012,1.2218189,0.7530179,-0.118889645,-0.5093852,-0.3032946,move
1.1474012,1.2218189,0.7530179,-0.118889645,-0.5093852,-0.3032946,move
1.3486083,0.43239784,1.5494351,-0.5073999,-0.38660133,-0.49266282,move
1.3486083,0.43239784,1.5494351,-0.5073999,-0.38660133,-0.49266282,move
0.66559565,-0.73788834,3.4271197,-0.7102072,-0.16913332,-0.61422503,move
0.66559565,-0.73788834,3.4271197,-0.7102072,-0.16913332,-0.61422503,move
0.047993913,-1.073699,3.3885045,-0.45058948,-0.0048105638,-0.5323691,move
0.047993913,-1.073699,3.3885045,-0.45058948,-0.0048105638,-0.5323691,move
0.1475038,-1.0770674,0.942925,-0.112780996,0.053221636,-0.3717115,move
0.1475038,-1.0770674,0.942925,-0.112780996,0.053221636,-0.3717115,move
0.34850657,-0.9481425,-1.1115618,-0.1091158,-0.013362677,-0.30757064,move
0.34850657,-0.9481425,-1.1115618,-0.1091158,-0.013362677,-0.30757064,move
0.100699395,-1.2516646,-0.5811281,-0.28443414,-0.16668986,-0.2751948,move
0.100699395,-1.2516646,-0.5811281,-0.28443414,-0.16668986,-0.2751948,move
0.011770517,-1.591023,0.26003075,-0.27832547,-0.16913332,-0.20677789,move
0.011770517,-1.591023,0.26003075,-0.27832547,-0.16913332,-0.20677789,move
0.08841391,-1.827795,0.08800793,-0.12377657,-0.12454015,-0.11942416,move
0.08841391,-1.827795,0.08800793,-0.12377657,-0.12454015,-0.11942416,move
0.45469582,-1.6466212,-0.6912379,-0.12377657,-0.12454015,-0.11942416,move
0.45469582,-1.6466212,-0.6912379,0.05826127,-0.1306488,-0.019242255,move
1.0146377,-1.1258731,-1.2477427,0.20853412,-0.21372648,0.02107485,move
1.0146377,-1.1258731,-1.2477427,0.20853412,-0.21372648,0.02107485,move
1.2110054,-0.6451564,-1.7922888,0.25373816,-0.20700696,-0.050396383,move
1.2110054,-0.6451564,-1.7922888,0.25373816,-0.20700696,-0.050396383,move
0.7893454,-0.40376472,-2.2200065,0.25373816,-0.20700696,-0.050396383,move
0.7893454,-0.40376472,-2.2200065,0.17615826,-0.04085161,-0.19700404,move
-0.042091712,-0.42377853,-2.1735678,0.17615826,-0.04085161,-0.19700404,move
-0.042091712,-0.42377853,-2.1735678,0.045433104,0.102701716,-0.30695978,move
-0.4681126,-0.37418032,-1.8441424,0.045433104,0.102701716,-0.30695978,move
-0.4681126,-0.37418032,-1.8441424,0.020387627,0.09170614,-0.2874121,move
-0.25435498,-0.071455956,-1.9710488,0.087582804,-0.0011453723,-0.22876903,move
-0.25435498,-0.071455956,-1.9710488,0.087582804,-0.0011453723,-0.22876903,move
0.011716157,0.2018261,-1.894949,0.06253733,-0.061010167,-0.24220806,move
0.011716157,0.2018261,-1.894949,0.06253733,-0.061010167,-0.24220806,move
-0.027345397,0.1979065,-1.0301929,-0.051083606,-0.026190847,-0.29535335,move
-0.027345397,0.1979065,-1.0301929,-0.051083606,-0.026190847,-0.29535335,move
-0.22263971,0.018027782,-0.120574474,-0.051083606,-0.026190847,-0.29535335,move
-0.22263971,0.018027782,-0.120574474,-0.03153592,0.1277472,-0.27580565,move
-0.54255325,0.019943714,-0.44030428,-0.03153592,0.1277472,-0.27580565,move
-0.54255325,0.019943714,-0.44030428,0.075976364,0.26580274,-0.16768251,move
-0.6834113,0.20043278,-1.0122943,0.08636107,0.2560289,-0.011301007,move
-0.6834113,0.20043278,-1.0122943,0.08636107,0.2560289,-0.011301007,move
-0.08000821,0.7129636,-0.14464235,0.025274549,0.12102768,0.112704635,move
-0.08000821,0.7129636,-0.14464235,0.025274549,0.12102768,0.112704635,move
0.3326301,1.0456009,1.1954341,0.04298964,0.07154759,0.10903945,move
0.3326301,1.0456009,1.1954341,0.04298964,0.07154759,0.10903945,move
0.013100594,0.7294965,2.1079793,0.04298964,0.07154759,0.10903945,move
0.013100594,0.7294965,2.1079793,0.19753855,0.14057536,0.11759156,move
-0.25717038,0.45103264,2.1937895,0.19753855,0.14057536,0.11759156,move
-0.25717038,0.45103264,2.1937895,0.3288746,0.22487476,0.24098633,move
0.05279869,0.5316491,2.9403358,0.43638685,0.24808764,0.39858958,move
0.05279869,0.5316491,2.9403358,0.43638685,0.24808764,0.39858958,move
-0.59119654,1.4977679,1.944355,0.6153704,0.43806675,0.50426924,move
-0.59119654,1.4977679,1.944355,0.6153704,0.43806675,0.50426924,move
-1.0346204,2.2357798,-1.036562,0.5799402,0.55290943,0.6026186,move
-1.0346204,2.2357798,-1.036562,0.5799402,0.55290943,0.6026186,move
-0.27607203,2.9180255,-1.6787553,0.1559997,0.19677497,0.61544675,move
-0.27607203,2.9180255,-1.6787553,0.1559997,0.19677497,0.61544675,move
0.36821634,2.2133698,1.2457204,-0.38767037,-0.24304801,0.42730024,move
0.36821634,2.2133698,1.2457204,-0.38767037,-0.24304801,0.42730024,move
0.66710955,0.49268246,4.7822886,-0.6869943,-0.39148825,0.2556471,move
0.66710955,0.49268246,4.7822886,-0.6869943,-0.39148825,0.2556471,move
0.5976713,-0.7897415,6.8164687,-0.489074,-0.1428661,0.21471913,move
0.5976713,-0.7897415,6.8164687,-0.489074,-0.1428661,0.21471913,move
0.20144817,-1.1367888,3.16792,0.031994067,0.53091824,0.24709499,move
0.20144817,-1.1367888,3.16792,0.031994067,0.53091824,0.24709499,move
-0.28742373,-1.2062111,-1.910151,0.15233453,0.8613964,0.2751948,move
-0.28742373,-1.2062111,-1.910151,0.15233453,0.8613964,0.2751948,move
-0.67887133,-1.2256908,-2.6512275,-0.112780996,0.50465107,0.3203988,move
-0.67887133,-1.2256908,-2.6512275,-0.112780996,0.50465107,0.3203988,move
-0.4252528,-1.1683817,-0.24352264,-0.20807597,-0.1379792,0.3820962,move
-0.4252528,-1.1683817,-0.24352264,-0.20807597,-0.1379792,0.3820962,move
0.16687137,-1.3107939,1.1638007,0.069867715,-0.4171446,0.39675698,move
0.16687137,-1.3107939,1.1638007,0.069867715,-0.4171446,0.39675698,move
0.42116386,-1.5596223,0.6803632,0.21464278,-0.16241379,0.3827071,move
0.42116386,-1.5596223,0.6803632,0.21464278,-0.16241379,0.3827071,move
0.90263045,-1.5586696,-0.50390434,0.21464278,-0.16241379,0.3827071,move
0.90263045,-1.5586696,-0.50390434,0.14072809,0.18333593,0.2837469,move
0.76281714,-1.6068072,-1.3101988,0.14072809,0.18333593,0.2837469,move
0.76281714,-1.6068072,-1.3101988,0.07475463,0.35315648,0.1572978,move
0.54803604,-1.651114,-2.0292983,0.119347796,0.22487476,0.074830994,move
0.54803604,-1.651114,-2.0292983,0.119347796,0.22487476,0.074830994,move
0.3425646,-1.3165579,-2.038145,0.1333977,0.07826711,0.035124753,move
0.3425646,-1.3165579,-2.038145,0.1333977,0.07826711,0.035124753,move
-0.057981648,-1.1127682,-1.9739118,0.10407617,0.11369729,-0.024740042,move
-0.057981648,-1.1127682,-1.9739118,0.10407617,0.11369729,-0.024740042,move
-0.33777738,-0.9737158,-2.1389384,0.08391761,0.15829046,-0.0729984,move
-0.33777738,-0.9737158,-2.1389384,0.08391761,0.15829046,-0.0729984,move
-0.5886583,-1.0029674,-2.35324,0.08697194,0.05627596,-0.086437434,move
-0.5886583,-1.0029674,-2.35324,0.08697194,0.05627596,-0.086437434,move
-0.41167817,-0.7530575,-1.9461017,0.08697194,0.05627596,-0.086437434,move
-0.41167817,-0.7530575,-1.9461017,0.0173333,-0.11171198,-0.046120327,move
-0.058723703,-0.3159361,-0.9823923,-0.06757697,-0.13492486,-0.049785517,move
-0.058723703,-0.3159361,-0.9823923,-0.06757697,-0.13492486,-0.049785517,move
0.00141133,-0.12570238,-0.5536051,-0.093844175,-0.09277516,-0.12858713,move
0.00141133,-0.12570238,-0.5536051,-0.093844175,-0.09277516,-0.12858713,move
-0.18767975,-0.15254116,0.15482712,-0.09078985,-0.1184315,-0.1853976,move
-0.18767975,-0.15254116,0.15482712,-0.09078985,-0.1184315,-0.1853976,move
-0.37545595,0.040334225,0.7509551,-0.03642284,-0.1379792,-0.20250183,move
-0.37545595,0.040334225,0.7509551,-0.03642284,-0.1379792,-0.20250183,move
-0.15332799,0.2971778,1.1504726,0.021609358,-0.10010554,-0.18417588,move
-0.15332799,0.2971778,1.1504726,0.021609358,-0.10010554,-0.18417588,move
0.2739695,0.61531353,1.2482524,0.0613156,-0.07506007,-0.1908954,move
0.2739695,0.61531353,1.2482524,0.0613156,-0.07506007,-0.1908954,move
0.71120155,0.79516745,1.5460639,0.08513934,-0.12515102,-0.2452624,move
0.71120155,0.79516745,1.5460639,0.08513934,-0.12515102,-0.2452624,move
0.72421855,0.78137445,1.5581942,0.12606731,-0.20517437,-0.3491095,move
0.72421855,0.78137445,1.5581942,0.12606731,-0.20517437,-0.3491095,move
-0.40766984,1.2321835,1.220182,0.11262828,-0.17402023,-0.39064834,move
-0.40766984,1.2321835,1.220182,0.11262828,-0.17402023,-0.39064834,move
-0.012673605,1.6448736,0.36607838,-0.123165704,-0.19784398,-0.32528573,move
-0.012673605,1.6448736,0.36607838,-0.123165704,-0.19784398,-0.32528573,move
0.5746134,1.7972713,1.2659035,-0.123165704,-0.19784398,-0.32528573,move
0.5746134,1.7972713,1.2659035,-0.43287438,-0.34200817,-0.36377025,move
0.75840694,1.1828399,2.1601925,-0.64240116,-0.3731623,-0.48166725,move
0.75840694,1.1828399,2.1601925,-0.64240116,-0.3731623,-0.48166725,move
0.7763214,0.11126852,3.1515765,-0.8311585,-0.29130638,-0.5525276,move
0.7763214,0.11126852,3.1515765,-0.8311585,-0.29130638,-0.5525276,move
0.029344462,-0.6365156,4.6260967,-0.7767915,-0.12209669,-0.5519168,move
0.029344462,-0.6365156,4.6260967,-0.7767915,-0.12209669,-0.5519168,move
-0.32353812,-1.0453715,3.6564512,-0.3235295,0.14485142,-0.32589662,move
-0.32353812,-1.0453715,3.6564512,-0.3235295,0.14485142,-0.32589662,move
0.16083792,-1.0360212,0.21939325,0.080252424,0.17539468,-0.094989546,move
0.16083792,-1.0360212,0.21939325,0.080252424,0.17539468,-0.094989546,move
0.33719814,-0.90522146,-1.2805014,0.080252424,0.17539468,-0.094989546,move
0.33719814,-0.90522146,-1.2805014,0.024663685,0.0012980887,0.020463986,move
0.62498134,-0.9003639,-1.0307903,-0.1512655,-0.09705122,0.046120327,move
0.62498134,-0.9003639,-1.0307903,-0.1512655,-0.09705122,0.046120327,move
0.7949913,-1.0707707,-0.1221261,-0.21540636,-0.101938136,0.006414085,move
0.7949913,-1.0707707,-0.1221261,-0.21540636,-0.101938136,0.006414085,move
0.46422553,-1.4081087,-0.15653038,-0.111559264,-0.0041996986,-0.056505036,move
0.46422553,-1.4081087,-0.15653038,-0.111559264,-0.0041996986,-0.056505036,move
0.28843525,-1.411262,-0.7126641,0.01366811,0.07704538,-0.051618114,move
0.28843525,-1.411262,-0.7126641,0.01366811,0.07704538,-0.051618114,move
0.15907559,-1.2971473,-1.7948208,0.01366811,0.07704538,-0.051618114,move
0.15907559,-1.2971473,-1.7948208,0.1297325,0.098425664,-0.034513887,move
0.119801275,-0.8976164,-2.0879836,0.118126065,0.02695443,-0.020463986,move
0.119801275,-0.8976164,-2.0879836,0.118126065,0.02695443,-0.020463986,move
-0.01396364,-0.5309057,-1.7758703,0.072922036,-5.345071E-4,-0.04734206,move
-0.01396364,-0.5309057,-1.7758703,0.072922036,-5.345071E-4,-0.04734206,move
0.084250346,-0.20524597,-1.8304081,0.03504839,0.099647395,-0.07422013,move
0.084250346,-0.20524597,-1.8304081,0.03504839,0.099647395,-0.07422013,move
0.18171063,-0.04196167,-1.8644123,0.017944166,0.11675162,-0.12797627,move
0.18171063,-0.04196167,-1.8644123,0.017944166,0.11675162,-0.12797627,move
0.15765256,-0.15322828,-1.7599373,0.06009387,-0.008475755,-0.17684549,move
0.15765256,-0.15322828,-1.7599373,0.06009387,-0.008475755,-0.17684549,move
0.1776859,-0.29362774,-1.1187572,0.09735665,-0.15325081,-0.19333886,move
0.1776859,-0.29362774,-1.1187572,0.09735665,-0.15325081,-0.19333886,move
0.25656012,-0.33381367,-0.7965541,0.09735665,-0.15325081,-0.19333886,move
0.25656012,-0.33381367,-0.7965541,0.07658723,-0.059788436,-0.17867808,move
0.3144497,-0.16030836,-0.7465844,0.057039544,0.11797335,-0.16401732,move
0.3144497,-0.16030836,-0.7465844,0.057039544,0.11797335,-0.16401732,move
0.16887888,0.18597317,-0.9937539,-0.02603813,0.27068967,-0.16157386,move
0.16887888,0.18597317,-0.9937539,-0.02603813,0.27068967,-0.16157386,move
-0.1886743,0.36472893,-0.6005831,-0.0388663,0.19066632,-0.12614368,move
-0.1886743,0.36472893,-0.6005831,-0.0388663,0.19066632,-0.12614368,move
-0.20581368,0.6618004,0.7501888,-0.011377365,-0.005421429,-0.021685716,move
-0.20581368,0.6618004,0.7501888,-0.011377365,-0.005421429,-0.021685716,move
-0.22335017,0.8759575,1.8068781,0.04665483,-0.010919216,0.086437434,move
-0.22335017,0.8759575,1.8068781,0.04665483,-0.010919216,0.086437434,move
-0.03696254,0.86777306,2.7458234,0.11690433,0.082543164,0.19883664,move
-0.03696254,0.86777306,2.7458234,0.11690433,0.082543164,0.19883664,move
-0.029641122,1.1274309,3.016539,0.27939448,0.15462527,0.32406402,move
-0.029641122,1.1274309,3.016539,0.27939448,0.15462527,0.32406402,move
-0.638122,2.2329822,1.576201,0.43883032,0.24258986,0.45234573,move
-0.638122,2.2329822,1.576201,0.43883032,0.24258986,0.45234573,move
-0.45779315,3.076181,-0.36074257,0.30443996,0.21326832,0.54336464,move
-0.45779315,3.076181,-0.36074257,0.30443996,0.21326832,0.54336464,move
-0.010400683,3.202806,0.17207861,-0.10056369,-0.097662084,0.47800204,move
-0.010400683,3.202806,0.17207861,-0.10056369,-0.097662084,0.47800204,move
0.76600045,1.822722,3.9402523,-0.10056369,-0.097662084,0.47800204,move
0.76600045,1.822722,3.9402523,-0.43165267,-0.5472589,0.33505958,move
0.7422765,0.10830021,6.972612,-0.34429893,-0.564974,0.17256944,move
0.7422765,0.10830021,6.972612,-0.34429893,-0.564974,0.17256944,move
-0.4318702,-1.2264576,5.284761,0.11873693,0.13507758,0.1695151,move
-0.4318702,-1.2264576,5.284761,0.11873693,0.13507758,0.1695151,move
-0.9231173,-1.58288,-0.20521784,0.44310638,0.87727886,0.33444872,move
-0.9231173,-1.58288,-0.20521784,0.44310638,0.87727886,0.33444872,move
-1.1517516,-1.1707268,-4.0631404,0.24335344,0.95974565,0.47800204,move
-1.1517516,-1.1707268,-4.0631404,0.24335344,0.95974565,0.47800204,move
-0.7759253,-0.7627144,-3.5084758,-0.15187638,0.24075727,0.54458636,move
-0.7759253,-0.7627144,-3.5084758,-0.15187638,0.24075727,0.54458636,move
0.029199496,-0.89682436,0.14675283,-0.30703613,-0.5625305,0.49571714,move
0.029199496,-0.89682436,0.14675283,-0.30703613,-0.5625305,0.49571714,move
0.058343176,-1.5264306,1.985467,-0.07735081,-0.52038085,0.3277292,move
0.058343176,-1.5264306,1.985467,-0.07735081,-0.52038085,0.3277292,move
-0.34248483,-2.2162886,1.1062517,0.030772336,-0.022525655,0.2843578,move
-0.34248483,-2.2162886,1.1062517,0.030772336,-0.022525655,0.2843578,move
-0.41876465,-2.3977306,-0.18009281,0.04665483,0.35498905,0.33078352,move
-0.41876465,-2.3977306,-0.18009281,0.04665483,0.35498905,0.33078352,move
0.17237842,-2.0173683,-1.821394,0.04665483,0.35498905,0.33078352,move
0.17237842,-2.0173683,-1.821394,0.13217597,0.3739259,0.39370266,move
0.52450085,-1.6764841,-2.3313165,0.20609066,0.16867517,0.38515055,move
0.52450085,-1.6764841,-2.3313165,0.20609066,0.16867517,0.38515055,move
0.7187693,-1.085979,-2.3691907,0.24029912,0.05261077,0.29168814,move
0.7187693,-1.085979,-2.3691907,0.24029912,0.05261077,0.29168814,move
0.3575138,-0.84984016,-2.5582967,0.16210836,0.16867517,0.14813483,move
0.3575138,-0.84984016,-2.5582967,0.16210836,0.16867517,0.14813483,move
-0.08833645,-0.7151532,-2.7013998,0.030161472,0.28840476,0.06994407,move
-0.08833645,-0.7151532,-2.7013998,0.030161472,0.28840476,0.06994407,move
-0.057296295,-0.4726591,-2.5109086,-0.011377365,0.17905988,0.060170226,move
-0.057296295,-0.4726591,-2.5109086,-0.011377365,0.17905988,0.060170226,move
0.14942397,-0.28818464,-1.9029708,0.032604933,-0.077503525,0.043066,move
0.14942397,-0.28818464,-1.9029708,0.032604933,-0.077503525,0.043066,move
0.053384095,-0.2409668,-1.1368489,0.02405282,-0.20395264,-0.008246681,move
0.053384095,-0.2409668,-1.1368489,0.02405282,-0.20395264,-0.008246681,move
-0.042963527,-0.055209637,0.114123344,-0.046196684,-0.18135062,-0.019242255,move
-0.042963527,-0.055209637,0.114123344,-0.046196684,-0.18135062,-0.019242255,move
0.3454653,0.525805,0.9829817,-0.009544769,-0.06895141,-0.028405234,move
0.3454653,0.525805,0.9829817,-0.009544769,-0.06895141,-0.028405234,move
0.46373105,1.0183601,1.380641,0.099189244,-0.08239045,-0.109650314,move
0.46373105,1.0183601,1.380641,0.099189244,-0.08239045,-0.109650314,move
0.1484145,1.0724916,1.7566066,0.21586451,-0.19540052,-0.21410827,move
0.1484145,1.0724916,1.7566066,0.21586451,-0.19540052,-0.21410827,move
0.041658297,1.0292969,2.1127257,0.2671772,-0.27603474,-0.26236662,move
0.041658297,1.0292969,2.1127257,0.2671772,-0.27603474,-0.26236662,move
-0.1709072,1.2028275,2.5129342,0.24152085,-0.2186134,-0.2751948,move
-0.1709072,1.2028275,2.5129342,0.24152085,-0.2186134,-0.2751948,move
-0.47765142,1.7126155,1.2464314,0.24152085,-0.2186134,-0.2751948,move
-0.47765142,1.7126155,1.2464314,0.14683673,0.09048442,-0.23365596,move
0.22661066,1.7851329,0.38618708,0.14683673,0.09048442,-0.23365596,move
0.22661066,1.7851329,0.38618708,-0.120111376,-0.0048105638,-0.23487769,move
0.49656743,1.6555805,2.1474175,-0.37362045,-0.34567338,-0.31673363,move
0.49656743,1.6555805,2.1474175,-0.37362045,-0.34567338,-0.31673363,move
0.61613953,0.7166004,3.6864676,-0.46891543,-0.43608144,-0.3662137,move
0.61613953,0.7166004,3.6864676,-0.46891543,-0.43608144,-0.3662137,move
0.9784549,-0.10280466,4.8238587,-0.48479792,-0.28764117,-0.37904188,move
0.9784549,-0.10280466,4.8238587,-0.48479792,-0.28764117,-0.37904188,move
0.23136838,-0.72773886,4.8402004,-0.24656048,0.10514518,-0.3594942,move
0.23136838,-0.72773886,4.8402004,-0.24656048,0.10514518,-0.3594942,move
0.23136838,-0.72773886,4.8402004,0.122402124,0.45028403,-0.23182335,move
-0.12199235,-1.1037269,1.6020889,0.122402124,0.45028403,-0.23182335,move
0.078893796,-1.1044555,-1.5902586,0.19937114,0.46861,-0.098043874,move
0.078893796,-1.1044555,-1.5902586,0.19937114,0.46861,-0.098043874,move
0.18735886,-1.4187975,-2.1246018,0.068645984,0.15157095,-0.016187929,move
