accelX,accelY,accelZ,label
-0.148,-0.582,2.17,1
-0.007,-0.549,1.611,0
0.132,-0.447,1.523,0
0.128,-0.153,1.367,0
0.183,-0.027,1.18,0
0.182,0.108,1.027,0
0.142,0.184,0.875,0
0.328,-0.063,0.667,0
0.625,-0.364,0.711,0
0.919,-0.852,1.27,0
1.037,-1.101,1.895,0
1.142,-1.337,2.827,0
0.913,-1.361,3.011,0
0.54,-1.397,2.494,0
0.546,-1.396,1.681,0
0.674,-1.242,0.244,0
0.704,-1.114,-0.394,0
0.58,-1.02,-1.001,0
0.378,-1.058,-1.053,0
0.074,-1.157,-0.698,0
0.007,-1.254,-0.244,0
-0.025,-1.415,0.193,0
-0.007,-1.38,0.243,0
0.179,-1.281,0.209,0
0.393,-1.168,0.072,0
0.381,-1.166,0.07,0
0.96,-0.781,-0.706,0
0.946,-0.686,-0.752,0
0.916,-0.652,-0.638,0
0.597,-0.688,-0.483,0
0.347,-0.717,-0.421,0
0.283,-0.599,-0.501,0
0.418,-0.442,-0.783,0
0.485,-0.224,-1.255,0
0.61,-0.09,-1.477,0
0.895,0.147,-1.914,0
0.957,0.22,-2.119,0
0.928,0.372,-2.205,0
0.907,0.396,-1.954,0
0.808,0.269,-1.009,0
0.783,0.196,-0.424,0
0.604,0.022,0.319,0
0.462,-0.071,0.654,0
0.447,-0.181,0.879,0
0.537,-0.099,0.852,0
0.772,0.095,0.77,0
0.742,0.105,0.729,0
0.527,0.138,0.641,0
0.381,0.123,0.731,0
0.124,0.092,0.949,0
0.037,0.107,1.221,0
0.068,0.176,1.943,0
0.09,0.2,2.355,0
0.044,0.382,2.877,0
0.017,0.465,3.016,0
0.01,0.645,2.743,0
0.14,0.632,2.139,1
0.317,0.414,1.227,0
0.153,0.311,1.106,0
-0.398,0.148,1.393,0
-0.746,0.008,1.554,0
-1.116,-0.145,1.577,0
-1.145,-0.197,1.48,0
-0.893,-0.223,1.122,0
-0.544,-0.276,0.811,0
0.129,-0.539,0.625,0
0.476,-0.709,0.781,0
0.645,-0.974,1.205,0
0.614,-1.04,1.308,0
0.36,-1.18,1.112,0
0.193,-1.257,0.803,0
-0.125,-1.389,0.177,0
-0.21,-1.404,-0.046,0
-0.213,-1.388,-0.053,0
-0.129,-1.155,-0.535,0
0.189,-0.966,-0.732,0
0.446,-0.929,-0.884,0
0.886,-0.841,-1.132,0
1.08,-0.805,-1.21,0
1.116,-0.844,-1.108,0
0.935,-0.953,-0.79,0
0.52,-1.092,-0.309,0
0.306,-1.145,-0.265,0
0.121,-1.148,-0.627,0
0.068,-1.092,-1.048,0
0.069,-1.014,-1.792,0
0.156,-0.884,-2.208,0
0.523,-0.444,-2.507,0
0.65,-0.264,-2.268,0
0.649,-0.15,-1.729,0
0.555,-0.049,-1.406,0
0.252,-0.012,-0.851,0
0.092,-0.099,-0.8,0
-0.165,-0.145,-1.081,0
-0.235,-0.137,-1.311,0
-0.241,-0.123,-1.539,0
-0.254,-0.092,-1.447,0
-0.042,0.019,-0.87,0
0.181,0.264,-0.266,0
0.365,0.337,0.531,0
0.321,0.332,0.786,0
0.077,0.218,0.879,0
-0.135,0.112,0.82,0
-0.298,0.044,0.917,0
-0.32,0.029,0.878,0
-0.322,0.014,0.884,0
-0.015,0.137,0.806,0
0.383,0.208,0.911,0
0.602,0.294,1.367,0
0.902,0.337,2.164,0
0.96,0.372,2.709,1
0.614,0.342,3.105,0
0.396,0.275,2.892,0
0.279,-0.019,1.83,0
0.183,-0.187,1.368,0
-0.069,-0.319,1.116,0
-0.131,-0.245,1.163,0
-0.153,-0.156,1.452,0
-0.001,-0.102,1.567,0
0.532,0.021,1.456,0
1.017,0.055,1.204,0
1.859,0.062,0.843,0
2.096,0.053,0.812,0
1.939,-0.262,1.368,0
1.634,-0.52,1.892,0
1.112,-1.039,2.536,0
0.768,-1.244,2.423,0
0.18,-1.621,1.908,0
0.049,-1.714,1.487,0
0.109,-1.638,0.802,0
0.134,-1.556,0.37,0
0.062,-1.465,-0.202,0
0.142,-1.413,-0.565,0
0.341,-1.35,-0.975,0
0.397,-1.296,-1.198,0
0.399,-1.291,-1.2,0
0.579,-1.184,-0.991,0
0.525,-1.131,-0.427,0
0.489,-1.095,-0.162,0
0.641,-0.903,-0.069,0
0.768,-0.7,-0.255,0
0.99,-0.382,-0.878,0
1.049,-0.268,-1.299,0
1.15,-0.11,-2.155,0
1.086,0,-2.478,0
0.963,0.103,-2.76,0
0.843,0.08,-2.703,0
0.349,-0.028,-1.89,0
0.221,-0.084,-1.243,0
0.128,-0.158,-0.404,0
0.178,-0.174,-0.217,0
0.321,-0.121,-0.295,0
0.335,-0.122,-0.45,0
0.589,-0.078,-0.964,0
0.846,0.117,-1.163,0
1.098,0.233,-1.032,0
1.233,0.213,-0.764,0
1.135,0.218,0.032,0
0.93,0.157,0.573,0
0.609,-0.005,1.351,0
0.386,-0.048,1.493,0
0.026,-0.159,1.438,0
0.035,-0.079,1.403,0
0.086,0.084,1.393,0
0.195,0.189,1.273,0
0.533,0.301,1.153,0
0.791,0.361,1.151,0
0.909,0.453,1.488,0
0.771,0.485,1.861,0
0.668,0.415,2.176,0
0.663,0.239,2.219,1
0.395,0.182,2.284,0
0.1,0.146,2.276,0
-0.424,0.087,1.805,0
-0.696,0.042,1.322,0
-0.764,0.133,0.551,0
-0.49,0.191,0.182,0
-0.494,0.199,0.178,0
0.782,-0.154,0.312,0
1.312,-0.629,1.372,0
1.306,-0.86,1.965,0
0.795,-1.231,2.294,0
0.325,-1.342,2.329,0
-0.321,-1.622,2.212,0
-0.353,-1.738,1.802,0
-0.165,-1.509,0.702,0
-0.068,-1.247,0.14,0
0.185,-0.869,-0.845,0
0.385,-0.639,-1.239,0
0.822,-0.54,-1.207,0
1.056,-0.613,-1.016,0
1.047,-0.684,-0.391,0
0.944,-0.765,0.057,0
0.921,-0.754,0.05,0
0.719,-0.928,-0.089,0
0.755,-0.724,-0.818,0
0.691,-0.661,-1.149,0
0.644,-0.544,-1.686,0
0.772,-0.412,-1.963,0
0.874,-0.183,-2.076,0
0.84,-0.119,-1.882,0
0.681,-0.077,-1.432,0
0.556,-0.019,-1.208,0
0.281,-0.046,-1.079,0
0.12,-0.108,-1.132,0
-0.038,-0.115,-1.168,0
-0.04,-0.224,-1.287,0
-0.076,-0.167,-1.383,0
-0.054,-0.161,-1.278,0
0.027,-0.189,-0.938,0
-0.007,-0.178,-0.682,0
0.036,-0.082,-0.287,0
0.128,-0.013,0.037,0
0.167,-0.114,0.427,0
0.15,-0.11,0.464,0
-0.019,-0.224,0.151,0
0.033,-0.209,-0.017,0
0.201,-0.201,-0.112,0
0.302,-0.225,0.084,0
0.464,-0.326,0.675,0
0.679,-0.328,1.066,0
0.735,-0.369,2.233,0
0.85,-0.454,3.085,0
0.888,-0.55,3.682,0
0.68,-0.436,3.297,0
0.569,-0.295,1.546,0
0.551,-0.335,0.514,1
0.503,-0.274,-0.074,0
0.488,-0.19,0.193,0
0.582,-0.019,1.087,0
0.687,0.077,1.573,0
1.058,0.181,1.793,0
1.269,0.234,1.594,0
1.605,0.06,0.542,0
1.866,-0.131,-0.043,0
1.948,-0.445,-0.287,0
1.853,-0.69,0.254,0
1.837,-0.644,0.231,0
1.525,-0.984,1.875,0
1.044,-1.379,2.389,0
0.664,-1.607,2.69,0
0.257,-1.977,2.811,0
0.141,-1.932,2.66,0
0.2,-1.789,1.979,0
0.329,-1.713,1.249,0
0.532,-1.542,0.201,0
0.685,-1.392,-0.478,0
1.006,-1.06,-1.102,0
1.115,-0.876,-1.218,0
1.115,-0.692,-0.892,0
1.077,-0.668,-0.662,0
0.946,-0.573,-0.309,0
0.885,-0.518,-0.31,0
0.892,-0.514,-0.311,0
0.894,-0.321,-0.851,0
0.894,-0.339,-0.844,0
1.055,-0.095,-1.17,0
1.148,0.043,-1.518,0
1.157,0.119,-1.708,0
1.13,0.153,-1.845,0
1.077,0.137,-1.852,0
0.933,0.114,-1.715,0
0.814,0.067,-1.514,0
0.642,-0.103,-0.745,0
0.601,-0.156,-0.249,0
0.57,-0.144,0.121,0
0.683,-0.034,0.156,0
0.967,0.126,0.354,0
1.091,0.179,0.42,0
1.31,0.305,0.23,0
1.369,0.374,0.098,0
1.316,0.431,-0.086,0
1.2,0.439,-0.038,0
0.849,0.33,0.272,0
0.637,0.222,0.529,0
0.349,0.119,0.864,0
0.243,0.11,1.131,0
0.316,0.087,1.705,0
0.361,-0.022,1.925,0
0.519,0.173,2.545,0
0.677,0.452,3.132,0
0.783,0.672,3.684,0
0.896,0.638,3.423,1
0.995,0.502,2.321,0
0.767,0.418,1.698,0
0.119,0.361,0.885,0
-0.105,0.282,0.519,0
-0.492,0.328,-0.099,0
-0.505,0.262,-0.312,0
-0.215,0.054,-0.674,0
0.244,-0.14,-0.764,0
1.21,-0.474,-0.172,0
1.538,-0.686,0.746,0
1.49,-1.272,2.512,0
1.071,-1.51,3.091,0
0.359,-1.66,2.866,0
0.057,-1.724,1.903,0
-0.042,-1.914,0.131,0
-0.116,-1.753,-0.496,0
-0.049,-1.398,-0.643,0
0.142,-1.272,-0.473,0
0.546,-0.923,-0.096,0
0.926,-0.697,-0.036,0
1.481,-0.434,-0.282,0
1.579,-0.445,-0.542,0
1.534,-0.522,-1.055,0
1.503,-0.575,-1.253,0
1.461,-0.628,-1.449,0
1.339,-0.67,-1.393,0
1.007,-0.745,-1.067,0
0.861,-0.721,-0.845,0
0.653,-0.68,-0.929,0
0.505,-0.656,-1.094,0
0.441,-0.519,-1.294,0
0.575,-0.365,-1.337,0
0.8,-0.138,-1.305,0
0.971,-0.012,-1.274,0
1.09,0.137,-1.03,0
1.085,0.127,-0.794,0
0.915,0.114,-0.611,0
0.805,0.103,-0.563,0
0.703,0.065,-0.593,0
0.587,-0.036,-0.555,0
0.462,-0.018,-0.314,0
0.555,-0.018,-0.134,0
0.754,0.116,-0.061,0
0.77,0.105,-0.084,0
0.854,0.149,-0.103,0
0.851,0.112,-0.131,0
0.588,0.003,-0.101,0
0.512,-0.011,-0.09,0
0.399,-0.016,0.12,0
0.331,-0.058,0.362,0
0.411,-0.127,0.566,0
0.497,-0.139,0.825,0
0.501,-0.146,0.828,0
0.722,-0.067,2.062,0
0.838,0.087,2.645,0
0.925,0.111,2.682,0
0.938,0.018,2.037,0
0.835,-0.111,1.712,1
0.848,-0.128,1.72,0
0.226,-0.263,1.48,0
0.155,-0.063,1.405,0
0.191,0.002,1.221,0
0.441,0.002,0.945,0
0.899,-0.075,0.675,0
2.003,-0.07,0.427,0
2.431,-0.055,0.802,0
2.414,-0.022,0.786,0
1.857,-0.861,2.645,0
1.003,-1.182,2.733,0
0.682,-1.327,2.469,0
0.349,-1.536,1.752,0
0.402,-1.504,1.212,0
0.639,-1.338,0.122,0
0.705,-1.131,-0.363,0
0.714,-1.011,-0.641,0
0.876,-0.946,-0.729,0
1.21,-0.7,-0.762,0
1.242,-0.647,-0.756,0
1.071,-0.754,-0.783,0
0.969,-0.779,-0.805,0
0.886,-0.772,-0.794,0
0.89,-0.758,-0.798,0
1.007,-0.616,-0.804,0
1.108,-0.512,-0.766,0
1.362,-0.304,-0.955,0
1.446,-0.11,-1.176,0
1.468,0.039,-1.295,0
1.343,0.081,-1.347,0
1.041,0.172,-1.394,0
0.855,0.177,-1.372,0
0.685,0.147,-1.243,0
0.683,0.157,-1.178,0
0.72,0.129,-1.055,0
0.784,0.145,-0.9,0
0.779,0.138,-0.898,0
1.113,0.185,-0.555,0
1.198,0.285,-0.413,0
1.208,0.279,-0.143,0
1.181,0.19,0.314,0
1.113,0.191,0.454,0
0.817,0.182,0.499,0
0.77,0.191,0.407,0
0.597,0.244,0.215,0
0.54,0.32,0.138,0
0.603,0.454,0.105,0
0.621,0.523,0.191,0
0.544,0.557,0.524,0
0.604,0.572,0.77,0
0.698,0.518,1.285,0
0.716,0.341,1.666,0
0.829,0.394,2.381,0
0.763,0.514,2.809,0
0.438,0.477,2.867,0
0.452,0.364,2.545,1
0.365,0.332,1.821,0
0.145,0.345,1.401,0
-0.188,0.428,0.558,0
-0.322,0.395,0.026,0
-0.242,0.276,-0.443,0
-0.355,0.183,-0.531,0
-0.477,-0.223,-0.192,0
-0.361,-0.578,0.555,0
0.372,-0.901,1.748,0
0.926,-0.877,2.318,0
1.357,-0.945,3.013,0
1.336,-0.941,2.893,0
0.973,-1.01,1.609,0
0.606,-1.047,0.558,0
0.305,-0.993,-0.563,0
0.316,-0.983,-0.789,0
0.216,-0.813,-1.085,0
0.169,-0.711,-0.971,0
0.499,-0.58,-0.466,0
0.797,-0.5,-0.249,0
1.194,-0.364,-0.39,0
1.231,-0.364,-0.671,0
1.158,-0.442,-1.029,0
0.977,-0.61,-1.09,0
0.968,-0.599,-1.095,0
0.34,-0.894,-0.523,0
0.423,-0.885,-0.243,0
0.614,-0.727,-0.278,0
0.836,-0.427,-0.402,0
0.959,-0.318,-0.686,0
1.124,-0.017,-1.149,0
1.219,0.093,-1.182,0
1.138,0.151,-1.291,0
0.927,0.12,-1.404,0
0.55,-0.006,-1.543,0
0.47,-0.015,-1.622,0
0.397,0.023,-1.533,0
0.435,0.108,-1.335,0
0.505,0.221,-0.989,0
0.583,0.314,-0.769,0
0.737,0.331,-0.577,0
0.645,0.323,-0.492,0
0.493,0.199,-0.538,0
0.418,0.139,-0.469,0
0.31,0.086,-0.114,0
0.264,0.091,0.149,0
0.179,0.009,0.405,0
0.195,0.03,0.456,0
0.415,0.167,0.852,0
0.464,0.263,1.159,0
0.745,0.412,1.189,0
0.801,0.46,1.275,0
0.867,0.388,1.538,0
0.81,0.429,1.76,0
0.512,0.514,1.944,0
0.47,0.458,1.743,0
0.65,0.303,1.103,0
0.738,0.227,0.853,1
0.761,0.22,0.859,0
0.818,0.332,0.492,0
1.186,0.451,0.327,0
1.656,0.658,0.061,0
1.964,0.681,0.287,0
2.157,0.413,0.689,0
2.138,0.45,0.673,0
1.856,-0.544,2.831,0
1.208,-1.194,4.24,0
0.782,-1.418,4.586,0
0.412,-1.546,3.84,0
0.369,-1.397,2.971,0
0.498,-1.113,1.277,0
0.668,-0.881,0.407,0
0.919,-0.453,-0.76,0
0.937,-0.344,-0.888,0
0.902,-0.543,-0.666,0
0.929,-0.584,-0.501,0
0.884,-0.75,-0.172,0
0.743,-0.859,-0.021,0
0.45,-1.081,-0.034,0
0.32,-1.094,-0.417,0
0.462,-0.824,-1.234,0
0.6,-0.566,-1.497,0
0.617,-0.57,-1.493,0
1.187,0.035,-1.898,0
1.281,0.35,-2.192,0
1.086,0.374,-2.059,0
0.597,0.078,-1.305,0
0.272,-0.092,-0.943,0
-0.061,-0.181,-0.483,0
0.024,-0.153,-0.489,0
0.499,0.182,-0.81,0
0.903,0.426,-0.972,0
1.51,0.756,-1.289,0
1.677,0.9,-1.353,0
1.442,0.897,-1.187,0
1.05,0.694,-0.87,0
0.673,0.401,-0.319,0
0.661,0.381,0.008,0
0.672,0.378,0.743,0
0.626,0.403,1.257,0
0.521,0.442,1.85,0
0.498,0.517,1.972,0
0.858,0.709,1.47,0
0.941,0.804,0.885,0
0.948,0.782,0.893,0
0.882,0.862,0.009,0
0.756,0.879,0.66,0
0.732,0.729,1.087,0
0.704,0.703,1.092,0
0.663,0.566,1.779,0
0.718,0.754,1.892,0
0.953,0.907,1.698,0
1.556,0.91,0.983,0
1.665,0.88,0.623,1
1.348,0.914,0.369,0
0.953,0.851,0.333,0
0.625,0.52,0.122,0
0.455,0.301,0.125,0
0.259,0.03,0.425,0
0.247,-0.133,0.444,0
0.504,-0.379,0.606,0
0.76,-0.537,1.024,0
1.214,-0.605,2.116,0
1.464,-0.518,2.521,0
1.559,-0.52,2.404,0
1.375,-0.658,1.925,0
0.96,-0.86,0.81,0
0.824,-0.841,0.396,0
0.593,-0.966,0.182,0
0.319,-1.005,0.098,0
0.083,-0.976,0.033,0
0.136,-0.917,-0.019,0
0.21,-0.827,-0.285,0
0.339,-0.697,-0.631,0
0.559,-0.561,-1.212,0
0.622,-0.499,-1.667,0
0.594,-0.325,-2.341,0
0.65,-0.308,-2.652,0
0.928,-0.196,-2.906,0
1.03,-0.155,-2.725,0
1.016,-0.151,-2.728,0
1.075,0.025,-1.025,0
0.889,0.044,-0.253,0
0.717,0.077,-0.282,0
0.492,0.069,-0.739,0
0.431,0.038,-1.054,0
0.379,0.085,-1.43,0
0.398,0.116,-1.454,0
0.432,0.075,-1.112,0
0.377,0.048,-0.859,0
0.317,0.088,-0.518,0
0.352,0.1,-0.358,0
0.344,0.149,-0.264,0
0.313,0.159,-0.267,0
0.347,0.181,-0.461,0
0.412,0.236,-0.547,0
0.471,0.288,-0.497,0
0.508,0.331,-0.26,0
0.425,0.377,0.341,0
0.387,0.432,0.536,0
0.223,0.402,0.703,0
0.11,0.426,0.713,0
0.075,0.444,0.584,0
0.24,0.43,0.464,0
0.692,0.628,0.386,0
0.88,0.766,0.718,0
0.992,0.877,1.356,0
0.8,0.854,1.643,0
0.798,0.855,1.642,0
0.183,0.274,1.69,1
0.011,0.134,2.178,0
-0.041,0.14,2.444,0
0.079,0.294,2.319,0
0.296,0.397,1.929,0
0.296,0.382,1.934,0
0.797,0.679,0.769,0
1.549,0.85,0.492,0
1.98,0.89,0.434,0
2.472,0.873,0.448,0
2.363,0.656,0.716,0
1.727,-0.118,1.462,0
1.298,-0.606,1.771,0
0.633,-1.102,2.032,0
0.263,-1.395,1.813,0
0.021,-1.559,0.698,0
0.064,-1.488,0.015,0
0.446,-1.361,-1.14,0
0.7,-1.237,-1.918,0
0.734,-1.236,-1.914,0
1.147,-1.08,-2.911,0
1.083,-1.086,-2.436,0
0.896,-1.156,-1.657,0
0.422,-1.363,-0.394,0
0.217,-1.269,0.112,0
0.343,-1.018,0.375,0
0.492,-0.75,0.146,0
0.954,-0.135,-0.932,0
1.136,0.142,-1.428,0
1.265,0.407,-1.922,0
1.361,0.509,-2.153,0
1.442,0.727,-2.1,0
1.412,0.757,-1.786,0
1.148,0.585,-1.076,0
1.029,0.528,-0.753,0
0.809,0.414,-0.64,0
0.658,0.349,-0.699,0
0.776,0.469,-0.795,0
1,0.63,-0.783,0
1.234,0.706,-0.658,0
1.249,0.768,-0.481,0
1.171,0.718,-0.063,0
1.078,0.648,0.134,0
1.087,0.666,0.13,0
0.666,0.55,0.713,0
0.504,0.488,1.085,0
0.536,0.533,1.306,0
0.556,0.635,1.798,0
0.637,0.69,2.064,0
0.872,0.811,2.267,0
0.886,0.811,2.311,0
0.902,0.684,2.319,0
0.85,0.652,2.167,1
0.81,0.682,1.699,0
0.776,0.665,1.372,0
0.812,0.451,1.121,0
0.733,0.427,1.208,0
0.336,0.386,1.712,0
0.186,0.344,1.72,0
0.19,0.349,1.359,0
0.533,0.446,1.144,0
0.97,0.528,1.019,0
0.982,0.411,1.077,0
0.826,-0.183,1.365,0
0.64,-0.542,1.595,0
0.535,-0.797,2.132,0
0.567,-0.847,2.478,0
0.867,-0.793,2.277,0
1.042,-0.701,1.634,0
0.905,-0.709,0.54,0
0.802,-0.797,0.238,0
0.405,-0.945,-0.07,0
0.075,-1.034,-0.064,0
-0.19,-1.126,-0.032,0
-0.221,-1.114,-0.099,0
-0.171,-0.955,-0.25,0
0.028,-0.837,-0.305,0
0.478,-0.569,-0.153,0
0.754,-0.451,-0.104,0
1.108,-0.278,-0.529,0
1.237,-0.14,-1.016,0
1.245,-0.165,-1.008,0
1.073,-0.028,-1.862,0
0.845,-0.163,-2.162,0
0.68,-0.189,-2.192,0
0.341,-0.203,-2.042,0
0.255,-0.199,-1.809,0
0.341,-0.109,-1.341,0
0.393,-0.03,-1.011,0
0.529,0.136,-1.038,0
0.512,0.226,-1.381,0
0.37,0.232,-1.847,0
0.234,0.139,-1.883,0
0.049,0.173,-1.527,0
-0.101,0.081,-1.029,0
-0.178,0.03,-0.34,0
-0.158,0.105,-0.032,0
0.13,0.153,0.22,0
0.232,0.17,0.065,0
0.196,0.28,-0.497,0
0.123,0.25,-0.684,0
0.07,0.42,-0.766,0
0.128,0.522,-0.567,0
0.155,0.598,-0.068,0
0.131,0.592,0.41,0
0.141,0.478,1.119,0
0.156,0.334,1.307,0
0.088,0.021,1.636,0
-0.092,-0.115,1.774,0
-0.393,-0.091,1.418,0
-0.462,0.014,1.064,0
-0.442,-0.013,1.077,0
-0.236,0.237,0.324,0
0.225,0.67,0.299,0
0.475,0.876,0.529,1
0.782,1.028,0.85,0
0.944,1.002,0.844,0
0.984,0.496,1.074,0
1.031,0.04,1.22,0
1.045,-0.578,1.49,0
0.959,-0.821,1.731,0
0.57,-0.985,2.094,0
0.412,-0.97,2.081,0
0.403,-0.959,1.541,0
0.456,-0.873,0.948,0
0.589,-0.692,-0.08,0
0.657,-0.571,-0.526,0
0.707,-0.548,-0.727,0
0.755,-0.566,-0.732,0
0.88,-0.623,-1.076,0
0.901,-0.657,-1.535,0
0.844,-0.824,-2.13,0
0.707,-0.948,-2.138,0
0.656,-1.068,-1.43,0
0.761,-1.026,-1.143,0
0.903,-0.809,-0.504,0
0.901,-0.642,-0.134,0
0.869,-0.497,0.41,0
0.861,-0.373,0.423,0
0.835,-0.108,-0.084,0
0.823,-0.085,-0.543,0
0.748,-0.057,-1.236,0
0.59,0.034,-1.245,0
0.452,0.14,-1.021,0
0.544,0.318,-1.192,0
0.659,0.812,-1.244,0
0.834,0.983,-1.198,0
1.006,1.207,-1.141,0
0.911,1.198,-1.07,0
0.477,0.945,-0.654,0
0.291,0.773,-0.16,0
0.306,0.787,-0.163,0
0.026,0.402,0.841,0
-0.04,0.268,0.932,0
0.025,0.213,0.712,0
0.044,0.202,0.717,0
0.281,0.613,-0.073,0
0.426,0.691,-0.38,0
0.33,0.744,-0.277,0
0.287,0.762,0.192,0
0.36,0.756,0.551,0
0.35,0.687,1.116,0
0.191,0.51,1.477,0
-0.147,0.257,1.996,0
-0.113,0.247,2.012,0
0.173,0.507,1.665,0
0.273,0.563,1.257,1
0.537,0.564,0.882,0
0.696,0.745,1.016,0
0.76,0.922,1.706,0
0.737,0.953,2.032,0
0.545,0.592,2.234,0
0.32,0.356,2.078,0
0.053,-0.059,1.8,0
0.23,-0.34,1.777,0
0.759,-0.625,1.946,0
0.919,-0.707,2.143,0
1.076,-0.691,2.087,0
1.1,-0.659,1.744,0
0.955,-0.659,0.88,0
0.794,-0.714,0.267,0
0.532,-0.885,-0.235,0
0.321,-0.99,-0.045,0
0.135,-1.045,0.264,0
0.151,-0.953,0.298,0
0.596,-0.654,0.08,0
0.941,-0.454,-0.226,0
1.34,-0.141,-0.66,0
1.469,-0.035,-0.827,0
1.548,-0.08,-1.195,0
1.471,-0.15,-1.357,0
1.304,-0.33,-1.246,0
1.185,-0.429,-1.036,0
0.791,-0.551,-0.926,0
0.723,-0.525,-0.888,0
0.734,-0.334,-0.753,0
0.721,-0.16,-0.819,0
0.814,0.211,-1.237,0
0.999,0.537,-1.597,0
1.312,0.813,-2.135,0
1.419,0.9,-2.319,0
1.315,0.87,-2.283,0
1.089,0.705,-1.919,0
0.751,0.404,-1.029,0
0.6,0.296,-0.504,0
0.381,0.354,0.171,0
0.29,0.366,0.495,0
0.276,0.484,0.117,0
0.425,0.646,-0.511,0
0.803,0.958,-1.562,0
0.822,0.936,-1.553,0
1.316,1.24,-1.483,0
1.138,1.173,-0.844,0
0.654,0.916,0.352,0
0.409,0.771,0.899,0
0.193,0.51,1.211,0
0.189,0.5,1.214,0
0.362,0.273,1.133,0
0.577,0.316,1.305,0
0.785,0.597,1.822,0
0.834,0.773,2.18,0
0.867,0.993,2.21,0
0.813,0.955,1.882,1
0.521,0.741,1.322,0
0.227,0.608,1.299,0
-0.273,0.398,1.613,0
-0.442,0.219,1.655,0
-0.46,0.197,1.66,0
-0.193,0.134,1.278,0
0.644,0.013,1.027,0
1.12,-0.011,1.2,0
1.689,-0.238,2.187,0
1.891,-0.376,3.018,0
1.635,-0.56,3.546,0
1.146,-0.835,3.269,0
0.638,-1.141,1.926,0
0.366,-1.293,1.153,0
0.091,-1.525,-0.115,0
-0.141,-1.543,-0.65,0
-0.305,-1.505,-1.208,0
-0.112,-1.369,-1.559,0
0.377,-0.903,-1.857,0
0.783,-0.677,-1.688,0
1.244,-0.452,-0.943,0
1.2,-0.395,-0.497,0
0.802,-0.637,-0.034,0
0.56,-0.775,-0.01,0
0.227,-0.823,-0.264,0
0.185,-0.803,-0.483,0
0.431,-0.597,-1.084,0
0.619,-0.408,-1.363,0
0.621,-0.234,-1.469,0
0.54,-0.117,-1.413,0
0.551,-0.129,-1.408,0
0.531,0.232,-1.936,0
0.652,0.441,-2.348,0
0.771,0.536,-2.473,0
0.819,0.704,-2.647,0
0.695,0.602,-2.526,0
0.336,0.322,-1.768,0
0.186,0.273,-1.282,0
-0.001,0.104,-0.442,0
-0.101,0.075,-0.057,0
-0.058,0.131,0.541,0
0.101,0.204,0.655,0
0.346,0.426,0.425,0
0.574,0.669,0.079,0
0.891,0.962,-0.429,0
0.93,1.053,-0.373,0
0.733,1.003,0.128,0
0.592,0.93,0.631,0
0.383,0.854,1.145,0
0.394,0.762,1.35,0
0.36,0.588,1.454,0
0.359,0.495,1.532,0
0.374,0.306,1.666,0
0.274,0.366,1.87,0
0.098,0.59,2.297,0
0.167,0.602,2.196,1
0.474,0.613,1.872,0
0.616,0.687,1.814,0
0.546,0.853,1.402,0
0.402,0.932,0.951,0
0.32,0.808,-0.007,0
0.31,0.669,-0.554,0
0.275,0.511,-1.037,0
0.365,0.331,-0.988,0
0.538,-0.138,-0.376,0
0.557,-0.563,0.596,0
0.727,-0.9,1.944,0
0.83,-0.852,2.51,0
0.729,-0.98,2.788,0
0.763,-0.91,2.221,0
0.825,-0.794,0.634,0
0.79,-0.838,-0.168,0
0.683,-0.949,-1.042,0
0.62,-0.916,-1.134,0
0.473,-0.977,-0.961,0
0.374,-1.02,-0.72,0
0.452,-0.946,-0.192,0
0.612,-0.827,0.237,0
0.9,-0.61,0.498,0
1.034,-0.46,0.323,0
1.363,-0.225,-0.115,0
1.505,-0.083,-0.47,0
1.56,0.07,-1.016,0
1.561,0.137,-1.395,0
1.37,0.107,-1.614,0
1.224,-0.01,-1.592,0
0.841,-0.22,-1.296,0
0.703,-0.297,-1.068,0
0.697,-0.295,-1.069,0
0.592,-0.201,-0.802,0
0.717,0.011,-0.651,0
0.838,0.189,-0.603,0
0.87,0.292,-0.712,0
0.94,0.409,-0.904,0
1.069,0.473,-1.087,0
1.043,0.456,-1.064,0
0.809,0.334,-0.889,0
0.629,0.262,-0.746,0
0.475,0.276,-0.561,0
0.55,0.405,-0.653,0
0.469,0.452,-0.703,0
0.463,0.519,-0.563,0
0.554,0.775,-0.315,0
0.606,0.804,-0.227,0
0.533,0.727,0.082,0
0.554,0.753,0.271,0
0.621,0.725,0.689,0
0.682,0.672,0.923,0
0.695,0.506,1.473,0
0.714,0.391,1.637,0
0.44,0.213,1.871,0
0.171,0.209,2.103,0
-0.129,0.178,1.918,0
-0.06,0.198,1.479,0
0.341,0.246,1.13,0
0.496,0.265,1.442,1
0.462,0.45,2.355,0
0.47,0.477,2.611,0
0.59,0.408,2.325,0
0.568,0.345,1.973,0
0.643,0.251,1.19,0
0.769,0.166,0.66,0
0.948,-0.02,0.285,0
1.032,-0.186,0.501,0
0.973,-0.452,1.195,0
0.86,-0.537,1.488,0
0.749,-0.652,1.189,0
0.747,-0.689,0.934,0
0.937,-0.752,0.026,0
1.01,-0.739,-0.547,0
0.928,-0.726,-0.74,0
0.885,-0.736,-0.713,0
0.806,-0.782,-0.637,0
0.747,-0.868,-0.525,0
0.65,-0.901,-0.122,0
0.649,-0.843,0.135,0
0.731,-0.738,0.484,0
0.797,-0.65,0.642,0
0.729,-0.501,0.293,0
0.673,-0.462,-0.186,0
0.742,-0.34,-1.02,0
0.825,-0.187,-1.367,0
0.862,0.037,-1.645,0
0.914,0.141,-1.798,0
1.11,0.414,-2.028,0
1.136,0.52,-2.101,0
0.976,0.564,-2.234,0
0.795,0.505,-2.174,0
0.806,0.501,-2.171,0
0.584,0.468,-1.516,0
0.481,0.471,-1.295,0
0.424,0.402,-1.114,0
0.455,0.394,-0.839,0
0.508,0.457,-0.765,0
0.525,0.487,-0.485,0
0.611,0.498,-0.312,0
0.769,0.488,-0.136,0
0.795,0.494,0.057,0
0.903,0.58,0.43,0
0.899,0.618,0.601,0
0.63,0.556,0.891,0
0.508,0.511,1.031,0
0.424,0.539,1.448,0
0.468,0.518,1.55,0
0.711,0.636,1.301,0
0.944,0.78,1.31,0
1.456,0.922,1.524,0
1.579,1.003,1.777,0
1.412,0.995,2.265,0
1.207,0.88,2.528,1
0.856,0.726,2.759,0
0.499,0.647,2.738,0
-0.169,0.521,2.156,0
-0.443,0.541,1.479,0
-0.446,0.516,1.487,0
-0.435,0.629,0.188,0
0.151,0.38,-0.327,0
0.584,0.146,-0.225,0
1.084,-0.434,1.319,0
1.232,-0.834,2.485,0
0.712,-1.403,3.878,0
0.173,-1.707,4.088,0
-0.367,-1.921,2.632,0
-0.313,-1.902,1.329,0
-0.138,-1.761,-0.711,0
-0.152,-1.563,-1.417,0
-0.148,-1.587,-1.408,0
0.462,-1.164,-2.067,0
0.828,-0.779,-1.871,0
1.007,-0.713,-1.674,0
1.068,-0.711,-1.386,0
0.948,-0.76,-1.145,0
0.669,-0.935,-0.815,0
0.454,-0.976,-0.529,0
0.323,-0.965,-0.155,0
0.375,-0.914,-0.219,0
0.456,-0.745,-0.607,0
0.6,-0.563,-0.857,0
0.695,-0.347,-1.127,0
0.709,-0.235,-1.314,0
0.779,0.07,-1.58,0
0.749,0.192,-1.614,0
0.721,0.283,-1.496,0
0.708,0.37,-1.237,0
0.694,0.467,-0.757,0
0.651,0.443,-0.604,0
0.439,0.422,-0.389,0
0.368,0.424,-0.273,0
0.311,0.478,-0.436,0
0.242,0.506,-0.55,0
0.204,0.544,-0.819,0
0.336,0.649,-0.941,0
0.582,0.777,-0.73,0
0.607,0.737,-0.539,0
0.331,0.664,-0.221,0
0.133,0.579,-0.152,0
-0.072,0.457,-0.048,0
0.006,0.539,0.159,0
0.257,0.57,0.499,0
0.349,0.559,0.587,0
0.288,0.433,0.958,0
0.263,0.28,1.41,0
0.403,0.259,2.092,0
0.414,0.247,2.348,0
0.221,0.239,2.25,0
0.075,0.289,1.851,1
0.084,0.256,1.864,0
0.074,0.072,0.838,0
0.111,0.028,1.025,0
0.236,0.124,1.514,0
0.488,0.205,1.998,0
0.437,0.148,1.919,0
0.277,0.006,1.296,0
0.395,-0.254,0.958,0
1.006,-0.436,1.036,0
1.292,-0.487,1.47,0
1.601,-0.563,2.57,0
1.257,-0.679,3.054,0
0.867,-0.907,2.962,0
0.638,-0.957,2.333,0
0.218,-1.164,1.109,0
0.128,-1.165,0.621,0
0.129,-1.049,-0.002,0
-0.001,-1.022,-0.292,0
-0.166,-0.983,-0.808,0
-0.028,-0.962,-1.302,0
0.369,-0.873,-1.865,0
0.479,-0.826,-1.802,0
0.557,-0.859,-0.828,0
0.544,-0.93,-0.183,0
0.371,-0.897,0.589,0
0.217,-0.944,0.93,0
0.076,-0.922,0.834,0
0.049,-0.85,0.312,0
0.184,-0.584,-1.137,0
0.312,-0.468,-1.797,0
0.649,-0.202,-2.626,0
0.887,0.039,-3.073,0
1.167,0.34,-3.358,0
1.199,0.411,-3.186,0
1.01,0.436,-2.495,0
0.838,0.333,-1.975,0
0.398,0.156,-1.454,0
0.228,0.09,-1.29,0
0.042,-0.033,-1.171,0
0.055,-0.029,-1.171,0
0.175,-0.001,-1.072,0
0.407,0.12,-1.078,0
0.406,0.119,-1.078,0
0.704,0.23,-0.495,0
0.428,0.142,0.088,0
0.186,0.101,0.329,0
0.193,0.118,0.324,0
-0.166,0.09,1.524,0
-0.017,0.15,1.459,0
0.159,0.286,1.205,0
0.502,0.489,0.942,0
0.726,0.618,0.93,0
0.953,0.707,1.036,0
0.86,0.749,1.306,0
0.537,0.627,1.982,0
0.284,0.521,2.172,0
0.095,0.435,2.248,0
0.066,0.413,2.209,1
-0.088,0.493,2.015,0
-0.085,0.482,2.02,0
-0.004,0.719,0.923,0
0.125,0.775,0.674,0
0.397,0.736,0.805,0
0.635,0.467,1.042,0
1.026,0.055,2.314,0
1.223,-0.22,3.126,0
0.95,-0.687,3.706,0
0.439,-0.987,3.613,0
-0.187,-1.36,2.424,0
-0.267,-1.404,1.454,0
-0.152,-1.433,-0.086,0
-0.105,-1.291,-0.757,0
-0.062,-1.206,-0.986,0
0.131,-1.019,-0.926,0
0.49,-0.668,-0.851,0
0.735,-0.534,-0.821,0
0.985,-0.515,-0.877,0
1.055,-0.538,-0.955,0
1.01,-0.724,-0.87,0
0.917,-0.874,-0.629,0
0.75,-1.138,-0.307,0
0.693,-1.129,-0.243,0
0.602,-1.166,-0.468,0
0.586,-1.059,-0.855,0
0.494,-0.816,-1.436,0
0.523,-0.665,-1.609,0
0.753,-0.261,-1.936,0
0.874,-0.028,-1.996,0
1.109,0.302,-1.964,0
1.178,0.385,-1.906,0
0.962,0.388,-1.539,0
0.651,0.225,-1.253,0
0.208,0.004,-1.165,0
0.028,-0.019,-1.169,0
-0.061,-0.133,-1.085,0
-0.04,-0.134,-1.071,0
0.125,0.039,-0.946,0
0.297,0.16,-0.732,0
0.673,0.432,-0.406,0
0.63,0.457,-0.241,0
0.467,0.41,0.166,0
0.34,0.316,0.439,0
0.189,0.2,0.797,0
0.019,0.121,0.929,0
-0.09,0.088,0.951,0
-0.204,0.035,1.08,0
-0.109,-0.014,1.248,0
0.078,-0.047,1.212,0
0.563,0.05,1.211,0
1.037,0.184,1.445,0
1.309,0.278,1.823,0
1.031,0.299,1.953,0
0.496,0.003,1.7,0
0.236,-0.245,1.463,1
-0.194,-0.429,1.712,0
-0.236,-0.353,1.986,0
-0.168,-0.189,1.962,0
-0.019,-0.104,1.692,0
0.46,0.138,1.035,0
0.77,0.147,0.563,0
1.581,0.125,0.165,0
1.985,0.093,0.465,0
1.949,-0.337,1.649,0
1.645,-0.565,2.218,0
0.885,-0.89,2.723,0
0.528,-1.007,2.51,0
0.3,-1.098,1.507,0
0.399,-0.956,0.632,0
1.01,-0.561,-0.636,0
1.279,-0.475,-1.215,0
1.391,-0.329,-1.617,0
1.486,-0.298,-1.443,0
1.386,-0.476,-0.646,0
1.146,-0.609,-0.117,0
0.883,-0.877,0.544,0
0.794,-0.883,0.704,0
0.568,-0.963,0.751,0
0.606,-0.944,0.479,0
0.857,-0.759,-0.36,0
0.966,-0.612,-0.713,0
1.239,-0.331,-1.065,0
1.445,-0.139,-1.327,0
1.553,0.089,-1.66,0
1.538,0.201,-1.816,0
1.164,0.172,-1.847,0
0.823,0.088,-1.732,0
0.854,0.092,-1.728,0
0.255,-0.028,-1.485,0
0.282,-0.023,-1.482,0
0.325,0.043,-1.228,0
0.679,0.265,-0.66,0
0.838,0.331,-0.307,0
1.103,0.466,-0.141,0
1.17,0.516,-0.116,0
1.186,0.413,0.09,0
1.108,0.386,0.359,0
1.111,0.393,0.357,0
0.767,0.136,0.916,0
0.446,0.154,1.429,0
0.344,0.106,1.674,0
0.369,0.218,1.546,0
0.393,0.332,1.327,0
0.605,0.409,0.842,0
0.729,0.481,0.673,0
0.87,0.538,0.713,0
0.835,0.455,0.973,0
0.678,0.415,1.761,0
0.534,0.434,2.061,0
0.462,0.385,1.929,0
0.472,0.192,1.755,1
0.382,0.257,1.792,0
0.272,0.363,1.833,0
0.261,0.349,1.836,0
0.261,0.47,1.064,0
0.373,0.513,0.854,0
0.46,0.42,0.843,0
0.445,0.432,0.836,0
0.867,-0.256,1.073,0
0.885,-0.937,2.086,0
0.82,-1.076,2.477,0
0.52,-1.216,2.777,0
0.403,-1.266,2.562,0
0.556,-1.05,1.427,0
0.659,-0.861,0.544,0
0.838,-0.719,-0.622,0
0.857,-0.651,-0.883,0
0.904,-0.623,-0.921,0
0.861,-0.649,-0.85,0
0.748,-0.827,-0.592,0
0.681,-0.946,-0.521,0
0.538,-1.117,-0.589,0
0.526,-1.151,-0.786,0
0.826,-1.009,-1.102,0
1.064,-0.781,-1.071,0
1.391,-0.424,-0.86,0
1.415,-0.309,-0.718,0
1.234,-0.184,-0.662,0
1.039,-0.175,-0.753,0
1.04,-0.177,-0.753,0
0.512,-0.312,-1.227,0
0.242,-0.421,-1.406,0
0.15,-0.437,-1.522,0
0.154,-0.254,-1.43,0
0.343,-0.07,-1.239,0
0.645,0.28,-0.997,0
0.726,0.441,-0.944,0
0.587,0.474,-0.888,0
0.385,0.381,-0.913,0
-0.075,0.135,-0.991,0
-0.198,0.087,-0.975,0
-0.204,-0.056,-0.863,0
-0.17,-0.061,-0.746,0
0.192,0.032,-0.386,0
0.403,0.196,0.026,0
0.636,0.429,0.716,0
0.634,0.423,0.717,0
0.554,0.398,0.791,0
0.39,0.365,0.523,0
0.185,0.27,0.424,0
0.134,0.211,0.502,0
0.299,0.073,0.512,0
0.384,-0.002,0.705,0
0.39,-0.015,0.711,0
0.302,-0.249,1.578,0
0.143,-0.158,1.881,0
0.172,-0.168,1.795,1
0.116,-0.19,1.38,0
0.201,-0.219,1.437,0
0.113,-0.286,1.949,0
0.057,-0.234,2.206,0
0.148,-0.283,2.153,0
0.174,-0.272,1.885,0
0.485,-0.212,0.922,0
0.989,-0.206,0.36,0
0.988,-0.21,0.362,0
2.369,-0.274,0.081,0
2.36,-0.252,0.071,0
1.686,-0.898,1.767,0
1.043,-1.326,2.121,0
0.817,-1.48,1.92,0
0.73,-1.6,1.177,0
0.789,-1.602,0.457,0
0.833,-1.479,-0.625,0
0.963,-1.381,-1.047,0
1.396,-1.279,-1.791,0
1.439,-1.17,-1.801,0
1.354,-1.165,-1.131,0
1.226,-1.138,-0.567,0
0.847,-1.234,0.137,0
0.644,-1.217,0.258,0
0.436,-1.127,0.274,0
0.502,-0.977,0.053,0
0.815,-0.541,-0.913,0
1.043,-0.204,-1.664,0
1.341,0.2,-2.406,0
1.475,0.431,-2.563,0
1.532,0.637,-2.454,0
1.329,0.69,-2.147,0
0.74,0.493,-1.411,0
0.371,0.33,-1.032,0
-0.033,0.198,-0.724,0
-0.084,0.18,-0.692,0
0.176,0.25,-0.626,0
0.375,0.288,-0.538,0
0.716,0.416,-0.371,0
0.823,0.414,-0.272,0
0.952,0.513,-0.098,0
0.991,0.497,0.035,0
0.739,0.547,0.401,0
0.574,0.542,0.705,0
0.296,0.494,1.089,0
0.164,0.471,1.212,0
0.06,0.341,1.371,0
0.06,0.388,1.469,0
0.316,0.481,1.489,0
0.45,0.509,1.563,0
0.569,0.481,1.944,0
0.604,0.449,2.152,0
0.548,0.577,2.482,0
0.352,0.538,2.691,1
0.284,0.583,2.314,0
0.245,0.659,1.902,0
-0.075,0.615,1.384,0
-0.317,0.607,1.315,0
-0.447,0.598,1.497,0
-0.452,0.566,1.535,0
-0.415,0.413,1.547,0
-0.32,0.292,1.409,0
0.082,0.025,1.386,0
0.356,-0.304,2.006,0
0.664,-0.755,3.357,0
0.64,-0.934,3.825,0
0.211,-1.267,3.861,0
0.007,-1.418,3.068,0
-0.07,-1.503,1.246,0
-0.031,-1.313,0.116,0
0.117,-1.23,-0.806,0
0.288,-1.14,-1.355,0
0.455,-0.859,-2.151,0
0.537,-0.795,-2.264,0
0.548,-0.835,-2.025,0
0.455,-0.812,-1.801,0
0.304,-0.861,-1.455,0
0.217,-0.868,-1.434,0
0.194,-0.776,-1.565,0
0.229,-0.713,-1.748,0
0.308,-0.735,-2.014,0
0.229,-0.699,-1.854,0
0.088,-0.679,-1.511,0
-0.011,-0.655,-1.457,0
-0.145,-0.477,-1.44,0
-0.12,-0.353,-1.462,0
0.011,-0.079,-1.557,0
0.171,0.169,-1.437,0
0.346,0.341,-1.431,0
0.285,0.392,-1.502,0
-0.019,0.21,-1.263,0
-0.116,0.147,-0.931,0
-0.268,0.073,-0.375,0
-0.296,0.032,-0.22,0
-0.312,0.027,-0.22,0
-0.373,0.038,-0.25,0
-0.318,0.149,-0.28,0
-0.168,0.301,-0.206,0
0.198,0.446,-0.188,0
0.131,0.455,-0.131,0
0.213,0.602,0.176,0
0.206,0.636,0.472,0
0.003,0.549,0.575,0
-0.069,0.477,0.48,0
-0.182,0.337,0.494,0
-0.39,0.224,0.912,0
-0.676,0.103,1.774,0
-0.804,0.15,1.967,0
-0.485,0.498,1.784,0
-0.238,0.702,1.683,1
-0.231,0.681,1.691,0
0.303,0.974,0.772,0
0.024,0.711,0.244,0
-0.347,0.494,0.275,0
-0.861,0.086,0.962,0
-0.865,-0.125,1.457,0
-0.594,-0.212,2.137,0
-0.168,-0.238,2.49,0
0.687,-0.23,2.555,0
1.015,-0.219,2.474,0
1.168,-0.265,2.647,0
0.947,-0.311,2.697,0
0.474,-0.526,2.32,0
0.2,-0.686,1.76,0
0.128,-0.755,0.805,0
0.408,-0.704,0.358,0
0.622,-0.631,-0.225,0
0.631,-0.668,-0.317,0
0.813,-0.716,-0.457,0
0.911,-0.683,-0.534,0
0.923,-0.683,-0.532,0
0.911,-0.844,-0.632,0
0.917,-0.918,-0.678,0
0.94,-0.938,-0.676,0
0.832,-0.992,-0.718,0
0.678,-1.038,-0.707,0
0.547,-1.027,-0.911,0
0.473,-1.04,-1.185,0
0.409,-0.819,-1.686,0
0.506,-0.69,-1.804,0
0.509,-0.717,-1.795,0
0.951,0.024,-1.426,0
1.018,0.311,-1.142,0
0.956,0.386,-1.102,0
0.749,0.451,-1.483,0
0.552,0.435,-1.758,0
0.286,0.36,-2.212,0
0.155,0.27,-2.287,0
0.066,0.221,-2.106,0
0.097,0.207,-1.887,0
0.265,0.279,-1.369,0
0.392,0.345,-0.987,0
0.642,0.326,-0.277,0
0.679,0.314,0.13,0
0.533,0.131,0.612,0
0.482,0.036,0.888,0
0.577,-0.083,1.15,0
0.488,-0.109,1.056,0
0.297,-0.22,0.569,0
0.292,-0.15,0.024,0
0.178,0.025,-0.417,0
0.111,0.052,-0.306,0
-0.09,0.029,0.543,0
-0.12,0.086,1.131,0
-0.221,0.039,2.063,0
-0.349,0,2.238,0
-0.134,0.168,1.464,0
0.398,0.313,0.89,0
0.976,0.368,0.287,0
0.787,0.294,0.402,1
0.761,0.286,0.401,0
-0.53,-0.525,1.445,0
-0.931,-0.558,1.613,0
-0.859,-0.467,1.614,0
-0.395,-0.35,1.888,0
-0.142,-0.311,2.31,0
0.221,-0.461,3.084,0
0.259,-0.527,3.274,0
0.061,-0.754,2.705,0
-0.055,-0.765,2.006,0
0.006,-0.658,0.119,0
0.108,-0.541,-0.498,0
-0.052,-0.619,-0.789,0
-0.2,-0.67,-0.542,0
-0.111,-0.503,0.133,0
-0.071,-0.48,0.561,0
0.005,-0.484,0.81,0
0.023,-0.541,0.744,0
-0.082,-0.692,0.569,0
-0.257,-0.798,0.47,0
-0.345,-0.927,0.337,0
-0.325,-0.935,0.152,0
-0.212,-0.952,-0.349,0
-0.208,-0.908,-0.63,0
-0.152,-0.809,-1.106,0
-0.161,-0.714,-1.485,0
-0.304,-0.541,-1.874,0
-0.265,-0.364,-2.179,0
0.004,0.017,-2.48,0
0.112,0.234,-2.477,0
0.243,0.404,-2.314,0
0.281,0.5,-2.17,0
0.233,0.619,-1.512,0
0.197,0.566,-1.15,0
0.196,0.652,-0.772,0
0.125,0.589,-0.567,0
-0.115,0.379,-0.494,0
-0.311,0.241,-0.502,0
-0.463,0.061,-0.566,0
-0.43,-0.032,-0.522,0
-0.423,-0.038,-0.519,0
-0.282,-0.005,0.409,0
-0.159,0.09,1.077,0
-0.192,0.164,1.33,0
-0.19,0.154,1.333,0
-0.272,0.153,1.473,0
-0.181,0.215,0.875,0
-0.095,0.182,0.715,0
-0.063,0.066,0.763,0
-0.061,0.034,0.775,0
-0.316,0.006,1.569,0
-0.234,0.038,1.56,0
-0.223,0.016,1.569,0
0.095,0.032,0.604,1
0.104,0.007,0.614,0
0.023,0.073,0.392,0
-0.026,0.131,0.612,0
-0.027,0.145,0.84,0
0.333,0.19,0.785,0
0.735,0.243,0.631,0
1.216,0.167,0.564,0
1.444,-0.008,0.761,0
1.359,-0.449,1.593,0
0.973,-0.76,2.161,0
0.405,-1.18,2.811,0
0.103,-1.265,2.728,0
-0.216,-1.359,2.138,0
-0.152,-1.331,1.664,0
-0.03,-1.182,0.543,0
-0.007,-1.075,-0.008,0
0.333,-0.868,-0.759,0
0.522,-0.715,-1.251,0
0.707,-0.559,-1.87,0
0.774,-0.551,-2.134,0
0.637,-0.56,-1.971,0
0.418,-0.696,-1.41,0
0.146,-0.889,-0.431,0
-0.01,-0.972,-0.085,0
-0.191,-0.995,-0.073,0
-0.149,-0.905,-0.404,0
0.178,-0.441,-1.368,0
0.303,-0.262,-1.794,0
0.581,0.088,-2.541,0
0.796,0.298,-2.962,0
0.763,0.425,-3.327,0
0.631,0.416,-3.174,0
0.17,0.245,-2.142,0
-0.064,0.084,-1.357,0
-0.201,-0.021,-0.145,0
-0.123,0.043,0.273,0
0.078,0.084,0.462,0
0.318,0.216,0.218,0
0.637,0.353,-0.389,0
0.784,0.367,-0.636,0
0.726,0.262,-0.437,0
0.656,0.222,-0.036,0
0.562,0.118,0.669,0
0.412,0.057,1.057,0
0.173,-0.053,1.659,0
0.143,-0.077,1.789,0
0.234,0.097,1.836,0
0.412,0.125,1.677,0
0.604,0.3,1.477,0
0.64,0.277,1.636,0
0.667,0.353,1.708,0
0.486,0.401,1.589,0
0.096,0.416,1.513,0
-0.133,0.329,1.44,1
-0.142,0.293,1.452,0
-0.739,0.221,0.887,0
-0.889,0.252,0.492,0
-0.848,0.195,0.315,0
-0.408,0.102,0.067,0
-0.138,0.059,0.221,0
-0.183,0.072,0.212,0
0.548,-0.578,2.588,0
0.527,-0.792,3.718,0
0.466,-0.814,3.885,0
0.012,-0.878,2.873,0
-0.159,-0.843,1.494,0
-0.307,-0.81,-0.437,0
-0.241,-0.749,-1.099,0
-0.221,-0.738,-1.498,0
-0.172,-0.758,-1.594,0
-0.182,-0.793,-1.284,0
-0.13,-0.79,-0.98,0
-0.083,-0.843,-0.756,0
0.063,-0.803,-0.79,0
0.277,-0.78,-0.94,0
0.241,-0.757,-1.033,0
0.09,-0.818,-1.189,0
0.076,-0.812,-1.278,0
0.095,-0.742,-1.252,0
0.049,-0.752,-1.094,0
0.053,-0.736,-1.099,0
0.077,-0.497,-1.151,0
0.382,-0.197,-1.338,0
0.408,-0.042,-1.344,0
0.261,0.222,-1.537,0
0.173,0.258,-1.725,0
-0.276,0.1,-1.333,0
-0.441,0.016,-1.055,0
-0.585,0.074,-0.549,0
-0.583,0.099,-0.402,0
-0.446,0.145,-0.295,0
-0.425,0.115,-0.373,0
-0.338,0.168,-0.766,0
-0.319,0.141,-0.939,0
-0.226,0.186,-1.064,0
-0.176,0.183,-0.957,0
0.036,0.365,-0.591,0
0.21,0.534,-0.316,0
0.202,0.61,0.29,0
0.105,0.525,0.548,0
0.069,0.47,1.174,0
0.173,0.457,1.459,0
0.328,0.408,2.032,0
0.488,0.369,2.369,0
0.663,0.34,2.597,0
0.522,0.311,2.592,0
0.324,0.32,1.979,0
0.174,0.258,1.393,1
-0.137,0.094,0.414,0
-0.377,0.085,0.3,0
-0.374,0.012,1.073,0
-0.169,0.028,1.716,0
0.18,0.053,2.371,0
0.384,-0.054,2.329,0
0.584,-0.502,2.172,0
0.572,-0.823,2.25,0
0.413,-1.361,2.865,0
0.289,-1.383,3.157,0
-0.254,-1.598,3.089,0
-0.457,-1.581,2.592,0
-0.414,-1.469,1.48,0
-0.304,-1.404,0.837,0
-0.084,-1.224,0.037,0
-0.064,-1.157,-0.323,0
0.163,-1.07,-0.978,0
0.494,-0.885,-1.45,0
0.921,-0.674,-2.363,0
1.172,-0.574,-2.714,0
1.441,-0.435,-2.768,0
1.529,-0.368,-2.558,0
1.382,-0.416,-1.81,0
1.217,-0.487,-1.267,0
0.855,-0.662,-0.469,0
0.552,-0.75,-0.12,0
0.248,-0.802,-0.273,0
0.316,-0.6,-0.539,0
0.587,-0.326,-1.327,0
0.707,-0.111,-1.803,0
0.712,0.019,-2.312,0
0.713,0.113,-2.458,0
0.744,0.257,-2.386,0
0.694,0.237,-2.282,0
0.718,0.248,-2.283,0
0.281,-0.028,-1.608,0
0.151,-0.117,-1.008,0
-0.087,-0.234,-0.7,0
-0.174,-0.249,-0.407,0
-0.003,-0.127,-0.404,0
0.339,0.111,-0.585,0
0.544,0.241,-0.743,0
0.554,0.246,-0.744,0
0.572,0.407,-0.448,0
0.584,0.423,-0.452,0
0.126,0.252,0.699,0
-0.258,0.124,2.156,0
-0.489,-0.096,2.922,0
-0.66,-0.163,3.719,0
-0.709,-0.131,3.821,0
-0.452,-0.097,3.545,0
-0.273,-0.057,3.281,0
0.082,0.367,2.34,0
0.153,0.506,1.792,1
-0.099,0.424,1.13,0
-0.602,0.228,0.903,0
-1.294,0.094,1.009,0
-1.444,0.112,0.933,0
-1.111,0.27,0.512,0
-0.634,0.198,0.212,0
-0.673,0.185,0.212,0
0.808,-0.023,0.616,0
0.616,-0.456,2.462,0
0.482,-1.018,3.092,0
-0.172,-1.282,3.252,0
-0.36,-1.153,2.309,0
-0.415,-0.939,0.461,0
-0.389,-0.893,-0.289,0
-0.222,-0.724,-0.613,0
-0.115,-0.643,-0.699,0
-0.119,-0.593,-0.25,0
-0.043,-0.605,0.275,0
0.076,-0.775,1.007,0
0.017,-0.871,1.103,0
0.072,-0.954,0.744,0
0.056,-0.998,0.463,0
0.061,-0.997,-0.005,0
0.096,-0.975,-0.282,0
0.199,-0.88,-0.856,0
0.225,-0.778,-1.242,0
0.277,-0.646,-1.899,0
0.275,-0.563,-2.111,0
0.312,-0.36,-2.402,0
0.341,-0.18,-2.51,0
0.361,0.096,-2.576,0
0.411,0.25,-2.516,0
0.52,0.446,-2.305,0
0.546,0.509,-2.188,0
0.304,0.448,-1.623,0
0.13,0.307,-1.184,0
-0.221,0.092,-0.567,0
-0.354,0.037,-0.257,0
-0.332,0.112,-0.206,0
-0.31,0.136,-0.3,0
-0.054,0.447,-0.374,0
0.233,0.582,-0.53,0
0.47,0.751,-0.648,0
0.475,0.715,-0.38,0
0.463,0.708,0.187,0
0.267,0.549,0.53,0
0.266,0.534,0.534,0
-0.276,0.182,0.981,0
-0.428,0.063,1.077,0
-0.404,0.03,1.1,0
-0.103,0.194,1.098,0
0.019,0.341,1.148,0
0.415,0.742,1.473,0
0.601,0.934,1.541,0
0.475,1.079,1.63,0
0.263,0.899,1.657,1
-0.271,0.478,1.376,0
-0.578,0.264,1.266,0
-0.695,0.046,1.276,0
-0.697,-0.118,1.326,0
-0.708,-0.333,1.484,0
-0.566,-0.473,1.434,0
-0.113,-0.792,1.409,0
-0.015,-1.072,1.491,0
-0.082,-1.385,2.096,0
-0.196,-1.473,2.597,0
-0.39,-1.694,3.026,0
-0.631,-1.758,2.845,0
-0.856,-1.721,2.272,0
-0.811,-1.685,1.739,0
-0.596,-1.546,0.506,0
-0.437,-1.399,-0.109,0
-0.098,-1.06,-0.741,0
0.054,-0.885,-0.779,0
0.218,-0.625,-0.639,0
0.267,-0.566,-0.563,0
0.269,-0.522,-0.516,0
0.351,-0.495,-0.568,0
0.336,-0.454,-0.755,0
0.283,-0.462,-0.861,0
0.406,-0.37,-1.124,0
0.479,-0.318,-1.375,0
0.479,-0.297,-1.81,0
0.446,-0.251,-1.953,0
0.442,-0.222,-2.224,0
0.463,-0.143,-2.426,0
0.532,-0.011,-2.586,0
0.554,0.053,-2.626,0
0.506,0.121,-2.575,0
0.565,0.159,-2.657,0
0.71,0.339,-2.613,0
0.759,0.358,-2.392,0
0.784,0.361,-2.391,0
0.251,0.04,-1.731,0
0.012,-0.158,-1.497,0
-0.17,-0.287,-1.085,0
-0.17,-0.286,-1.085,0
-0.007,-0.346,-0.04,0
-0.017,-0.346,-0.041,0
-0.028,-0.173,0.358,0
-0.065,-0.046,0.492,0
-0.02,0.117,0.663,0
0.086,0.137,0.952,0
0.08,0.059,1.309,0
0.308,0.068,1.993,0
0.285,0.054,1.995,0
0.259,0.118,3.312,0
0.344,0.276,3.417,0
0.453,0.543,2.824,0
0.505,0.616,1.758,0
0.195,0.595,0.535,0
-0.081,0.429,0.351,1
-0.076,0.41,0.358,0
-0.918,0.104,0.594,0
-1.407,-0.372,1.181,0
-1.468,-0.481,1.473,0
-1.028,-0.851,2.362,0
-0.755,-0.902,2.949,0
-0.183,-0.915,4.247,0
-0.122,-0.928,4.451,0
-0.168,-0.658,3.58,0
-0.181,-0.602,2.251,0
-0.405,-0.662,-0.083,0
-0.504,-0.597,-1.05,0
-0.514,-0.564,-1.506,0
-0.582,-0.7,-1.32,0
-0.669,-0.776,-0.888,0
-0.472,-0.69,-0.479,0
0.078,-0.543,-0.195,0
0.229,-0.425,-0.241,0
0.244,-0.474,-0.569,0
0.172,-0.601,-0.867,0
-0.072,-0.827,-1.167,0
-0.153,-1.029,-1.19,0
-0.232,-1.135,-1.194,0
-0.268,-1.12,-1.145,0
-0.266,-1.065,-1.085,0
-0.264,-0.97,-1.185,0
-0.305,-0.776,-1.351,0
-0.301,-0.65,-1.274,0
-0.319,-0.444,-1.151,0
-0.256,-0.342,-1.317,0
-0.152,-0.165,-1.907,0
-0.174,-0.144,-2.18,0
-0.304,-0.167,-2.173,0
-0.403,-0.217,-1.699,0
-0.402,-0.218,-1.698,0
-0.294,-0.009,-1.012,0
-0.151,0.12,-1.004,0
0.101,0.244,-1.147,0
0.375,0.416,-1.435,0
0.376,0.459,-1.406,0
0.062,0.275,-0.768,0
-0.205,0.192,-0.26,0
-0.519,0.126,0.664,0
-0.508,0.17,0.924,0
-0.52,0.183,1.126,0
-0.459,0.174,1.014,0
-0.276,0.255,0.902,0
-0.163,0.311,0.98,0
0.2,0.376,1.462,0
0.312,0.494,2.012,0
0.366,0.727,2.788,0
0.321,0.709,2.67,0
0.045,0.57,1.728,0
-0.161,0.51,1.252,1
-0.358,0.306,1.124,0
-0.203,0.336,1.081,0
-0.008,0.321,0.909,0
-0.02,0.368,1.099,0
0.204,0.137,1.427,0
0.36,-0.032,1.507,0
0.509,-0.506,2.266,0
0.542,-0.764,3.117,0
0.319,-1.108,4.42,0
0.118,-1.185,4.482,0
0.138,-1.143,4.471,0
0.015,-1.202,2.367,0
0.219,-1.106,0.468,0
0.425,-0.967,-0.369,0
0.565,-0.862,-1.119,0
0.46,-1.029,-1.227,0
0.223,-1.12,-1.257,0
0.222,-1.135,-1.057,0
0.292,-1.084,-0.463,0
0.351,-1.007,-0.152,0
0.371,-0.948,0.002,0
0.286,-0.864,-0.14,0
0.217,-0.799,-0.878,0
0.279,-0.857,-1.406,0
0.212,-0.721,-2.339,0
0.245,-0.594,-2.493,0
0.525,-0.366,-2.333,0
0.607,-0.189,-2.009,0
0.51,-0.061,-1.608,0
0.51,-0.071,-1.605,0
0.064,0.118,-1.524,0
-0.189,-0.029,-1.652,0
-0.115,-0.105,-1.974,0
0.21,0.014,-1.991,0
0.297,0.011,-1.321,0
0.242,-0.138,-0.62,0
0.109,-0.112,0.466,0
-0.009,-0.166,0.755,0
-0.039,-0.273,0.486,0
-0.08,-0.227,0.197,0
-0.1,-0.237,0.175,0
-0.075,-0.244,0.314,0
0.012,-0.208,0.496,0
-0.019,-0.202,0.7,0
-0.201,-0.168,0.95,0
-0.284,-0.117,0.898,0
-0.392,-0.063,1.066,0
-0.317,-0.042,1.436,0
0.028,0.011,2.008,0
0.289,-0.049,2.037,0
0.54,0.234,2.029,0
0.893,0.392,2.098,0
1.317,0.761,1.758,0
1.357,0.872,1.525,1
1.198,0.92,1.265,0
1.036,1.042,1.111,0
0.754,1.108,0.951,0
0.658,0.925,0.911,0
0.793,0.647,1.05,0
0.86,0.421,1.136,0
0.854,0.417,1.137,0
0.893,-0.309,2.375,0
0.445,-0.691,2.789,0
0.127,-0.689,2.374,0
-0.003,-0.599,0.597,0
-0.037,-0.516,-0.391,0
-0.259,-0.516,-1.344,0
-0.293,-0.536,-1.696,0
-0.4,-0.531,-2.422,0
-0.551,-0.624,-2.545,0
-0.566,-0.624,-2.546,0
-0.799,-1.192,-0.638,0
-0.872,-1.509,0.571,0
-0.798,-1.549,0.753,0
-0.515,-1.522,0.639,0
-0.211,-1.415,0.225,0
0.25,-1.208,-0.759,0
0.474,-1.1,-1.242,0
0.595,-0.971,-1.267,0
0.467,-0.958,-1.198,0
-0.107,-1.047,-0.757,0
-0.386,-1.134,-0.411,0
-0.533,-1.062,-0.421,0
-0.42,-0.817,-0.765,0
-0.41,-0.827,-0.761,0
-0.44,-0.478,-1.689,0
-0.179,-0.2,-2.329,0
-0.045,0.069,-2.533,0
0.383,0.394,-2.377,0
0.567,0.593,-1.914,0
0.237,0.492,-1.114,0
-0.042,0.414,-0.775,0
-0.414,0.207,-0.408,0
-0.52,0.104,-0.388,0
-0.529,0.1,-0.3,0
-0.368,0.142,-0.155,0
-0.067,0.237,0.442,0
-0.06,0.283,0.794,0
-0.123,0.336,1.292,0
-0.031,0.377,1.221,0
0.179,0.603,0.776,0
0.206,0.665,0.766,0
0.19,0.631,1.155,0
0.008,0.543,1.547,0
-0.197,0.517,2.058,0
-0.17,0.597,1.998,0
0.308,0.879,0.855,0
0.736,1.064,0.147,0
1.143,1.163,-0.195,0
0.934,1.037,0.021,1
0.319,0.622,1.104,0
-0.096,0.312,1.779,0
-0.63,-0.19,2.387,0
-0.657,-0.426,2.196,0
-0.087,-0.433,1.264,0
0.546,-0.343,0.94,0
1.334,-0.321,1.216,0
1.436,-0.381,1.429,0
1.414,-0.59,1.619,0
1.227,-0.824,1.366,0
0.698,-1.273,0.752,0
0.557,-1.486,0.614,0
0.14,-1.764,1.004,0
-0.311,-1.964,1.077,0
-0.728,-2.109,0.637,0
-0.748,-2.063,0.16,0
-0.541,-1.692,-0.362,0
-0.279,-1.45,-0.341,0
0.18,-0.978,-0.182,0
0.234,-0.827,-0.052,0
0.179,-0.718,-0.03,0
0.096,-0.702,-0.053,0
0.105,-0.693,-0.055,0
-0.058,-0.665,-0.554,0
-0.168,-0.648,-0.888,0
-0.116,-0.6,-1.112,0
-0.109,-0.621,-1.104,0
0.019,-0.426,-1.789,0
0.221,-0.175,-2.162,0
0.357,-0.013,-2.083,0
0.514,0.159,-1.741,0
0.534,0.219,-1.481,0
0.573,0.294,-1.228,0
0.492,0.267,-1.286,0
0.077,0.007,-1.356,0
-0.014,-0.045,-1.302,0
-0.006,-0.041,-0.965,0
-0.002,-0.064,-0.777,0
-0.153,-0.142,-0.49,0
-0.176,-0.073,-0.451,0
0.091,0.191,-0.404,0
0.185,0.276,-0.257,0
0.319,0.343,0.253,0
0.284,0.337,0.526,0
0.205,0.28,0.732,0
0.206,0.27,0.736,0
0.153,0.197,0.91,0
0.242,0.197,1.585,0
0.376,0.145,2.146,0
0.25,0.058,2.283,0
0.119,0.104,1.862,0
0.101,0.077,1.351,0
0.242,0.108,0.587,0
0.401,0.258,0.451,0
0.775,0.64,0.374,0
0.84,0.884,0.36,1
1.063,1.137,0.444,0
1.177,1.183,0.669,0
1.053,1.08,1.236,0
0.958,0.842,1.54,0
0.93,0.869,1.526,0
0.644,-0.151,2.293,0
0.6,-0.492,2.509,0
0.568,-0.588,2.215,0
0.529,-0.638,1.253,0
0.54,-0.722,0.801,0
0.302,-0.858,0.329,0
0.204,-0.917,0.269,0
0.105,-0.925,0.339,0
-0.04,-0.914,0.397,0
0.047,-0.912,0.444,0
0.166,-0.859,0.315,0
0.348,-0.754,-0.081,0
0.473,-0.718,-0.379,0
0.843,-0.495,-1.139,0
1.069,-0.305,-1.466,0
1.465,-0.087,-1.711,0
1.38,-0.18,-1.726,0
0.772,-0.464,-1.224,0
0.515,-0.644,-0.799,0
0.133,-0.86,-0.389,0
-0.084,-0.879,-0.471,0
-0.339,-0.842,-0.829,0
-0.322,-0.765,-1.123,0
-0.265,-0.454,-1.369,0
0.035,-0.173,-1.54,0
0.587,0.203,-1.611,0
0.614,0.301,-1.468,0
0.382,0.163,-1.012,0
0.168,-0.034,-0.619,0
0.168,-0.04,-0.617,0
0.003,-0.181,0.123,0
0.054,-0.24,0.199,0
0.145,-0.169,-0.065,0
0.151,-0.194,-0.055,0
0.736,0.102,-0.994,0
1.089,0.282,-1.373,0
1.004,0.234,-1.322,0
0.713,0.224,-0.755,0
0.525,0.114,-0.178,0
0.184,-0.046,0.567,0
0.067,-0.165,0.755,0
0.236,-0.463,1.128,0
0.432,-0.406,1.314,0
0.311,-0.458,1.265,0
0.128,-0.504,1.068,0
-0.051,-0.28,0.692,0
-0.095,-0.231,0.658,0
-0.217,-0.125,0.806,0
-0.354,-0.009,1.304,1
-0.416,0.182,2.085,0
-0.396,0.313,2.102,0
-0.196,0.415,2.197,0
0.337,0.304,2.156,0
0.333,0.337,2.144,0
1.758,-0.067,2.168,0
2.351,-0.359,2.755,0
2.103,-0.633,3.297,0
2.093,-0.584,3.28,0
1.414,-0.793,2.351,0
1.212,-0.786,0.839,0
1.251,-0.756,0.211,0
1.012,-0.922,-0.206,0
0.818,-0.935,-0.289,0
0.559,-1.018,-0.293,0
0.519,-1.072,-0.283,0
0.603,-0.901,-0.317,0
0.678,-0.831,-0.382,0
0.898,-0.654,-0.571,0
0.912,-0.631,-0.63,0
0.937,-0.568,-0.974,0
0.978,-0.524,-1.186,0
1.148,-0.416,-1.193,0
1.284,-0.342,-1.147,0
1.251,-0.253,-1.052,0
1.315,-0.136,-1.228,0
1.268,0.022,-1.767,0
1.177,0.046,-1.969,0
1.005,0.118,-2.255,0
0.873,0.12,-2.281,0
0.708,0.122,-2.248,0
0.647,0.162,-2.125,0
0.738,0.271,-1.52,0
0.896,0.365,-1.087,0
1.128,0.461,-0.68,0
1.13,0.42,-0.591,0
0.853,0.278,-0.198,0
0.835,0.217,0.305,0
0.934,0.184,0.588,0
0.832,0.177,0.623,0
0.681,0.165,0.717,0
0.688,0.249,0.764,0
0.612,0.414,1.09,0
0.567,0.486,1.349,0
0.521,0.662,1.754,0
0.421,0.722,2.009,0
0.463,0.673,2.23,0
0.429,0.567,2.269,0
0.521,0.367,2.073,0
0.528,0.263,2.168,0
0.432,0.173,1.71,0
0.301,0.054,1.43,1
0.086,-0.146,1.35,0
-0.056,-0.076,1.349,0
-0.158,0.176,1.099,0
-0.027,0.256,0.71,0
-0.037,0.249,0.711,0
0.61,0.266,0.509,0
0.584,0.282,0.501,0
0.719,-0.389,1.562,0
0.643,-0.864,2.401,0
0.469,-0.971,2.414,0
0.261,-1.006,1.685,0
0.362,-0.914,1.142,0
0.424,-0.769,0.046,0
0.374,-0.758,-0.334,0
0.546,-0.686,-0.619,0
0.631,-0.632,-0.586,0
0.71,-0.684,-0.202,0
0.878,-0.612,-0.018,0
0.974,-0.722,0.003,0
0.945,-0.831,-0.187,0
0.852,-0.879,-0.618,0
0.765,-0.896,-0.809,0
0.596,-0.918,-1,0
0.486,-0.951,-1.007,0
0.327,-0.9,-1.125,0
0.227,-0.877,-1.179,0
0.131,-0.867,-1.321,0
0.16,-0.736,-1.467,0
0.424,-0.345,-1.707,0
0.496,-0.146,-1.686,0
0.563,0.137,-1.726,0
0.483,0.273,-1.803,0
0.25,0.403,-1.889,0
0.091,0.374,-1.844,0
-0.239,0.2,-1.629,0
-0.426,0.138,-1.414,0
-0.449,0.148,-0.997,0
-0.305,0.201,-0.798,0
0.003,0.415,-0.582,0
0.098,0.483,-0.418,0
0.233,0.562,-0.235,0
0.235,0.49,-0.086,0
0.204,0.334,0.446,0
0.259,0.303,0.777,0
0.229,0.171,1.463,0
0.191,0.128,1.822,0
-0.047,0.045,1.912,0
-0.184,-0.03,1.855,0
-0.148,0.041,1.447,0
0.053,0.116,1.388,0
0.48,0.341,1.837,0
0.67,0.502,2.082,0
0.737,0.653,1.748,0
0.607,0.548,1.251,1
0.217,0.148,0.593,0
-0.006,-0.018,0.511,0
-0.251,-0.035,1.059,0
-0.238,0.014,1.51,0
-0.047,0.182,1.751,0
0.145,0.295,1.408,0
0.143,0.292,1.408,0
1.28,0.384,0.685,0
1.754,0.056,1.029,0
1.687,-0.264,1.738,0
1.198,-0.776,2.522,0
0.604,-1.044,2.491,0
-0.079,-1.381,1.776,0
-0.166,-1.481,1.208,0
-0.142,-1.45,-0.243,0
-0.071,-1.323,-0.973,0
0.265,-1.151,-1.262,0
0.519,-1.042,-0.966,0
0.593,-1.051,-0.36,0
0.581,-1.118,-0.18,0
0.47,-1.294,-0.015,0
0.259,-1.409,0.01,0
0.074,-1.481,0.045,0
0.089,-1.37,-0.009,0
0.303,-1.035,-0.226,0
0.572,-0.747,-0.587,0
0.701,-0.342,-1.226,0
0.896,-0.191,-1.647,0
1.147,0.119,-2.709,0
1.13,0.29,-3.169,0
0.722,0.246,-3.252,0
0.489,0.152,-2.857,0
0.208,0.099,-1.728,0
0.105,0.071,-1.119,0
0.208,0.221,-0.783,0
0.396,0.299,-1.058,0
0.777,0.527,-1.797,0
0.777,0.536,-1.905,0
0.551,0.432,-1.535,0
0.458,0.337,-1.283,0
0.457,0.272,-0.691,0
0.502,0.302,-0.367,0
0.478,0.397,-0.101,0
0.288,0.399,0.127,0
0.02,0.408,0.798,0
-0.009,0.462,0.83,0
-0.056,0.604,0.612,0
-0.06,0.521,0.559,0
0.078,0.581,0.888,0
0.258,0.695,1.173,0
0.465,0.701,1.989,0
0.521,0.672,2.513,0
0.327,0.488,3.344,0
0.17,0.496,3.278,1
0.218,0.568,2.8,0
0.36,0.617,2.331,0
0.439,0.941,1.594,0
0.488,1.097,1.307,0
0.596,1.31,0.679,0
0.622,1.25,0.472,0
0.438,0.868,0.488,0
0.206,0.483,0.697,0
-0.177,-0.404,2.021,0
-0.147,-0.837,2.9,0
0.191,-1.016,3.952,0
0.245,-0.986,4.097,0
0.129,-0.979,3.034,0
0.093,-0.941,1.852,0
0.105,-0.802,-0.056,0
0.119,-0.703,-0.677,0
0.023,-0.744,-0.888,0
-0.183,-0.836,-0.884,0
-0.644,-1.147,-0.842,0
-0.826,-1.303,-0.7,0
-0.83,-1.292,-0.704,0
-0.782,-1.507,-0.135,0
-0.41,-1.262,-0.128,0
-0.134,-1.065,-0.34,0
0.177,-0.668,-0.956,0
0.241,-0.568,-1.392,0
0.342,-0.38,-2.258,0
0.36,-0.289,-2.693,0
0.387,-0.223,-2.903,0
0.363,-0.205,-2.765,0
0.276,-0.214,-2.478,0
0.178,-0.249,-2.302,0
-0.012,-0.198,-2.353,0
-0.197,-0.234,-2.351,0
-0.408,-0.205,-2.363,0
-0.431,-0.14,-2.379,0
-0.179,0.133,-2.297,0
-0.006,0.334,-2.051,0
0.153,0.485,-1.428,0
0.072,0.432,-0.938,0
-0.161,0.223,-0.196,0
-0.222,0.185,0.002,0
-0.333,0.096,0.324,0
-0.432,-0.055,0.769,0
-0.58,-0.121,1.376,0
-0.635,-0.148,1.396,0
-0.925,-0.321,1.298,0
-0.785,-0.345,1.2,0
-0.576,-0.374,1.268,0
-0.496,-0.474,1.511,0
-0.082,-0.272,1.824,0
0.217,-0.095,2.043,0
0.503,0.193,1.875,0
0.482,0.31,1.524,0
0.452,0.472,0.909,0
0.546,0.48,0.723,1
0.433,0.458,0.765,0
0.221,0.316,0.908,0
-0.055,0.149,1.014,0
-0.159,0.161,1.05,0
-0.032,0.309,1.173,0
0.244,0.315,1.264,0
0.814,0.316,1.347,0
1.181,0.217,1.519,0
1.473,-0.3,2.689,0
1.313,-0.599,3.277,0
0.579,-1.116,3.684,0
0.25,-1.282,3.358,0
-0.04,-1.325,2.078,0
0.015,-1.317,1.074,0
0.104,-1.216,-0.692,0
0.325,-1.02,-1.581,0
0.359,-0.993,-2.009,0
0.282,-1.058,-1.316,0
0.39,-1.061,0.299,0
0.379,-1.085,0.767,0
0.427,-1.03,0.724,0
0.432,-0.987,0.39,0
0.515,-0.832,-0.374,0
0.674,-0.656,-0.865,0
0.841,-0.362,-1.518,0
0.833,-0.278,-1.785,0
0.71,-0.168,-2.139,0
0.601,-0.232,-2.214,0
0.506,-0.139,-2.13,0
0.469,-0.113,-2.135,0
0.497,0.005,-2.217,0
0.541,0.168,-2.22,0
0.565,0.369,-2.316,0
0.607,0.397,-2.358,0
0.517,0.432,-2.198,0
0.422,0.383,-1.96,0
0.102,0.123,-1.399,0
-0.014,0.076,-0.969,0
0.084,-0.03,-0.212,0
0.101,-0.003,0.009,0
0.098,-0.002,0.009,0
0.294,0.055,-0.2,0
0.33,0.091,-0.075,0
0.249,0.179,-0.144,0
0.269,0.176,-0.141,0
-0.004,0.318,-0.229,0
-0.022,0.417,-0.252,0
0.017,0.469,-0.094,0
-0.018,0.56,0.437,0
0.015,0.603,0.721,0
0.006,0.599,0.721,0
-0.114,0.418,1.87,0
0.011,0.312,2.386,0
0.115,0.246,2.529,0
0.158,0.336,2.795,0
0.244,0.467,2.904,1
0.242,0.449,2.91,0
0.192,0.713,1.648,0
-0.207,0.664,1.196,0
-0.533,0.686,0.897,0
-0.775,0.856,0.393,0
-0.576,0.868,0.251,0
-0.178,0.802,0.384,0
0.068,0.607,0.675,0
0.506,0.07,1.882,0
0.713,-0.346,3.041,0
0.796,-0.814,4.54,0
0.545,-0.953,4.656,0
0.34,-1.099,3.28,0
0.304,-1.036,1.674,0
0.428,-0.736,-0.639,0
0.472,-0.833,-1.391,0
0.478,-0.771,-1.77,0
0.19,-0.832,-1.138,0
-0.132,-1.185,0.157,0
-0.237,-1.273,0.572,0
-0.405,-1.461,0.523,0
-0.429,-1.533,0.209,0
-0.056,-1.328,-0.607,0
0.212,-1.118,-1.073,0
0.565,-0.846,-1.75,0
0.641,-0.771,-2,0
0.695,-0.732,-2.217,0
0.574,-0.797,-2.019,0
0.195,-0.941,-1.27,0
0.009,-0.996,-0.966,0
-0.165,-0.905,-0.762,0
-0.202,-0.749,-0.834,0
-0.088,-0.418,-1.176,0
-0.001,-0.248,-1.455,0
-0.032,-0.139,-1.625,0
0.073,-0.086,-1.67,0
0.308,0.15,-2.023,0
0.261,0.244,-1.977,0
0.079,0.206,-1.587,0
-0.174,0.156,-1.341,0
-0.391,0.165,-1.004,0
-0.33,0.207,-0.939,0
-0.136,0.213,-0.591,0
-0.067,0.215,-0.086,0
-0.074,0.224,-0.089,0
0.086,0.304,0.703,0
0.07,0.24,1.187,0
0.026,0.223,1.12,0
-0.048,0.268,0.861,0
-0.045,0.193,0.804,0
-0.047,0.263,0.789,0
0.048,0.348,1.061,0
0.373,0.458,1.676,0
0.505,0.686,1.92,0
0.561,0.862,2.278,0
0.514,0.919,2.216,0
0.413,0.709,1.708,0
0.409,0.552,1.34,1
0.179,0.371,1.255,0
0.044,0.314,1.368,0
-0.046,0.414,1.519,0
-0.062,0.5,1.36,0
0.264,0.547,0.992,0
0.708,0.495,0.869,0
0.711,0.512,0.863,0
1.499,-0.176,2.019,0
1.44,-0.706,3.378,0
0.971,-0.957,3.616,0
0.009,-1.485,2.871,0
-0.138,-1.537,1.992,0
-0.078,-1.421,0.139,0
-0.016,-1.259,-0.713,0
0.169,-0.977,-1.296,0
0.128,-0.9,-1.102,0
0.141,-0.76,-0.928,0
0.18,-0.663,-0.963,0
0.215,-0.608,-1.126,0
0.319,-0.563,-1.148,0
0.415,-0.537,-0.866,0
0.426,-0.532,-0.598,0
0.356,-0.551,-0.169,0
0.322,-0.548,-0.101,0
0.266,-0.62,-0.368,0
0.217,-0.687,-0.674,0
0.285,-0.62,-0.987,0
0.369,-0.497,-1.116,0
0.538,-0.278,-1.264,0
0.656,-0.113,-1.29,0
0.703,0.162,-1.532,0
0.721,0.332,-1.707,0
0.717,0.408,-2.045,0
0.717,0.441,-2.25,0
0.793,0.532,-2.31,0
0.825,0.538,-2.29,0
0.686,0.469,-1.834,0
0.651,0.462,-1.287,0
0.645,0.466,-0.442,0
0.56,0.439,-0.18,0
0.376,0.308,-0.023,0
0.288,0.298,0.056,0
0.268,0.24,0.23,0
0.247,0.306,0.343,0
0.188,0.452,0.394,0
0.256,0.529,0.261,0
0.346,0.609,0.066,0
0.302,0.597,0.07,0
0.412,0.377,0.636,0
0.436,0.361,1.108,0
0.692,0.414,1.804,0
0.876,0.395,1.988,0
0.742,0.385,2.08,0
0.657,0.485,1.707,0
0.548,0.598,0.693,0
0.532,0.547,0.301,1
0.375,0.475,0.745,0
0.332,0.552,1.196,0
0.053,0.709,1.28,0
-0.097,0.724,0.834,0
-0.22,0.656,0.073,0
-0.312,0.516,-0.324,0
0.177,0.293,-0.559,0
0.52,0.085,0.114,0
0.8,-0.625,2.376,0
0.843,-0.883,3.433,0
0.106,-1.333,4.041,0
-0.321,-1.455,3.352,0
-0.179,-1.197,1.227,0
-0.053,-1.021,-0.009,0
-0.081,-0.846,-1.391,0
0.068,-0.701,-1.903,0
0.144,-0.486,-2.261,0
0.127,-0.461,-2.113,0
0.207,-0.523,-1.353,0
0.147,-0.631,-0.914,0
0.149,-0.754,-0.01,0
0.25,-0.784,0.406,0
0.399,-0.717,1.059,0
0.443,-0.639,1.281,0
0.558,-0.542,0.879,0
0.522,-0.506,0.517,0
0.418,-0.511,-0.133,0
0.296,-0.504,-0.538,0
0.05,-0.481,-1.16,0
-0.016,-0.425,-1.358,0
-0.012,-0.438,-1.354,0
0.218,-0.164,-1.655,0
0.382,0.032,-1.568,0
0.378,-0.029,-1.271,0
0.431,0.066,-0.943,0
0.488,0.115,-1.015,0
0.377,0.184,-1.305,0
0.283,0.156,-1.69,0
-0.02,0.185,-2.115,0
-0.142,0.184,-2.154,0
0.042,0.266,-1.988,0
0.063,0.277,-1.627,0
0.05,0.216,-0.927,0
0.215,0.231,-0.544,0
0.182,0.248,0.309,0
0.13,0.179,0.651,0
-0.049,0.165,1.044,0
-0.139,0.052,1.05,0
-0.244,-0.005,0.779,0
-0.354,-0.014,0.843,0
-0.391,-0.05,1.02,0
-0.335,-0.038,1.127,0
-0.321,0.117,1.299,0
-0.242,0.315,1.228,0
0.046,0.512,0.79,0
0.245,0.55,0.649,0
0.337,0.563,1.151,0
0.189,0.555,1.985,1
-0.196,0.455,2.996,0
-0.456,0.323,3.263,0
-0.497,0.43,2.561,0
-0.509,0.442,1.811,0
0.037,0.557,0.538,0
0.556,0.707,0.252,0
1.391,0.813,0.755,0
1.507,0.698,1.458,0
1.016,0.113,2.579,0
0.457,-0.278,2.598,0
-0.455,-0.754,2.148,0
-0.817,-1.106,1.814,0
-1.311,-1.487,0.733,0
-1.412,-1.435,0.079,0
-0.916,-1.077,-0.785,0
-0.626,-0.858,-0.864,0
-0.328,-0.655,-0.401,0
-0.222,-0.641,-0.209,0
-0.335,-0.778,-0.235,0
-0.474,-0.937,-0.226,0
-0.483,-1.104,-0.191,0
-0.376,-1.038,-0.235,0
-0.239,-1.116,-0.382,0
-0.025,-1.018,-0.576,0
0.719,-0.447,-1.092,0
0.968,-0.219,-1.211,0
1.034,-0.015,-1.366,0
0.917,0.069,-1.611,0
0.516,0.019,-2.216,0
0.284,-0.008,-2.483,0
0.021,-0.055,-2.681,0
-0.017,-0.028,-2.568,0
0.143,0.097,-2.309,0
0.3,0.238,-1.968,0
0.3,0.228,-1.964,0
0.499,0.325,-1.067,0
0.441,0.346,-0.819,0
0.352,0.289,-0.691,0
0.236,0.181,-0.389,0
0.17,0.084,-0.315,0
0.233,0.003,-0.203,0
0.298,-0.006,-0.037,0
0.248,0.075,0.42,0
0.135,0.082,0.704,0
0.013,0.152,0.89,0
-0.03,0.226,0.758,0
-0.023,0.3,0.62,0
-0.032,0.329,0.659,0
0.024,0.362,1.167,0
0.194,0.329,1.436,0
0.174,0.293,2.683,0
0.275,0.382,3.343,0
-0.038,0.477,3.35,0
0.003,0.515,2.505,1
0.015,0.61,1.141,0
-0.158,0.652,0.801,0
-0.224,1.012,0.32,0
-0.241,1.115,-0.097,0
-0.151,1.208,-0.822,0
-0.156,1.083,-1.043,0
0.351,0.597,-0.864,0
0.712,0.241,-0.01,0
1.293,-0.319,2.138,0
1.236,-0.621,3.301,0
0.705,-0.973,4.302,0
0.11,-1.21,3.872,0
-0.367,-1.152,1.67,0
-0.545,-1.206,0.505,0
-0.687,-1.231,-1.392,0
-0.758,-1.14,-1.944,0
-0.787,-1.11,-1.663,0
-0.663,-1.044,-1.035,0
-0.262,-0.888,-0.116,0
-0.052,-0.898,0.38,0
0.096,-1.01,0.714,0
0.123,-0.988,0.516,0
-0.043,-1.059,-0.099,0
-0.151,-1.126,-0.598,0
-0.151,-1.124,-0.599,0
-0.089,-1.094,-1.715,0
-0.128,-1.066,-1.545,0
-0.08,-1.015,-1.33,0
0.009,-0.819,-0.936,0
-0.033,-0.774,-0.884,0
-0.134,-0.643,-1.14,0
-0.186,-0.54,-1.341,0
-0.361,-0.396,-1.632,0
-0.307,-0.305,-1.818,0
-0.135,-0.103,-2.212,0
-0.146,-0.044,-2.334,0
-0.151,-0.049,-2.332,0
-0.168,0.043,-1.547,0
-0.246,0.025,-0.71,0
-0.336,0.037,-0.292,0
-0.547,-0.006,0.107,0
-0.517,-0.009,0.025,0
-0.48,-0.042,-0.281,0
-0.291,0.016,-0.292,0
-0.282,0.019,-0.293,0
-0.362,-0.105,0.084,0
-0.373,-0.025,0.675,0
-0.253,0.044,0.825,0
0.13,0.14,0.866,0
0.343,0.181,1.049,0
0.33,0.214,1.493,0
0.241,0.197,1.744,0
0.173,0.246,1.958,0
-0.005,0.354,1.832,0
-0.16,0.415,1.313,0
0.009,0.476,0.988,0
0.34,0.519,0.92,0
0.463,0.566,1.274,1
0.381,0.64,1.885,0
0.295,0.725,2.081,0
-0.029,0.517,2.188,0
-0.121,0.625,1.665,0
-0.068,0.516,0.783,0
0.156,0.318,0.455,0
0.587,0.086,0.74,0
0.654,-0.143,1.569,0
0.527,-0.599,2.895,0
0.519,-0.555,2.881,0
0.183,-0.7,2.485,0
0.144,-0.699,1.673,0
0.32,-0.5,0.326,0
0.459,-0.436,-0.379,0
0.515,-0.303,-0.819,0
0.424,-0.321,-0.687,0
0.256,-0.475,-0.281,0
0.26,-0.571,-0.184,0
0.26,-0.697,-0.05,0
0.293,-0.794,0.071,0
0.331,-0.937,0.032,0
0.43,-0.885,-0.084,0
0.616,-0.831,-0.352,0
0.649,-0.8,-0.615,0
0.657,-0.661,-1.281,0
0.605,-0.622,-1.562,0
0.558,-0.44,-2.266,0
0.506,-0.299,-2.567,0
0.621,-0.038,-2.809,0
0.633,0.146,-2.825,0
0.652,0.348,-2.7,0
0.679,0.398,-2.563,0
0.603,0.433,-2.082,0
0.42,0.361,-1.776,0
0.253,0.31,-1.174,0
0.252,0.284,-0.911,0
0.239,0.264,-0.905,0
0.387,0.53,-0.97,0
0.361,0.549,-1.11,0
0.416,0.604,-0.958,0
0.579,0.698,-0.232,0
0.624,0.682,0.266,0
0.509,0.672,0.773,0
0.149,0.574,1.137,0
-0.35,0.23,1.624,0
-0.563,0.044,1.778,0
-0.55,0.025,1.785,0
-0.402,0.101,1.937,0
-0.028,0.44,1.686,0
0.135,0.527,1.546,0
-0.005,0.479,1.262,0
0.003,0.624,1.185,0
0.118,0.641,1.46,0
0.319,0.663,1.662,1
0.549,0.807,1.9,0
0.506,0.84,1.952,0
0.149,0.858,1.929,0
-0.188,0.699,1.632,0
-0.881,0.458,0.874,0
-1.056,0.322,0.544,0
-0.745,-0.037,0.343,0
-0.28,-0.136,0.494,0
0.448,-0.642,1.941,0
0.82,-0.849,2.972,0
0.606,-1.086,3.483,0
0.009,-1.355,3.171,0
-0.587,-1.653,1.54,0
-0.679,-1.586,0.488,0
-0.577,-1.385,-0.492,0
-0.457,-1.123,-0.825,0
-0.223,-0.829,-1.055,0
-0.01,-0.62,-1.154,0
0.276,-0.472,-1.442,0
0.277,-0.497,-1.532,0
0.167,-0.712,-1.324,0
0.05,-0.948,-1.06,0
-0.198,-1.209,-0.682,0
-0.331,-1.331,-0.554,0
-0.291,-1.324,-0.599,0
-0.117,-1.183,-0.803,0
0.323,-0.839,-1.384,0
0.467,-0.648,-1.77,0
0.714,-0.236,-2.183,0
0.832,-0.122,-2.45,0
0.641,0.023,-2.779,0
0.39,0.018,-2.711,0
-0.037,-0.093,-2.255,0
-0.211,-0.146,-2.076,0
-0.221,-0.143,-2.077,0
-0.528,-0.271,-1.657,0
-0.427,-0.137,-1.476,0
-0.324,-0.047,-1.271,0
-0.003,0.117,-0.931,0
0.029,0.213,-0.762,0
-0.007,0.147,-0.492,0
-0.076,0.072,-0.294,0
-0.198,0.02,0.192,0
-0.307,-0.062,0.427,0
-0.291,-0.044,0.421,0
-0.461,-0.089,1.007,0
-0.322,-0.158,1.045,0
-0.278,-0.166,1.017,0
-0.004,-0.006,1.26,0
0.184,0.089,1.419,0
0.332,0.237,1.817,0
0.548,0.364,2.207,0
0.906,0.68,2.641,0
0.934,0.76,2.636,1
0.898,0.579,1.934,0
0.85,0.492,1.604,0
0.646,0.443,1.588,0
0.475,0.444,1.728,0
0.201,0.42,1.941,0
0.034,0.439,1.95,0
0.218,0.585,1.666,0
0.721,0.607,1.182,0
1.675,0.718,0.501,0
2.146,0.696,0.544,0
2.256,0.181,1.757,0
1.762,-0.236,2.436,0
0.795,-0.949,2.961,0
0.52,-1.122,2.832,0
0.12,-1.384,2.473,0
-0.007,-1.484,1.779,0
-0.027,-1.23,0.324,0
0.25,-1.083,-0.446,0
0.58,-0.941,-0.952,0
0.738,-0.931,-0.843,0
1.026,-0.994,-0.558,0
1.071,-1.07,-0.459,0
1.069,-1.054,-0.465,0
0.777,-1.364,-0.258,0
0.329,-1.476,0.239,0
0.133,-1.454,0.42,0
0.272,-1.246,-0.05,0
0.695,-0.767,-0.975,0
1.007,-0.323,-2.254,0
1.23,-0.099,-2.861,0
1.459,0.368,-3.587,0
1.449,0.475,-3.66,0
1.118,0.43,-3.134,0
0.798,0.288,-2.716,0
0.214,0.184,-2.014,0
0.03,0.192,-1.733,0
-0.146,0.386,-1.469,0
-0.191,0.454,-1.29,0
-0.197,0.444,-1.287,0
0.22,0.739,-0.898,0
0.595,1.007,-0.752,0
0.76,1.079,-0.539,0
0.916,0.974,-0.103,0
0.852,0.846,0.224,0
0.822,0.664,0.949,0
0.803,0.482,1.299,0
0.701,0.378,1.778,0
0.799,0.356,1.91,0
0.926,0.182,1.614,0
0.908,0.124,1.349,0
0.927,0.093,1.363,0
0.974,0.101,0.899,0
0.983,0.064,0.915,0
1.244,0.241,1.815,0
1.066,0.38,1.537,0
1.286,0.609,1.156,0
1.959,0.588,0.324,0
2.021,0.597,0.222,1
1.617,0.534,0.657,0
1.054,0.322,1.009,0
0.34,0.023,1.275,0
0.179,0.008,1.333,0
0.578,0.211,1.388,0
1.147,0.355,1.346,0
2.08,0.414,1.93,0
2.253,0.146,2.647,0
2.032,-0.447,3.604,0
1.541,-0.753,3.823,0
1.124,-0.963,2.501,0
0.918,-0.947,1.16,0
0.81,-0.892,-0.597,0
0.869,-0.85,-1.234,0
0.645,-0.8,-1.436,0
0.486,-0.828,-1.111,0
0.657,-0.706,-0.568,0
0.91,-0.609,-0.57,0
1.305,-0.455,-0.707,0
1.422,-0.515,-0.758,0
1.399,-0.515,-0.76,0
1.257,-0.835,-0.395,0
1.163,-0.992,0.023,0
1.031,-1.111,-0.074,0
0.732,-1.225,-0.715,0
0.684,-1.252,-1.136,0
0.582,-1.266,-1.742,0
0.547,-1.184,-1.922,0
0.68,-0.906,-1.989,0
0.785,-0.756,-1.879,0
0.828,-0.548,-1.498,0
0.754,-0.494,-1.394,0
0.473,-0.447,-1.208,0
0.378,-0.374,-1.186,0
0.421,-0.168,-1.19,0
0.484,-0.088,-1.233,0
0.451,-0.054,-1.432,0
0.382,-0.037,-1.472,0
0.309,-0.082,-1.342,0
0.24,-0.096,-1.258,0
0.2,-0.092,-0.932,0
0.203,-0.081,-0.64,0
0.266,0.043,-0.236,0
0.349,0.185,-0.125,0
0.446,0.484,-0.013,0
0.476,0.594,-0.001,0
0.678,0.782,-0.178,0
0.811,0.91,-0.184,0
0.99,0.896,0.04,0
1.15,0.827,0.43,0
1.109,0.708,1.433,0
0.993,0.587,2.043,0
0.603,0.321,2.869,0
0.359,0.265,2.871,0
0.161,0.266,1.956,0
0.245,0.259,1.209,1
0.557,0.119,0.565,0
0.699,0.134,0.721,0
0.697,0.131,0.722,0
0.514,0.318,1.93,0
0.442,0.549,2.215,0
0.498,0.669,2.068,0
1.353,0.629,1.514,0
1.993,0.601,1.308,0
2.589,0.286,2.644,0
2.52,-0.097,3.921,0
2.02,-0.72,5.396,0
1.618,-0.981,5.311,0
0.943,-1.402,3.962,0
0.758,-1.524,2.561,0
0.958,-1.321,0.336,0
1.071,-1.101,-0.63,0
0.825,-1.097,-1.205,0
0.868,-1.06,-1.539,0
0.885,-0.891,-1.925,0
0.868,-0.929,-1.939,0
0.823,-1.105,-1.638,0
0.763,-1.137,-1.29,0
0.684,-1.187,-0.598,0
0.782,-1.151,-0.351,0
0.877,-1.046,-0.37,0
0.907,-0.938,-0.632,0
0.893,-0.775,-1.103,0
0.955,-0.674,-1.493,0
1.039,-0.347,-2.18,0
1.147,-0.097,-2.403,0
1.144,0.174,-2.203,0
1.103,0.335,-2.117,0
0.585,0.28,-1.886,0
0.312,0.178,-1.535,0
0.102,0.154,-0.963,0
0.044,0.154,-0.555,0
0.06,0.168,0.005,0
0.207,0.231,0.153,0
0.183,0.21,0.157,0
0.373,0.431,-0.223,0
0.707,0.572,-0.328,0
0.743,0.595,-0.333,0
0.512,0.629,-0.034,0
0.386,0.492,0.164,0
-0.157,0.222,0.876,0
-0.419,0.113,1.264,0
-0.524,0.158,1.461,0
-0.511,0.18,1.539,0
-0.518,0.152,1.548,0
-0.357,0.347,1.252,0
-0.093,0.502,1.341,0
0.205,0.583,1.689,0
0.239,0.641,2.253,0
0.162,0.645,2.396,0
0.157,0.615,2.406,0
0.341,0.402,1.443,1
0.031,0.26,1.082,0
-0.108,0.347,1.177,0
-0.113,0.314,1.188,0
-0.228,0.661,0.302,0
0.02,1.01,-0.726,0
0.338,1.187,-1.149,0
1.017,1.265,-1.297,0
1.333,1.111,-1.301,0
1.239,0.44,-0.052,0
1.028,-0.107,0.904,0
0.465,-0.696,1.916,0
-0.147,-1.018,2.276,0
-0.524,-1.388,2.474,0
-0.532,-1.295,1.762,0
-0.469,-1.103,-0.156,0
-0.304,-0.93,-1.025,0
0.193,-0.579,-2,0
0.174,-0.579,-2.002,0
0.518,-0.403,-2.059,0
0.542,-0.447,-1.696,0
0.406,-0.725,-0.59,0
0.234,-0.997,-0.113,0
-0.115,-1.166,0.168,0
-0.054,-1.132,0.003,0
0.391,-0.95,-0.524,0
0.692,-0.697,-0.818,0
0.678,-0.694,-0.821,0
1.256,-0.11,-1.372,0
1.195,0.074,-1.54,0
1.011,0.07,-1.413,0
0.5,0.036,-1.332,0
0.192,-0.023,-1.288,0
0.199,-0.007,-1.293,0
-0.109,-0.132,-1.474,0
0.016,-0.09,-1.67,0
0.113,-0.001,-1.669,0
0.474,0.298,-1.649,0
0.566,0.39,-1.463,0
0.547,0.551,-1.172,0
0.411,0.514,-1.096,0
0.082,0.399,-0.879,0
0.041,0.337,-0.651,0
0.027,0.267,-0.021,0
-0.024,0.266,0.463,0
-0.028,0.272,0.461,0
-0.018,0.33,1.013,0
-0.077,0.373,1.413,0
-0.027,0.349,1.64,0
0.13,0.408,1.6,0
0.246,0.419,1.584,0
0.559,0.582,1.625,0
0.715,0.643,1.515,0
0.674,0.785,1.246,0
0.565,0.717,1.049,0
0.416,0.59,0.605,0
0.295,0.527,0.525,1
0.304,0.524,0.527,0
-0.321,0.162,1.046,0
-0.308,0.27,1.05,0
-0.223,0.446,0.922,0
0.017,0.715,0.47,0
0.356,0.798,0.211,0
1.231,0.73,-0.028,0
1.589,0.636,0.335,0
1.697,0.092,2.073,0
1.59,-0.246,3.235,0
1.008,-0.663,4.187,0
0.565,-0.919,4.158,0
0.379,-0.962,2.799,0
0.426,-0.804,1.33,0
0.709,-0.549,-0.992,0
0.881,-0.411,-1.656,0
1.302,-0.1,-2.001,0
1.426,-0.033,-1.896,0
1.523,-0.004,-1.42,0
1.507,-0.086,-0.911,0
1.346,-0.356,-0.165,0
0.984,-0.588,0.059,0
0.417,-0.884,0.349,0
0.22,-1.04,0.447,0
0.345,-0.994,0.13,0
0.582,-0.86,-0.409,0
0.917,-0.578,-1.39,0
1.019,-0.391,-1.714,0
1.08,-0.166,-1.764,0
1.045,-0.053,-1.743,0
0.834,0.074,-1.81,0
0.741,0.052,-1.873,0
0.751,0.041,-1.87,0
0.579,0.184,-1.686,0
0.579,0.169,-1.682,0
0.676,0.275,-1.574,0
1.007,0.529,-1.646,0
1.072,0.599,-1.588,0
1.058,0.67,-1.105,0
0.972,0.594,-0.72,0
0.971,0.601,-0.723,0
0.509,0.303,0.13,0
0.072,0.042,0.477,0
-0.133,-0.017,0.622,0
-0.234,-0.066,0.592,0
-0.152,0.078,0.639,0
-0.052,0.216,0.978,0
-0.074,0.307,1.172,0
0,0.441,1.445,0
0.161,0.519,1.499,0
0.174,0.579,1.876,0
0.189,0.479,2.229,0
0.183,0.587,2.239,0
0.21,0.643,1.964,0
0.711,0.656,1.108,0
0.493,0.589,0.95,1
-0.337,0.371,1.111,0
-0.801,0.196,1.219,0
-0.803,0.177,1.225,0
-1.084,0.269,0.839,0
-0.772,0.519,0.828,0
-0.463,0.632,0.617,0
0.193,0.667,0.386,0
0.482,0.483,0.592,0
0.451,0.511,0.581,0
0.447,-0.166,2.164,0
0.084,-0.582,2.108,0
-0.302,-0.769,1.425,0
-0.637,-0.889,0.206,0
-0.625,-0.85,-0.361,0
-0.728,-0.783,-1.153,0
-0.583,-0.576,-1.36,0
-0.11,-0.248,-1.358,0
0.139,-0.14,-1.26,0
0.421,-0.082,-0.896,0
0.466,-0.2,-0.567,0
0.336,-0.461,-0.083,0
0.229,-0.574,-0.055,0
0.19,-0.534,-0.281,0
0.242,-0.445,-0.487,0
0.229,-0.355,-1.054,0
0.135,-0.291,-1.401,0
0.117,-0.265,-2.103,0
0.023,-0.223,-2.11,0
-0.073,-0.174,-1.583,0
-0.151,-0.092,-1.414,0
-0.21,0.087,-1.201,0
-0.231,0.193,-1.317,0
-0.215,0.444,-1.655,0
-0.124,0.593,-1.872,0
-0.131,0.712,-2.136,0
-0.201,0.722,-1.982,0
-0.261,0.78,-1.475,0
-0.263,0.751,-1.224,0
-0.538,0.685,-0.81,0
-0.637,0.622,-0.545,0
-0.577,0.631,-0.27,0
-0.483,0.682,-0.205,0
-0.378,0.683,-0.037,0
-0.212,0.679,0.092,0
-0.186,0.632,0.906,0
-0.189,0.59,1.387,0
-0.259,0.48,2.115,0
-0.214,0.442,2.301,0
-0.121,0.373,2.027,0
0.003,0.349,1.797,0
0.006,0.311,1.453,0
0.087,0.358,1.067,0
0.2,0.56,0.711,0
0.281,0.555,0.53,1
0.187,0.621,0.407,0
0.082,0.548,0.636,0
0.087,0.542,0.639,0
-0.783,0.207,1.852,0
-1.108,-0.053,2.243,0
-1.013,-0.114,2.231,0
-0.412,-0.04,2.271,0
0.25,-0.08,2.31,0
1.407,0.028,2.052,0
1.832,0.082,2.469,0
2.246,-0.041,3.401,0
2.07,-0.256,3.548,0
1.528,-0.652,2.45,0
1.181,-0.909,1.66,0
0.963,-1.154,0.918,0
0.878,-1.251,0.973,0
0.514,-1.361,1.139,0
0.497,-1.252,0.781,0
0.627,-1.034,0.009,0
0.751,-0.953,-0.461,0
0.986,-0.678,-0.994,0
1.118,-0.566,-1.148,0
1.186,-0.44,-1.263,0
1.156,-0.418,-1.447,0
1.069,-0.367,-1.911,0
1.024,-0.328,-2.145,0
1.043,-0.288,-2.438,0
1.009,-0.239,-2.422,0
0.906,-0.162,-2.446,0
0.875,-0.121,-2.552,0
0.758,0.033,-2.79,0
0.721,0.088,-3.005,0
0.739,0.281,-3.25,0
0.765,0.39,-3.218,0
0.719,0.442,-2.936,0
0.625,0.47,-2.486,0
0.635,0.476,-2.487,0
0.271,0.322,-1.12,0
0.135,0.353,-0.787,0
0.136,0.333,-0.585,0
0.3,0.324,-0.449,0
0.374,0.373,-0.563,0
0.496,0.483,-0.612,0
0.523,0.511,-0.506,0
0.7,0.65,-0.482,0
0.6,0.682,-0.126,0
0.6,0.687,-0.128,0
0.127,0.424,1.268,0
-0.375,0.157,2.035,0
-0.476,0.059,2.331,0
-0.288,0.133,2.717,0
-0.075,0.211,2.789,0
0.091,0.574,2.314,0
0.175,0.786,1.817,0
0.185,0.752,1.829,0
0.188,1.004,0.67,1
-0.181,1.031,0.199,0
-0.357,0.991,0.123,0
-0.639,0.819,0.141,0
-0.775,0.667,0.174,0
-0.613,0.34,0.575,0
-0.355,0.023,1.537,0
-0.405,0.069,1.518,0
0.374,-0.925,5.796,0
0.459,-1.132,6.554,0
0.594,-1.079,6.177,0
0.815,-0.766,3.275,0
0.632,-0.608,1.246,0
0.188,-0.667,-0.861,0
0.223,-0.575,-1.466,0
0.167,-0.549,-1.294,0
0.229,-0.527,-1.042,0
0.183,-0.522,-0.479,0
0.163,-0.643,-0.334,0
0.139,-0.648,-0.334,0
-0.029,-0.808,-1.022,0
0.015,-0.931,-1.57,0
0.106,-0.942,-1.73,0
0.195,-0.891,-1.597,0
0.043,-0.988,-1.21,0
-0.275,-1.179,-0.457,0
-0.44,-1.249,-0.406,0
-0.55,-1.186,-0.895,0
-0.464,-0.987,-1.485,0
-0.123,-0.479,-2.416,0
-0.006,-0.176,-2.742,0
0.257,0.264,-2.819,0
0.404,0.486,-2.953,0
0.389,0.762,-3.059,0
0.405,0.825,-3.004,0
0.29,0.83,-2.655,0
0.021,0.664,-2.148,0
-0.341,0.255,-1.345,0
-0.557,0.126,-1.022,0
-1.059,-0.099,-0.098,0
-1.134,-0.188,0.278,0
-0.887,-0.016,0.356,0
-0.675,0.207,0.127,0
-0.676,0.198,0.129,0
-0.134,0.806,-0.836,0
-0.031,0.986,-0.812,0
-0.076,0.96,-0.398,0
-0.248,0.731,0.428,0
-0.283,0.515,0.817,0
-0.288,0.519,0.815,0
-0.611,-0.026,2.215,0
-0.381,-0.04,2.779,0
-0.269,0.12,2.747,0
0.005,0.605,1.968,0
0.157,0.878,1.19,0
0.464,1.115,0.302,0
0.528,1.175,0.317,1
0.541,1.157,0.323,0
0.398,1.187,1.177,0
0.264,1.025,1.496,0
0.15,0.905,1.37,0
0.369,0.394,1.018,0
0.655,0.139,1.187,0
0.831,-0.503,3.048,0
0.873,-0.699,4.224,0
0.536,-0.967,5.71,0
0.347,-1,5.706,0
0.028,-1.244,4.248,0
-0.148,-1.334,2.749,0
-0.179,-1.225,0.449,0
-0.158,-1.213,-0.234,0
-0.347,-1.27,-0.869,0
-0.334,-1.207,-1.212,0
-0.194,-1.162,-1.71,0
0.006,-1.108,-1.774,0
0.552,-0.933,-1.617,0
0.708,-0.818,-1.361,0
0.811,-0.729,-0.858,0
0.885,-0.682,-0.706,0
1.104,-0.353,-0.781,0
1.245,-0.2,-1.056,0
1.256,-0.054,-2.026,0
1.18,-0.002,-2.413,0
1.04,0.012,-2.799,0
0.939,-0.031,-2.874,0
0.667,-0.144,-2.687,0
0.62,-0.17,-2.485,0
0.68,-0.055,-1.97,0
0.69,0.008,-1.506,0
0.698,0.011,-1.506,0
0.702,0.149,-0.727,0
0.594,0.167,-0.715,0
0.554,0.086,-0.785,0
0.5,0.065,-0.899,0
0.549,0.032,-0.883,0
0.689,0.058,-0.609,0
0.792,0.068,-0.354,0
0.905,0.049,0.118,0
0.824,-0.008,0.403,0
0.492,-0.11,0.703,0
0.257,-0.173,0.764,0
0.13,-0.173,0.541,0
0.195,-0.068,0.453,0
0.559,0.111,0.633,0
0.859,0.338,0.861,0
1.182,0.519,1.417,0
1.301,0.531,1.777,0
1.225,0.402,2.327,0
1.041,0.298,2.427,0
0.803,0.324,1.825,0
0.766,0.365,1.261,1
0.529,0.167,0.73,0
0.559,0.171,0.585,0
0.563,0.142,0.596,0
0.395,0.501,0.323,0
0.88,0.748,0.307,0
1.006,0.823,0.328,0
1.184,0.73,0.793,0
1.216,0.447,1.545,0
1.26,-0.213,3.248,0
1.258,-0.573,4.105,0
1.029,-0.995,5.016,0
0.612,-1.284,4.911,0
0.261,-1.461,2.855,0
0.34,-1.356,1.332,0
0.52,-1.064,-0.47,0
0.709,-0.94,-1.374,0
0.768,-0.91,-1.683,0
0.742,-0.908,-1.154,0
0.551,-1.099,-0.091,0
0.474,-1.259,0.449,0
0.507,-1.517,0.837,0
0.533,-1.564,0.716,0
0.464,-1.72,0.282,0
0.452,-1.734,-0.069,0
0.487,-1.642,-0.674,0
0.49,-1.595,-1.001,0
0.496,-1.612,-0.995,0
0.477,-1.14,-1.902,0
0.4,-0.878,-2.169,0
0.477,-0.691,-2.249,0
0.478,-0.343,-2.287,0
0.461,-0.245,-2.32,0
0.408,-0.133,-2.557,0
0.392,-0.09,-2.443,0
0.381,-0.097,-1.679,0
0.293,-0.106,-1.182,0
0.268,-0.08,-0.651,0
0.32,-0.016,-0.609,0
0.522,0.117,-0.745,0
0.528,0.149,-0.804,0
0.56,0.206,-0.773,0
0.464,0.179,-0.586,0
0.475,0.19,-0.589,0
0.073,-0.023,-0.469,0
0.084,-0.017,-0.47,0
-0.08,0.042,-0.173,0
0.034,0.27,-0.439,0
0.08,0.401,-0.534,0
0.295,0.759,-0.666,0
0.462,0.907,-0.672,0
0.686,0.903,-0.379,0
0.729,0.942,-0.05,0
0.834,0.837,0.928,0
0.846,0.637,1.237,0
0.726,0.458,1.602,0
0.511,0.141,1.992,0
0.149,0.032,1.777,0
-0.189,-0.012,1.334,1
-0.171,-0.024,1.34,0
0.029,-0.119,0.656,0
0.087,0.053,1.601,0
0.31,0.329,2.244,0
0.616,0.662,2.569,0
0.776,0.716,2.301,0
1.395,0.651,2.16,0
1.681,0.505,2.195,0
1.755,0.027,2.436,0
1.657,-0.275,2.561,0
1.23,-0.768,2.586,0
1.036,-0.89,2.464,0
0.852,-0.938,1.846,0
0.732,-0.819,1.448,0
0.558,-0.911,1.321,0
0.407,-1.057,1.29,0
-0.043,-1.182,1.137,0
-0.043,-1.225,0.849,0
-0.033,-1.211,0.846,0
0.321,-1.066,-0.406,0
0.741,-0.862,-0.901,0
0.897,-0.727,-0.76,0
1.092,-0.558,-0.376,0
1.018,-0.412,-0.375,0
0.756,-0.411,-0.644,0
0.595,-0.406,-0.772,0
0.398,-0.315,-1.072,0
0.422,-0.307,-1.27,0
0.434,-0.21,-1.222,0
0.558,-0.143,-1.275,0
0.748,0.033,-1.622,0
0.824,0.117,-1.678,0
0.932,0.189,-1.736,0
0.976,0.241,-1.733,0
0.99,0.213,-1.65,0
0.89,0.174,-1.538,0
0.738,0.054,-0.905,0
0.779,0.074,-0.429,0
0.977,0.164,-0.112,0
1.034,0.195,-0.22,0
0.977,0.24,-0.611,0
0.933,0.243,-0.671,0
0.917,0.256,-0.533,0
0.907,0.243,-0.329,0
0.804,0.19,0.281,0
0.717,0.189,0.566,0
0.638,0.196,1.085,0
0.664,0.235,1.361,0
0.58,0.251,1.562,0
0.581,0.262,1.475,0
0.649,0.394,0.945,0
0.789,0.458,0.603,0
0.796,0.427,0.614,0
1.059,0.378,0.393,0
1.001,0.169,0.822,0
1.02,0.099,0.921,0
1.009,0.092,1.081,0
1.089,0.171,1.224,1
1.075,0.127,1.237,0
1.077,0.389,1.271,0
1.271,0.645,1.008,0
1.39,0.75,1.032,0
1.414,0.835,1.359,0
1.282,0.806,1.45,0
0.873,0.538,1.157,0
0.541,0.233,0.923,0
0.143,-0.147,0.707,0
0.127,-0.194,0.647,0
0.121,-0.208,0.652,0
0.972,-0.202,0.894,0
1.478,-0.154,1,0
1.731,-0.122,1.039,0
1.698,-0.315,0.975,0
1.413,-0.516,0.767,0
0.86,-0.852,0.595,0
0.601,-0.959,0.661,0
0.33,-1.248,0.955,0
0.155,-1.392,0.926,0
-0.051,-1.466,0.49,0
0.065,-1.366,0.126,0
0.498,-1.074,-0.309,0
0.696,-0.974,-0.302,0
0.851,-0.918,-0.564,0
0.832,-0.916,-0.554,0
0.634,-1.242,-0.519,0
0.557,-1.249,-0.514,0
0.39,-1.31,-0.525,0
0.302,-1.328,-0.728,0
0.338,-1.213,-1.321,0
0.386,-1.066,-1.58,0
0.515,-0.708,-1.488,0
0.597,-0.525,-1.347,0
0.524,-0.35,-1.125,0
0.357,-0.409,-0.922,0
0.098,-0.544,-0.623,0
-0.019,-0.544,-0.545,0
-0.062,-0.477,-0.607,0
0.046,-0.414,-0.687,0
0.405,-0.07,-0.963,0
0.601,0.115,-1.084,0
0.945,0.415,-1.326,0
1.126,0.501,-1.557,0
1.005,0.349,-1.242,0
0.69,0.083,-0.655,0
0.305,-0.204,0.165,0
0.118,-0.364,0.374,0
-0.189,-0.417,0.703,0
-0.052,-0.312,0.757,0
0.267,0.001,-0.165,0
0.437,0.216,-0.847,0
0.624,0.497,-1.184,0
0.735,0.566,-0.96,0
0.695,0.564,0.061,0
0.523,0.456,0.767,0
0.254,0.003,1.778,0
0.069,-0.234,2.273,0
-0.058,-0.454,2.819,0
0.007,-0.544,2.891,0
0.155,-0.485,2.342,0
0.213,-0.444,1.688,1
0.158,-0.208,0.767,0
0.132,-0.069,0.518,0
0.07,-0.054,0.363,0
-0.178,0.028,0.76,0
-0.412,0.228,1.558,0
-0.355,0.309,1.749,0
-0.16,0.216,1.429,0
0.132,0.086,1.165,0
0.118,0.082,1.166,0
1.124,-0.228,0.823,0
1.657,-0.47,1.382,0
1.791,-0.622,1.88,0
1.727,-0.771,2.2,0
1.414,-0.82,1.974,0
0.628,-1.221,1.536,0
0.456,-1.232,1.145,0
0.24,-1.061,0.377,0
0.152,-1.071,0.07,0
0.168,-1.021,-0.111,0
0.345,-0.935,-0.247,0
0.65,-0.742,-0.35,0
0.844,-0.73,-0.507,0
1.175,-0.66,-0.742,0
1.305,-0.716,-0.833,0
1.416,-0.809,-0.71,0
1.353,-0.876,-0.456,0
1.282,-0.783,-0.228,0
1.34,-0.685,-0.249,0
1.473,-0.435,-0.62,0
1.497,-0.203,-1.015,0
1.503,-0.199,-1.016,0
1.319,0.117,-1.754,0
1.129,0.199,-1.833,0
1.065,0.231,-1.892,0
1.049,0.262,-1.959,0
1.063,0.273,-1.809,0
0.909,0.142,-1.393,0
0.766,0.081,-1.182,0
0.651,0.053,-0.834,0
0.671,0.022,-0.524,0
0.728,0.039,-0.094,0
0.698,0.037,0.115,0
0.747,0.131,0.584,0
0.797,0.16,0.797,0
0.662,0.188,0.949,0
0.611,0.207,0.827,0
0.563,0.207,0.484,0
0.669,0.288,0.164,0
0.725,0.297,0.183,0
0.747,0.281,0.462,0
0.707,0.329,0.754,0
0.696,0.286,0.826,0
0.724,0.581,0.635,0
0.873,0.757,0.688,0
0.882,0.747,0.692,0
1.447,1.001,1.123,0
1.728,0.951,1.11,0
1.782,0.831,1.122,1
1.784,0.808,1.129,0
1.996,0.558,1.134,0
2.011,0.541,1.141,0
1.268,0.147,2.247,0
0.391,-0.063,2.329,0
0.028,-0.158,1.805,0
-0.06,-0.089,0.688,0
-0.108,-0.144,0.411,0
0.302,0.137,0.142,0
0.737,0.416,-0.306,0
1.086,0.712,-1.272,0
1.314,0.854,-1.341,0
1.991,0.912,-1.132,0
2.259,0.841,-0.443,0
2.436,0.137,1.757,0
2.395,-0.334,3.039,0
1.37,-1.307,4.912,0
0.795,-1.813,5.736,0
0.134,-2.067,5.043,0
-0.15,-2.136,3.762,0
-0.28,-1.912,0.939,0
-0.145,-1.646,0.148,0
0.349,-1.151,-0.716,0
0.722,-0.846,-0.79,0
1.367,-0.401,-0.773,0
1.456,-0.434,-0.554,0
1.426,-0.783,-0.184,0
1.413,-0.92,-0.108,0
1.065,-1.292,-0.072,0
0.929,-1.494,-0.031,0
0.814,-1.565,-0.173,0
0.818,-1.524,-0.533,0
0.6,-1.49,-1.355,0
0.483,-1.399,-1.811,0
0.511,-1.192,-2.103,0
0.534,-1.135,-1.937,0
0.578,-0.976,-1.393,0
0.484,-1.013,-1.065,0
0.353,-0.993,-0.71,0
0.405,-0.977,-0.553,0
0.649,-0.835,-0.811,0
0.757,-0.704,-1.163,0
0.977,-0.443,-1.668,0
0.982,-0.339,-1.652,0
0.976,-0.321,-1.323,0
0.892,-0.296,-1.112,0
0.823,-0.224,-0.782,0
0.861,-0.151,-0.666,0
0.926,-0.063,-0.344,0
0.883,0.032,-0.157,0
0.882,0.054,-0.165,0
0.551,0.015,-0.056,0
0.581,0.073,-0.619,0
0.706,0.156,-0.755,0
0.88,0.211,-0.356,0
0.86,0.28,-0.005,0
0.86,0.301,-0.013,0
0.625,0.159,0.921,0
0.447,0.042,0.963,0
0.387,0.023,0.871,0
0.44,-0.134,0.912,0
0.608,-0.106,1.184,0
0.79,-0.091,1.968,0
0.923,-0.078,2.212,0
1.059,0.002,1.858,0
1.041,0.07,1.453,1
0.819,-0.034,0.892,0
0.618,-0.029,0.442,0
0.294,0.054,0.179,0
0.087,0.078,0.344,0
-0.069,0.018,0.982,0
-0.025,-0.15,1.311,0
0.3,-0.402,1.686,0
0.654,-0.666,2.004,0
1.629,-0.985,3.087,0
2.056,-1.01,3.697,0
2.254,-1.126,4.233,0
2.087,-1.27,4.129,0
1.585,-1.519,2.838,0
1.149,-1.631,2.012,0
0.713,-1.733,1.102,0
0.719,-1.62,0.741,0
0.866,-1.346,0.158,0
0.899,-1.362,-0.226,0
0.919,-1.372,-0.221,0
1.435,-0.98,-1.601,0
1.821,-0.728,-1.962,0
2.094,-0.569,-1.939,0
2.213,-0.595,-1.418,0
2.053,-0.746,-0.839,0
1.547,-1.025,0.047,0
1.255,-1.131,0.387,0
0.888,-1.123,0.451,0
0.821,-1.013,0.213,0
0.788,-0.863,-0.695,0
0.803,-0.655,-1.09,0
1.064,-0.395,-1.485,0
1.194,-0.164,-1.596,0
1.563,0.154,-1.734,0
1.745,0.292,-1.742,0
1.889,0.458,-1.638,0
1.789,0.401,-1.227,0
1.296,0.097,-0.413,0
1.007,-0.004,-0.114,0
0.621,-0.122,0.096,0
0.599,-0.141,0.071,0
0.863,0.133,-0.215,0
1.121,0.303,-0.324,0
1.47,0.585,-0.41,0
1.508,0.656,-0.4,0
1.51,0.666,-0.403,0
1.244,0.64,-0.662,0
0.889,0.532,-0.486,0
0.577,0.363,-0.08,0
0.291,0.305,0.314,0
0.308,0.379,0.452,0
0.567,0.673,0.393,0
0.744,0.913,0.116,0
0.872,1.156,-0.298,0
0.947,1.264,-0.454,0
0.901,1.319,-0.379,0
0.813,1.236,-0.078,0
0.677,1.122,0.52,0
0.54,1.012,1.077,0
0.218,0.796,1.923,0
-0.065,0.779,2.094,1
-0.344,0.666,1.895,0
-0.337,0.652,1.458,0
-0.187,0.709,1.122,0
0.021,0.758,1.3,0
0.082,0.901,1.811,0
0.182,0.948,1.974,0
0.263,1.002,1.469,0
0.288,0.99,0.988,0
0.283,0.999,0.984,0
0.263,0.62,0.99,0
0.255,0.65,0.981,0
-0.135,-0.066,2.291,0
-0.137,-0.467,2.525,0
-0.1,-0.697,2.474,0
0.07,-0.821,2.308,0
0.037,-0.815,2.19,0
-0.009,-0.845,1.293,0
-0.074,-0.738,0.561,0
-0.104,-0.596,-0.474,0
-0.061,-0.487,-0.914,0
-0.147,-0.353,-0.846,0
-0.12,-0.321,-0.679,0
-0.146,-0.29,-0.743,0
-0.232,-0.337,-0.89,0
-0.384,-0.495,-1.115,0
-0.427,-0.621,-1.23,0
-0.399,-0.612,-1.295,0
-0.278,-0.556,-1.333,0
-0.149,-0.397,-1.3,0
-0.141,-0.32,-1.315,0
-0.225,-0.296,-1.494,0
-0.26,-0.31,-1.542,0
-0.184,-0.321,-1.391,0
-0.187,-0.296,-1.177,0
-0.196,-0.292,-1.178,0
-0.584,-0.493,-0.557,0
-0.894,-0.595,-0.584,0
-0.853,-0.549,-0.669,0
-0.484,-0.167,-0.859,0
-0.243,0.068,-0.926,0
0.038,0.403,-1.122,0
0.126,0.565,-1.41,0
0.293,0.78,-1.994,0
0.271,0.799,-2.177,0
0.048,0.74,-2.078,0
-0.208,0.605,-1.781,0
-0.495,0.444,-1.09,0
-0.591,0.402,-0.793,0
-0.795,0.345,-0.24,0
-0.86,0.312,0.234,0
-0.73,0.576,0.47,0
-0.666,0.722,0.305,0
-0.511,0.901,-0.048,0
-0.408,0.981,-0.342,0
-0.421,0.989,-0.142,0
-0.472,0.833,0.434,0
-0.564,0.61,1.472,0
-0.524,0.513,1.687,0
-0.423,0.401,1.775,0
-0.566,0.29,2.008,0
-0.638,0.141,2.18,0
-0.765,0.248,1.954,1
-0.992,0.443,1.145,0
-0.966,0.49,0.622,0
-0.951,0.478,0.626,0
-0.862,0.436,0.177,0
-0.81,0.447,0.72,0
-0.864,0.367,1.145,0
-0.865,0.165,1.322,0
-0.742,0.076,1.325,0
-0.572,-0.12,1.333,0
-0.353,-0.208,1.236,0
-0.014,-0.364,1.282,0
0.132,-0.453,1.654,0
0.408,-0.515,2.38,0
0.295,-0.543,2.431,0
-0.059,-0.786,2.096,0
-0.185,-0.854,1.687,0
-0.17,-0.979,1.067,0
-0.069,-0.862,0.553,0
0.224,-0.612,0.14,0
0.449,-0.438,0.239,0
0.814,-0.126,-0.043,0
0.933,0.006,-0.437,0
0.926,-0.018,-0.942,0
0.818,-0.104,-1.1,0
0.432,-0.376,-1.086,0
0.202,-0.533,-0.921,0
-0.055,-0.697,-0.624,0
-0.077,-0.717,-0.573,0
0.095,-0.564,-0.706,0
0.181,-0.476,-0.922,0
0.362,-0.224,-1.627,0
0.342,-0.036,-2.071,0
0.235,0.132,-2.403,0
0.283,0.218,-2.453,0
0.247,0.407,-2.389,0
0.222,0.451,-2.27,0
0.116,0.444,-1.813,0
-0.02,0.364,-1.597,0
-0.126,0.271,-1.208,0
-0.114,0.231,-1.109,0
-0.193,0.157,-1.152,0
-0.174,0.186,-1.228,0
0.101,0.382,-1.094,0
0.298,0.538,-0.956,0
0.362,0.662,-0.696,0
0.292,0.68,-0.617,0
0.198,0.724,-0.447,0
0.005,0.673,-0.312,0
-0.367,0.56,-0.179,0
-0.443,0.554,-0.073,0
-0.555,0.554,0.144,0
-0.472,0.641,0.27,0
-0.281,0.774,0.617,0
-0.161,0.85,0.838,0
-0.13,0.965,1.273,0
-0.212,0.889,1.602,0
-0.423,0.74,1.858,0
-0.608,0.611,1.835,0
-0.73,0.563,1.563,0
-0.775,0.572,1.349,1
-0.847,0.587,1.104,0
-0.771,0.653,1.095,0
-0.864,0.616,1.27,0
-1.114,0.588,1.289,0
-1.4,0.381,1.288,0
-1.357,0.141,1.439,0
-1.126,-0.165,2.574,0
-0.758,-0.275,3.264,0
-0.452,-0.591,4.52,0
-0.429,-0.833,5,0
-0.646,-1.209,4.708,0
-0.917,-1.358,3.745,0
-1.168,-1.368,1.374,0
-1.191,-1.294,0.061,0
-1.369,-1.401,-1.2,0
-1.246,-1.279,-1.671,0
-1.294,-1.294,-1.943,0
-1.118,-1.137,-2.111,0
-0.651,-0.727,-2.117,0
-0.462,-0.673,-1.972,0
-0.409,-0.731,-1.551,0
-0.68,-0.929,-1.045,0
-1.086,-1.439,-0.334,0
-1.133,-1.543,-0.21,0
-1.108,-1.65,-0.053,0
-1.035,-1.668,-0.032,0
-0.736,-1.433,-0.288,0
-0.518,-1.122,-0.575,0
-0.33,-0.872,-1.297,0
-0.179,-0.639,-1.719,0
-0.024,-0.371,-2.416,0
-0.02,-0.267,-2.663,0
-0.059,-0.126,-2.602,0
-0.13,-0.129,-2.337,0
-0.367,-0.139,-1.901,0
-0.492,-0.205,-1.803,0
-0.606,-0.234,-1.806,0
-0.647,-0.228,-1.781,0
-0.66,-0.188,-1.583,0
-0.618,-0.103,-1.455,0
-0.512,0.025,-1.294,0
-0.46,0.157,-1.241,0
-0.402,0.314,-0.99,0
-0.428,0.369,-0.6,0
-0.541,0.443,-0.048,0
-0.552,0.457,-0.052,0
-0.816,0.454,0.411,0
-0.846,0.459,0.711,0
-0.721,0.461,0.996,0
-0.636,0.418,1.088,0
-0.44,0.388,1.22,0
-0.311,0.359,1.398,0
-0.174,0.489,1.86,0
-0.07,0.61,1.77,0
-0.036,0.833,1.277,0
-0.017,0.914,0.981,0
-0.095,0.941,0.676,0
-0.135,0.978,0.617,1
-0.036,0.951,0.838,0
-0.027,0.834,1.323,0
0.012,0.409,2.226,0
0.094,0.152,2.699,0
0.275,-0.228,3.487,0
0.459,-0.481,4.411,0
0.458,-0.72,5.662,0
0.36,-0.681,6.268,0
0.179,-0.955,6.2,0
-0.001,-1.063,5.349,0
-0.21,-1.174,2.775,0
-0.134,-1.176,1.496,0
0.007,-1.005,0.235,0
-0.098,-1.053,-0.192,0
-0.15,-1.117,-0.636,0
0.093,-1.02,-0.657,0
0.555,-0.765,-0.535,0
0.805,-0.619,-0.582,0
1,-0.444,-0.69,0
0.918,-0.507,-0.575,0
0.444,-0.777,-0.28,0
0.191,-0.948,-0.321,0
0.216,-0.97,-0.314,0
-0.045,-1.06,-1.015,0
0.193,-0.816,-1.65,0
0.328,-0.635,-1.917,0
0.654,-0.377,-2.124,0
0.991,-0.096,-2.355,0
1.116,0.224,-2.771,0
1.036,0.182,-2.749,0
0.62,-0.019,-2.394,0
0.268,-0.275,-2.139,0
-0.036,-0.515,-1.763,0
-0.015,-0.53,-1.517,0
0.241,-0.378,-1.579,0
0.485,-0.201,-1.798,0
0.813,0.047,-2.134,0
0.901,0.132,-2.238,0
1.021,0.206,-2.281,0
1.013,0.239,-2.155,0
1.125,0.219,-1.465,0
1.162,0.236,-1.154,0
0.668,0.133,-0.49,0
0.643,0.108,-0.484,0
0.719,0.103,-0.23,0
0.55,0.015,0.121,0
0.414,-0.047,0.645,0
0.575,-0.027,0.954,0
0.533,0.252,1.543,0
0.498,0.256,1.869,0
0.752,0.481,1.692,0
0.686,0.552,1.612,0
0.592,0.54,1.417,0
0.455,0.615,1.365,0
0.382,0.635,1.195,0
0.197,0.663,1.127,1
-0.38,0.716,0.89,0
-0.664,0.741,0.8,0
-0.961,0.678,0.496,0
-1.021,0.554,0.591,0
-0.575,0.28,1.332,0
-0.178,0.16,1.896,0
0.661,-0.026,2.962,0
0.813,-0.299,4.033,0
0.356,-0.896,5.156,0
-0.252,-1.202,4.744,0
-0.612,-1.203,2.399,0
-0.541,-1.185,0.722,0
-0.434,-1.046,-1.044,0
-0.122,-0.827,-1.482,0
0.033,-0.724,-0.774,0
0.012,-0.697,-0.785,0
0.204,-0.631,0.913,0
0.105,-0.762,0.906,0
-0.037,-0.932,0.3,0
0.023,-1.035,-0.047,0
0.179,-1.165,-0.309,0
0.108,-1.249,-0.468,0
0.057,-1.373,-0.997,0
-0.133,-1.482,-1.452,0
-0.29,-1.432,-2.066,0
-0.153,-1.25,-2.489,0
-0.056,-1.075,-2.818,0
0.046,-0.921,-2.67,0
0.393,-0.506,-2.335,0
0.421,-0.415,-2.123,0
0.256,-0.258,-1.933,0
0.018,-0.245,-1.815,0
-0.312,-0.403,-1.57,0
-0.493,-0.382,-1.395,0
-0.556,-0.261,-1.125,0
-0.398,-0.105,-1.032,0
-0.007,0.166,-1.156,0
0.062,0.283,-1.148,0
0.14,0.317,-0.941,0
0.015,0.372,-0.706,0
-0.153,0.271,-0.069,0
-0.231,0.182,0.062,0
-0.553,0.07,0.033,0
-0.803,-0.042,0.055,0
-1.101,-0.037,0.206,0
-1.062,0.113,0.226,0
-1.04,0.125,0.223,0
-0.636,0.642,0.172,0
-0.422,0.718,0.395,0
-0.22,0.914,0.99,0
0.269,0.991,2.136,0
0.398,1.037,2.324,0
-0.032,0.95,2.94,0
-0.176,0.944,2.814,1
-0.145,0.943,2.815,0
-0.487,0.54,1.673,0
-0.682,0.616,1.119,0
-0.485,0.42,1.274,0
-0.473,0.41,1.278,0
-0.01,0.212,1.315,0
0.469,0.045,1.323,0
0.908,-0.09,1.25,0
1.304,-0.542,2.197,0
1.287,-0.956,3.231,0
0.825,-1.377,4.4,0
0.128,-1.593,4.54,0
-0.537,-1.819,3.522,0
-0.403,-1.689,2.526,0
0.105,-1.416,0.771,0
0.291,-1.287,-0.118,0
0.442,-1.127,-0.739,0
0.714,-1.049,-1.024,0
0.988,-0.685,-1.917,0
1.23,-0.55,-2.013,0
1.429,-0.559,-1.333,0
1.265,-0.626,-0.793,0
0.96,-0.877,-0.063,0
0.85,-0.845,0.234,0
0.797,-0.896,-0.02,0
0.677,-0.895,-0.596,0
0.57,-0.771,-1.577,0
0.67,-0.702,-2.035,0
0.828,-0.356,-2.353,0
0.867,-0.134,-2.204,0
0.961,0.059,-1.577,0
0.903,0.164,-1.169,0
0.597,0.065,-0.759,0
0.357,-0.037,-0.848,0
0.02,-0.176,-1.39,0
0.005,-0.142,-1.736,0
0.234,-0.01,-2.227,0
0.383,0.102,-2.24,0
0.826,0.357,-1.802,0
0.893,0.43,-1.428,0
0.823,0.364,-0.592,0
0.733,0.246,-0.334,0
0.72,0.242,-0.334,0
0.364,0.032,0.385,0
0.252,0.068,0.395,0
0.237,0.13,0.341,0
0.364,0.195,0.01,0
0.209,0.324,-0.031,0
0.217,0.302,-0.024,0
0.013,0.479,0.381,0
0.004,0.456,0.388,0
0.002,0.569,1.482,0
0.213,0.499,1.979,0
0.219,0.423,2.258,0
0.016,0.301,2.607,0
-0.152,0.277,2.662,0
-0.362,0.207,2.101,0
-0.491,0.217,1.695,1
-0.686,0.496,1.404,0
-0.724,0.661,1.037,0
-0.733,0.634,1.045,0
-0.638,0.904,-0.251,0
-0.355,0.574,-0.253,0
-0.147,0.268,0.236,0
0.145,-0.44,1.976,0
0.211,-0.831,3.17,0
-0.059,-1.46,4.706,0
-0.296,-1.622,5.077,0
-0.584,-1.558,3.872,0
-0.424,-1.293,2.419,0
-0.206,-0.996,-0.03,0
-0.22,-0.895,-0.959,0
-0.01,-0.762,-1.943,0
0.031,-0.601,-2.086,0
-0.095,-0.665,-1.493,0
-0.073,-0.759,-1.031,0
-0.082,-0.868,-0.45,0
0.042,-0.989,-0.225,0
0.402,-0.877,-0.39,0
0.632,-0.72,-0.672,0
0.861,-0.619,-0.962,0
0.743,-0.612,-1.009,0
0.297,-0.69,-1.035,0
0.101,-0.778,-1.078,0
0.004,-0.768,-1.2,0
-0.054,-0.746,-1.293,0
0.029,-0.557,-1.624,0
0.01,-0.487,-1.7,0
-0.126,-0.276,-1.666,0
-0.195,-0.158,-1.562,0
-0.194,-0.155,-1.563,0
-0.238,0.048,-1.252,0
0.163,0.391,-1.411,0
0.152,0.383,-1.409,0
0.08,0.41,-1.267,0
-0.028,0.36,-1.077,0
-0.158,0.303,-0.867,0
-0.24,0.254,-0.748,0
-0.339,0.225,-0.65,0
-0.283,0.182,-0.641,0
-0.171,0.249,-0.238,0
-0.123,0.302,0.088,0
-0.202,0.328,0.353,0
-0.304,0.42,0.545,0
-0.271,0.567,0.953,0
-0.146,0.607,1.007,0
-0.2,0.479,1.153,0
-0.208,0.449,1.152,0
-0.101,0.43,1.564,0
-0.036,0.34,1.772,0
-0.039,0.317,1.78,0
-0.521,0.151,1.128,0
-0.847,0.119,0.322,0
-1,0.082,0.09,1
-0.819,0.178,0.52,0
-0.848,0.14,0.968,0
-0.759,0.323,1.662,0
-0.557,0.409,1.743,0
-0.211,0.589,1.797,0
0.074,0.768,1.725,0
0.528,0.909,0.576,0
0.894,0.947,-0.07,0
1.102,0.628,0.254,0
0.823,0.171,1.514,0
0.039,-0.585,3.369,0
-0.702,-1.025,3.946,0
-1.575,-1.649,3.876,0
-1.603,-1.672,2.984,0
-0.965,-1.335,0.703,0
-0.384,-0.946,-0.111,0
0.133,-0.602,-0.301,0
0.253,-0.477,-0.417,0
0.074,-0.51,-0.666,0
0.03,-0.609,-0.693,0
-0.199,-1.003,-0.554,0
-0.469,-1.227,-0.65,0
-0.835,-1.574,-0.926,0
-0.919,-1.584,-0.609,0
-0.539,-1.268,-0.279,0
-0.051,-0.96,-0.452,0
0.429,-0.48,-1.304,0
0.506,-0.287,-1.748,0
0.484,-0.144,-2.215,0
0.286,-0.201,-2.463,0
-0.138,-0.322,-2.894,0
-0.185,-0.363,-2.988,0
0.067,-0.2,-2.897,0
0.141,-0.286,-2.645,0
0.364,-0.11,-2.112,0
0.329,-0.092,-1.712,0
0.318,-0.103,-1.709,0
0.474,0.01,-0.531,0
0.588,0.078,-0.324,0
0.667,0.133,-0.362,0
0.693,0.208,-0.51,0
0.609,0.103,-0.469,0
0.418,-0.001,-0.314,0
0.086,-0.184,-0.095,0
0.107,-0.183,-0.095,0
-0.47,-0.436,0.161,0
-0.396,-0.264,0.068,0
-0.121,-0.122,-0.152,0
-0.104,-0.136,-0.146,0
-0.198,0.312,-0.038,0
-0.424,0.4,0.743,0
-0.582,0.422,0.913,0
-0.695,0.319,1.016,0
-0.556,0.292,1.118,0
-0.476,0.364,1.327,0
-0.443,0.476,1.281,0
-0.457,0.458,1.287,0
-0.436,0.431,1.419,1
-0.761,0.415,1.108,0
-1.224,0.353,1.142,0
-1.373,0.32,0.987,0
-1.34,0.37,0.818,0
-0.87,0.484,0.983,0
-0.232,0.544,1.199,0
0.512,0.447,1.984,0
0.773,0.283,2.989,0
0.755,-0.382,4.26,0
0.208,-0.694,4.557,0
-0.367,-0.927,3.354,0
-0.463,-0.94,2.02,0
-0.713,-0.922,0.017,0
-0.794,-0.854,-0.796,0
-0.904,-0.76,-1.595,0
-0.958,-0.875,-1.742,0
-0.682,-0.72,-1.252,0
-0.621,-0.776,-0.751,0
-0.641,-0.941,-0.047,0
-0.783,-1.108,0.292,0
-0.982,-1.387,0.334,0
-0.975,-1.387,0.038,0
-0.642,-1.204,-0.761,0
-0.437,-1.061,-1.184,0
-0.144,-0.778,-1.871,0
-0.282,-0.843,-2.193,0
-0.503,-0.824,-2.474,0
-0.637,-0.711,-2.469,0
-0.847,-0.62,-2.172,0
-0.882,-0.43,-2,0
-0.883,-0.14,-1.799,0
-0.928,0.058,-1.754,0
-0.989,0.253,-1.697,0
-1.009,0.309,-1.743,0
-0.963,0.397,-1.723,0
-0.836,0.421,-1.672,0
-0.854,0.424,-1.673,0
-0.562,0.496,-0.919,0
-0.614,0.455,-0.344,0
-0.648,0.47,0.041,0
-0.66,0.491,0.035,0
-0.902,0.378,0.805,0
-1.288,0.213,1.059,0
-1.392,0.159,1.15,0
-1.41,0.268,1.334,0
-1.264,0.354,1.289,0
-1.267,0.348,1.291,0
-0.921,0.599,0.829,0
-0.547,0.602,1.201,0
-0.487,0.526,1.367,0
-0.525,0.333,2.026,0
-0.609,0.272,2.605,0
-0.882,0.378,2.888,0
-1.004,0.454,2.344,1
-0.951,0.55,1.355,0
-0.684,0.631,1.02,0
-0.675,0.601,1.029,0
-0.083,1.056,1.038,0
0.325,1.17,1.365,0
0.35,1.195,1.471,0
0.251,0.927,1.493,0
0.179,0.662,1.441,0
0.057,-0.032,2.368,0
0.186,-0.175,3.273,0
0.285,-0.412,4.551,0
0.059,-0.677,4.933,0
-0.415,-1.018,3.613,0
-0.796,-1.236,2.392,0
-0.916,-1.546,0.533,0
-0.823,-1.64,-0.471,0
-0.816,-1.583,-1.317,0
-0.733,-1.693,-1.14,0
-0.646,-1.78,-0.895,0
-0.782,-1.763,-0.58,0
-0.686,-1.841,-0.042,0
-0.65,-1.76,0.013,0
-0.474,-1.632,-0.384,0
-0.343,-1.499,-0.897,0
-0.002,-1.315,-1.741,0
0.242,-1.117,-2.158,0
0.508,-0.777,-2.623,0
0.547,-0.637,-2.752,0
0.627,-0.371,-2.872,0
0.432,-0.378,-2.841,0
0.281,-0.366,-2.855,0
0.153,-0.346,-2.71,0
-0.003,-0.332,-2.348,0
0.019,-0.273,-2.083,0
0.13,-0.153,-2.005,0
0.154,-0.085,-2.075,0
0.221,-0.102,-2.221,0
0.192,-0.06,-2.152,0
0.213,-0.085,-1.664,0
0.212,-0.07,-1.345,0
0.221,-0.043,-0.937,0
0.296,-0.002,-0.946,0
0.391,0.176,-1.185,0
0.302,0.259,-0.881,0
0.083,0.064,0.083,0
-0.192,-0.019,0.205,0
-0.774,-0.195,0.362,0
-1.039,-0.356,0.7,0
-0.975,-0.258,0.929,0
-0.838,-0.119,0.987,0
-0.578,0.191,1.101,0
-0.392,0.34,1.296,0
-0.266,0.578,1.903,0
-0.239,0.695,2.117,0
-0.203,0.806,1.942,0
-0.157,0.815,1.554,0
-0.136,0.806,1.558,0
-0.069,0.769,0.963,1
-0.399,0.855,1.216,0
-0.396,0.781,1.294,0
-0.538,0.64,1.238,0
-0.651,0.459,1.593,0
-0.471,0.022,2.944,0
-0.195,-0.15,3.631,0
-0.239,-0.57,4.458,0
-0.262,-0.893,4.748,0
-0.52,-1.361,4.313,0
-0.842,-1.473,3.579,0
-0.827,-1.345,1.653,0
-0.71,-1.159,0.597,0
-0.693,-0.882,-1.163,0
-0.502,-0.757,-1.882,0
-0.191,-0.44,-2.282,0
-0.094,-0.409,-2.086,0
-0.122,-0.576,-1.35,0
-0.349,-0.755,-0.85,0
-0.647,-1.08,-0.115,0
-0.631,-1.134,0.191,0
-0.804,-1.332,0.12,0
-0.994,-1.373,-0.029,0
-1.011,-1.364,-0.032,0
-0.589,-1.161,-0.838,0
-0.192,-0.843,-1.366,0
-0.035,-0.698,-1.734,0
-0.119,-0.498,-2.14,0
-0.186,-0.44,-2.254,0
-0.137,-0.229,-2.384,0
-0.141,-0.129,-2.288,0
-0.282,-0.013,-2.36,0
-0.395,-0.021,-2.424,0
-0.311,0.155,-2.082,0
-0.222,0.288,-1.716,0
-0.151,0.417,-1.235,0
-0.204,0.383,-0.884,0
-0.346,0.435,-0.462,0
-0.419,0.466,-0.227,0
-0.502,0.406,0.09,0
-0.463,0.464,0.125,0
-0.471,0.555,-0.081,0
-0.503,0.523,-0.172,0
-0.483,0.499,0.1,0
-0.637,0.412,0.637,0
-0.654,0.41,0.637,0
-0.46,0.722,0.96,0
-0.509,0.837,0.975,0
-0.441,0.779,1.236,0
-0.51,0.551,1.439,0
-0.614,0.435,1.568,0
-0.769,0.352,1.992,0
-0.879,0.368,2.028,0
-0.98,0.509,0.948,0
-1.05,0.561,0.213,0
-0.888,0.637,-0.253,1
-0.696,0.737,-0.007,0
-0.486,0.773,0.915,0
-0.409,0.74,1.532,0
-0.503,0.462,2.401,0
-0.73,0.222,2.478,0
-0.763,-0.124,2.289,0
-0.662,-0.345,2.421,0
-0.501,-0.784,3.199,0
-0.473,-0.864,3.592,0
-0.618,-0.903,3.965,0
-0.758,-1.071,3.559,0
-0.799,-0.915,1.552,0
-0.938,-0.928,0.446,0
-0.985,-1.003,-0.643,0
-0.955,-1.038,-0.973,0
-0.915,-1.076,-1.13,0
-0.862,-1.111,-1.109,0
-0.676,-1.154,-1.185,0
-0.594,-1.183,-1.116,0
-0.415,-1.133,-0.833,0
-0.308,-1.109,-0.737,0
-0.113,-1.016,-0.764,0
-0.108,-0.952,-0.99,0
-0.14,-0.907,-1.324,0
-0.164,-0.851,-1.356,0
-0.174,-0.781,-1.333,0
-0.231,-0.69,-1.477,0
-0.401,-0.715,-1.754,0
-0.415,-0.707,-1.979,0
-0.333,-0.555,-2.141,0
-0.287,-0.41,-2.066,0
-0.285,-0.417,-2.064,0
-0.015,-0.13,-1.997,0
-0.076,-0.005,-2.341,0
-0.158,-0.026,-2.416,0
-0.296,-0.107,-2.304,0
-0.391,-0.191,-2.229,0
-0.406,-0.207,-1.846,0
-0.345,-0.232,-1.399,0
-0.163,-0.084,-0.569,0
-0.026,0.022,-0.185,0
0.002,0.005,0.177,0
-0.095,0.014,0.364,0
-0.22,-0.072,0.653,0
-0.35,-0.08,0.527,0
-0.347,0.041,0.233,0
-0.212,0.074,0.172,0
-0.052,0.211,0.486,0
0.054,0.327,0.964,0
0.217,0.533,1.989,0
0.278,0.586,2.247,0
0.268,0.585,2.19,0
0.286,0.581,2.115,0
0.278,0.71,2.027,0
0.182,0.78,1.979,1
0.023,0.731,1.574,0
0.026,0.815,1.146,0
-0.241,0.974,0.802,0
-0.366,1.012,0.769,0
-0.563,1.053,0.548,0
-0.718,0.979,0.578,0
-0.691,0.713,0.983,0
-0.447,0.453,1.603,0
-0.023,0.013,3.401,0
0.055,-0.344,4.524,0
-0.224,-0.869,5.731,0
-0.565,-1.178,5.373,0
-0.858,-1.263,3.084,0
-0.984,-1.192,0.816,0
-1.316,-1.224,-1.63,0
-1.244,-1.023,-2.375,0
-1.083,-0.736,-3.468,0
-1.093,-0.711,-3.757,0
-0.397,-0.337,-3.599,0
-0.368,-0.318,-3.029,0
-0.488,-0.593,-1.588,0
-0.597,-0.701,-0.743,0
-0.846,-1.074,0.009,0
-0.963,-1.126,-0.005,0
-1.06,-1.274,-0.282,0
-1.157,-1.32,-0.377,0
-1.14,-1.229,-0.371,0
-1.003,-1.082,-0.361,0
-1.005,-1.06,-0.367,0
-0.505,-0.464,-1.089,0
-0.502,-0.313,-1.67,0
-0.697,-0.324,-1.897,0
-0.794,-0.282,-1.846,0
-0.945,-0.328,-1.604,0
-1.052,-0.328,-1.281,0
-1.109,-0.238,-0.874,0
-0.874,-0.03,-0.158,0
-0.619,0.242,-0.007,0
-0.57,0.377,0.027,0
-0.515,0.482,-0.143,0
-0.505,0.483,-0.144,0
-0.412,0.595,-0.603,0
-0.404,0.594,-0.603,0
-0.543,0.42,-0.04,0
-0.774,0.252,0.279,0
-0.896,0.256,0.503,0
-1.185,0.337,0.941,0
-1.178,0.415,0.966,0
-1.004,0.643,0.713,0
-1.03,0.598,0.547,0
-1.134,0.595,0.476,0
-0.992,0.648,0.787,0
-0.503,0.622,1.594,0
-0.417,0.733,1.901,0
-0.607,0.752,1.512,0
-0.705,0.713,0.917,1
-0.673,0.702,0.919,0
-0.649,0.63,0.509,0
-0.626,0.628,0.509,0
-0.551,0.473,1.973,0
-0.509,0.409,2.023,0
-0.361,0.422,1.711,0
0.203,0.458,1.287,0
0.454,0.412,1.518,0
0.43,-0.233,3.116,0
0.376,-0.486,3.785,0
-0.189,-1.053,4.517,0
-0.76,-1.419,4.377,0
-1.173,-1.763,3.432,0
-1.127,-1.765,2.481,0
-0.829,-1.57,0.571,0
-0.632,-1.44,-0.246,0
-0.237,-1.118,-1.048,0
-0.046,-0.949,-1.415,0
-0.045,-0.916,-1.81,0
-0.103,-0.977,-1.855,0
-0.069,-0.959,-1.587,0
-0.083,-1.032,-1.247,0
-0.136,-1.066,-0.428,0
-0.273,-1.053,-0.166,0
-0.611,-1.168,-0.336,0
-0.562,-1.045,-0.824,0
-0.115,-0.52,-1.878,0
0.103,-0.273,-2.344,0
0.396,0.111,-2.716,0
0.495,0.29,-2.788,0
0.444,0.396,-2.7,0
0.489,0.451,-2.421,0
0.446,0.576,-1.92,0
0.241,0.463,-1.649,0
-0.038,0.289,-1.4,0
-0.131,0.174,-1.404,0
-0.326,0.069,-1.061,0
-0.289,0.021,-0.837,0
-0.299,0.007,-0.833,0
0.024,0.182,-0.735,0
0.128,0.166,-0.626,0
0.152,0.219,-0.42,0
0.342,0.394,-0.197,0
0.42,0.392,-0.215,0
0.425,0.386,-0.213,0
-0.099,0.191,0.319,0
-0.353,0.038,0.605,0
-0.53,-0.08,0.918,0
-0.731,-0.097,1.378,0
-0.799,-0.002,1.548,0
-0.686,0.2,1.727,0
-0.53,0.313,1.712,0
-0.2,0.46,1.663,0
-0.068,0.448,1.735,0
-0.006,0.474,1.887,0
0.077,0.593,1.877,0
0.183,0.528,1.499,1
0.218,0.535,1.012,0
0.226,0.5,1.025,0
-0.343,0.541,1.183,0
-0.907,0.536,0.904,0
-1.131,0.459,0.485,0
-1.277,0.415,-0.195,0
-1.155,0.292,-0.333,0
-0.437,0.031,-0.105,0
0.061,-0.149,0.831,0
0.361,-0.696,2.487,0
0.196,-0.825,3.089,0
-0.498,-1.095,3.028,0
-0.841,-1.336,1.99,0
-1.061,-1.13,-0.433,0
-1.207,-1.082,-1.466,0
-1.173,-0.999,-2.583,0
-0.965,-0.717,-2.782,0
-0.703,-0.431,-2.461,0
-0.574,-0.371,-1.894,0
-0.409,-0.441,-0.913,0
-0.496,-0.606,-0.409,0
-0.64,-1,0.351,0
-0.668,-1.148,0.591,0
-0.778,-1.31,0.656,0
-0.817,-1.34,0.49,0
-0.706,-1.207,-0.067,0
-0.546,-1.089,-0.687,0
-0.425,-0.92,-1.288,0
-0.395,-0.797,-1.302,0
-0.373,-0.611,-1.231,0
-0.345,-0.468,-1.369,0
-0.221,-0.197,-1.742,0
-0.223,-0.024,-1.682,0
-0.286,0.126,-1.328,0
-0.359,0.208,-1.327,0
-0.424,0.248,-1.581,0
-0.391,0.277,-1.63,0
-0.289,0.369,-1.325,0
-0.256,0.411,-1.041,0
-0.404,0.371,-0.647,0
-0.391,0.28,-0.692,0
-0.231,0.368,-0.608,0
-0.158,0.319,-0.139,0
-0.129,0.233,0.506,0
-0.339,0.025,1.196,0
-0.537,0.09,1.957,0
-0.62,0.262,1.884,0
-0.553,0.353,1.057,0
-0.436,0.449,0.538,0
-0.267,0.514,0.533,0
-0.273,0.372,1.044,0
-0.211,0.234,1.96,0
-0.192,0.229,2.15,0
-0.2,0.34,1.838,0
-0.187,0.394,1.054,0
-0.052,0.492,-0.066,0
0.112,0.532,-0.156,1
-0.051,0.603,0.437,0
-0.288,0.522,0.974,0
-0.29,0.528,0.972,0
-0.662,0.023,1.649,0
-0.805,-0.102,1.429,0
-0.741,-0.247,1.179,0
-0.144,-0.211,0.682,0
0.293,-0.113,0.851,0
0.426,-0.437,2.452,0
0.283,-0.532,3.158,0
-0.249,-0.814,3.657,0
-0.578,-0.943,3.597,0
-0.908,-1.133,2.623,0
-0.857,-1.118,1.813,0
-0.6,-0.998,0.744,0
-0.44,-0.887,0.392,0
-0.157,-0.652,0.003,0
0.035,-0.629,-0.28,0
0.286,-0.529,-0.894,0
0.339,-0.521,-1.108,0
0.348,-0.52,-1.109,0
0.292,-0.646,-0.935,0
0.123,-0.723,-0.57,0
-0.038,-0.793,-0.348,0
-0.203,-0.804,-0.313,0
-0.144,-0.753,-0.673,0
0.044,-0.606,-1.458,0
0.191,-0.407,-1.952,0
0.169,-0.288,-2.377,0
0.335,-0.132,-2.492,0
0.387,0.07,-2.672,0
0.3,0.098,-2.525,0
0.348,0.151,-2.614,0
0.162,0.072,-2.698,0
-0.069,-0.151,-2.963,0
-0.168,-0.196,-3.099,0
-0.136,-0.158,-3.003,0
0.012,-0.032,-2.686,0
0.169,0.161,-1.697,0
0.167,0.231,-1.021,0
0.168,0.18,-0.27,0
0.167,0.206,-0.017,0
0.179,0.276,0.104,0
0.079,0.271,0.151,0
0.093,0.272,0.151,0
-0.29,0.173,0.539,0
-0.376,0.244,0.872,0
-0.317,0.362,1.101,0
-0.237,0.425,1.477,0
-0.175,0.324,1.582,0
-0.064,0.214,1.813,0
0.087,0.148,2.081,0
0.211,0.149,2.684,0
0.238,0.195,2.585,0
0.274,0.378,1.903,0
0.231,0.478,1.305,0
0.066,0.671,0.72,0
0.004,0.834,0.58,0
-0.053,0.951,0.192,1
-0.002,0.895,-0.104,0
-0.025,0.898,-0.105,0
0.103,0.115,0.315,0
0.304,-0.774,1.758,0
0.25,-1.179,2.826,0
-0.177,-1.818,4.34,0
-0.451,-1.892,4.621,0
-0.491,-1.854,4.608,0
-0.554,-1.504,0.646,0
-0.423,-0.933,-1.676,0
-0.245,-0.725,-2.289,0
-0.066,-0.319,-2.161,0
-0.043,-0.247,-1.699,0
-0.219,-0.295,-0.822,0
-0.307,-0.374,-0.201,0
-0.284,-0.543,0.501,0
-0.243,-0.54,0.553,0
-0.053,-0.462,0.41,0
0.079,-0.342,0.254,0
0.057,-0.319,0.248,0
0.179,-0.133,-0.681,0
0.049,-0.12,-1.212,0
-0.057,-0.167,-1.302,0
-0.432,-0.41,-1.139,0
-0.642,-0.453,-1.005,0
-0.726,-0.345,-1.017,0
-0.751,-0.322,-1.067,0
-0.685,-0.082,-1.423,0
-0.748,0.078,-1.617,0
-0.54,0.258,-1.781,0
-0.337,0.523,-1.73,0
-0.279,0.683,-1.338,0
-0.249,0.653,-1.133,0
-0.251,0.651,-1.133,0
-0.464,0.355,-0.29,0
-0.463,0.36,-0.291,0
-0.758,0.035,0.564,0
-0.63,0.126,0.514,0
-0.427,0.33,0.313,0
-0.025,0.537,-0.214,0
0.099,0.589,-0.442,0
-0.154,0.702,-0.164,0
-0.205,0.682,0.059,0
-0.124,0.821,0.502,0
-0.147,0.735,0.95,0
-0.18,0.691,1.109,0
-0.376,0.552,1.225,0
-0.442,0.411,1.501,0
-0.458,0.439,1.45,0
-0.569,0.521,0.964,0
-0.576,0.526,0.583,0
-0.485,0.634,0.2,0
-0.42,0.619,0.387,1
-0.287,0.475,1.109,0
-0.321,0.357,1.521,0
-0.668,0.069,2.109,0
-0.786,-0.071,2.225,0
-0.618,-0.195,1.876,0
-0.55,-0.355,1.642,0
-0.434,-0.689,2.144,0
-0.345,-0.908,3.035,0
-0.79,-1.298,4.099,0
-1.128,-1.567,4.71,0
-1.158,-1.524,4.034,0
-1.275,-1.458,3.151,0
-1.078,-1.358,1.351,0
-0.848,-1.146,0.52,0
-0.491,-0.906,-0.23,0
-0.248,-0.751,-0.422,0
0.019,-0.671,-0.744,0
0.229,-0.628,-0.997,0
0.493,-0.646,-1.457,0
0.647,-0.628,-1.626,0
0.773,-0.629,-1.423,0
0.701,-0.713,-1.017,0
0.438,-0.878,-0.382,0
0.438,-0.841,-0.454,0
0.476,-0.626,-1.266,0
0.534,-0.476,-1.879,0
0.677,-0.217,-2.508,0
0.633,-0.16,-2.783,0
0.67,-0.06,-2.983,0
0.61,0.017,-2.522,0
0.62,0.007,-2.518,0
0.141,-0.135,-1.647,0
0.154,-0.144,-1.644,0
-0.448,-0.5,-1.316,0
-0.372,-0.351,-1.651,0
-0.211,-0.274,-1.863,0
-0.011,-0.136,-1.859,0
0.117,-0.103,-1.74,0
0.158,-0.108,-1.348,0
0.145,-0.125,-1.048,0
0.081,-0.139,-0.348,0
0.093,-0.098,0.012,0
-0.124,-0.178,0.428,0
-0.515,-0.308,0.561,0
-0.88,-0.571,1.455,0
-0.868,-0.503,1.568,0
-0.928,-0.428,1.385,0
-0.943,-0.324,1.283,0
-0.753,-0.105,1.171,0
-0.603,-0.02,1.329,0
-0.403,0.141,1.82,0
-0.33,0.147,1.994,0
-0.246,0.258,1.8,0
-0.213,0.304,1.379,0
-0.417,0.282,0.713,0
-0.329,0.426,0.534,0
-0.081,0.701,0.458,1
-0.121,0.917,0.26,0
-0.129,1.212,0.021,0
-0.074,1.227,-0.085,0
0.231,1.212,-0.152,0
0.614,0.983,0.404,0
0.978,0.243,2.53,0
1.033,-0.127,3.574,0
0.41,-0.924,4.717,0
-0.041,-1.241,4.362,0
-0.714,-1.572,2.558,0
-0.733,-1.658,1.069,0
-0.679,-1.636,-0.912,0
-0.574,-1.385,-1.464,0
-0.631,-1.316,-0.757,0
-0.578,-1.11,-0.379,0
-0.607,-0.888,-0.068,0
-0.618,-0.953,-0.207,0
-0.53,-0.912,-0.572,0
-0.512,-1.115,-0.618,0
-0.539,-1.1,-0.623,0
-0.201,-1.12,-0.178,0
0.086,-1.051,0.034,0
0.168,-0.927,0.121,0
0.219,-0.848,-0.05,0
0.273,-0.703,-0.439,0
0.126,-0.547,-1.076,0
0.039,-0.463,-1.267,0
0.036,-0.469,-1.265,0
-0.081,-0.135,-2.043,0
-0.207,0.005,-2.38,0
-0.263,0.001,-2.373,0
-0.234,0.142,-1.959,0
-0.135,0.22,-1.628,0
0.096,0.304,-0.942,0
0.249,0.428,-0.655,0
0.114,0.475,-0.346,0
-0.067,0.382,-0.101,0
-0.335,0.3,-0.081,0
-0.469,0.264,-0.299,0
-0.477,0.223,-0.681,0
-0.3,0.312,-0.943,0
-0.272,0.306,-0.94,0
0.229,0.506,-0.597,0
0.095,0.538,-0.017,0
-0.048,0.416,0.393,0
-0.147,0.35,0.615,0
-0.222,0.303,0.641,0
-0.273,0.259,0.683,0
-0.23,0.349,0.668,0
0.022,0.397,0.323,0
0.105,0.397,-0.033,0
-0.013,0.585,-0.271,0
-0.123,0.645,-0.174,0
-0.067,0.72,0.012,0
0.096,0.624,0.325,0
0.106,0.493,0.94,1
0.066,0.572,1.357,0
-0.003,0.415,1.95,0
0.072,0.373,2.091,0
0.168,0.436,2.155,0
0.357,0.462,2.095,0
0.361,0.478,2.089,0
0.858,0.57,1.425,0
0.85,0.346,1.661,0
0.614,0.083,2.034,0
0.056,-0.415,2.061,0
-0.396,-0.811,1.945,0
-1.135,-1.401,1.961,0
-1.617,-1.814,1.892,0
-2.168,-2.142,1.197,0
-2.055,-1.992,0.416,0
-1.322,-1.483,-1.032,0
-0.642,-1.115,-1.664,0
0.277,-0.472,-2.053,0
0.518,-0.316,-1.899,0
0.236,-0.513,-1.027,0
-0.331,-0.933,0.031,0
-0.777,-1.188,0.934,0
-1.041,-1.304,1.111,0
-1.138,-1.37,0.89,0
-1.143,-1.372,0.89,0
-1.093,-1.341,0.348,0
-0.267,-0.493,-1.241,0
0.617,0.157,-2.031,0
1.149,0.472,-2.587,0
1.141,0.433,-2.575,0
1.377,0.877,-3.378,0
0.729,0.423,-2.32,0
0.203,0.147,-1.578,0
-0.318,-0.17,-0.574,0
-0.513,-0.327,-0.309,0
-0.51,-0.321,-0.311,0
-0.081,0.022,-0.616,0
-0.083,0.007,-0.612,0
0.666,0.516,-0.627,0
0.759,0.523,-0.034,0
0.558,0.499,0.488,0
0.236,0.249,1.168,0
-0.023,0.164,1.042,0
-0.628,-0.158,0.972,0
-0.796,-0.345,0.996,0
-0.943,-0.358,1.352,0
-0.775,-0.271,1.542,0
-0.184,0.129,1.35,0
0.124,0.242,1.065,0
0.375,0.46,0.512,0
0.49,0.483,0.322,0
0.5,0.457,0.289,0
0.314,0.478,0.485,0
0.183,0.462,0.334,0
-0.021,0.401,0.233,0
-0.316,0.313,0.347,1
-0.426,0.286,0.495,0
-0.607,0.497,0.406,0
-0.656,0.464,0.21,0
-0.598,0.52,0.313,0
-0.434,0.607,0.53,0
0.403,0.745,0.942,0
0.897,0.728,1.473,0
1.034,0.098,3.438,0
0.436,-0.548,4.276,0
-1.008,-1.441,4.664,0
-1.711,-1.771,4.145,0
-2.153,-2.021,2.483,0
-1.931,-1.758,1.31,0
-0.934,-0.935,-0.137,0
-0.429,-0.483,-0.493,0
-0.164,-0.16,-0.487,0
-0.029,-0.099,-0.527,0
-0.224,-0.304,-0.531,0
-0.368,-0.531,-0.535,0
-0.386,-0.528,-0.536,0
-0.288,-0.879,-0.513,0
-0.13,-0.989,-1.126,0
-0.094,-0.972,-1.341,0
0.085,-0.754,-1.525,0
0.121,-0.595,-1.768,0
0.086,-0.369,-2.387,0
0.054,-0.268,-2.624,0
0.078,-0.066,-2.439,0
0.082,-0.073,-2.031,0
-0.102,-0.084,-1.493,0
-0.152,-0.054,-1.523,0
-0.237,-0.067,-1.67,0
-0.34,-0.074,-1.822,0
-0.384,-0.01,-2.02,0
-0.474,0.021,-1.985,0
-0.504,0.148,-1.819,0
-0.415,0.235,-1.658,0
-0.191,0.465,-1.557,0
-0.128,0.605,-1.346,0
-0.112,0.53,-0.813,0
-0.193,0.468,-0.509,0
-0.459,0.258,-0.154,0
-0.658,0.157,0.001,0
-0.734,0.159,0.43,0
-0.617,0.225,0.722,0
-0.474,0.399,1.025,0
-0.421,0.36,1.029,0
-0.355,0.403,1.102,0
-0.25,0.388,1.245,0
-0.254,0.375,1.249,0
-0.112,0.13,1.673,0
-0.276,0.108,1.786,0
-0.395,0.208,1.933,0
-0.555,0.351,1.689,0
-0.555,0.349,1.127,0
-0.567,0.318,0.936,0
-0.501,0.328,1.354,0
-0.393,0.374,2.429,1
-0.222,0.424,2.718,0
0.034,0.654,2.373,0
0.134,0.795,1.957,0
0.511,0.816,1.272,0
0.952,0.899,0.776,0
1.378,0.693,0.754,0
1.205,0.251,1.398,0
0.526,-0.408,2.301,0
-0.013,-0.865,2.475,0
-0.687,-1.304,2.234,0
-0.992,-1.583,1.655,0
-1.327,-1.822,0.306,0
-1.195,-1.709,-0.308,0
-0.705,-1.405,-0.989,0
-0.418,-1.226,-1.118,0
-0.221,-1.145,-0.732,0
-0.167,-1.159,-0.327,0
-0.287,-1.324,0.078,0
-0.592,-1.548,0.289,0
-0.91,-1.823,0.501,0
-1.022,-1.843,0.433,0
-0.686,-1.593,0.101,0
-0.138,-1.198,-0.273,0
0.63,-0.47,-1.046,0
0.862,-0.25,-1.424,0
0.857,-0.008,-1.932,0
0.766,0.032,-2.093,0
0.627,0.041,-2.062,0
0.599,0.051,-1.842,0
0.46,-0.101,-1.472,0
0.288,-0.176,-1.247,0
0.08,-0.363,-0.941,0
0.108,-0.353,-0.912,0
0.258,-0.24,-1.127,0
0.391,-0.201,-1.347,0
0.706,-0.02,-1.71,0
0.96,0.113,-1.774,0
0.939,0.027,-1.462,0
0.794,-0.07,-1.084,0
0.409,-0.229,-0.383,0
0.12,-0.335,0.035,0
-0.525,-0.527,0.493,0
-0.612,-0.556,0.58,0
-0.625,-0.33,0.586,0
-0.469,-0.077,0.406,0
-0.271,0.132,-0.069,0
-0.23,0.287,-0.489,0
0.511,0.782,-0.049,0
1.068,0.959,0.443,0
1.373,1.141,1.422,0
1.318,0.872,1.803,0
0.744,0.447,2.356,0
0.401,0.356,2.523,0
0.112,0.224,2.265,0
0.236,0.273,1.633,0
0.319,0.484,0.564,1
0.218,0.619,0.483,0
0.234,0.786,0.347,0
0.245,0.956,-0.01,0
0.248,1.024,-0.38,0
0.28,1.056,-0.302,0
0.218,0.641,0.379,0
0.169,0.182,1.188,0
0.185,-0.584,3.03,0
-0.018,-1.019,3.852,0
-0.672,-1.621,4.265,0
-0.905,-1.706,3.938,0
-1.076,-1.748,1.773,0
-1.025,-1.435,-0.104,0
-0.465,-1.011,-1.514,0
0.021,-0.581,-2.32,0
0.017,-0.58,-2.32,0
0.141,-0.184,-2.273,0
-0.03,-0.241,-1.002,0
-0.195,-0.432,-0.46,0
-0.089,-0.592,0.099,0
-0.133,-0.691,0.275,0
-0.078,-0.856,0.398,0
0.082,-0.776,0.222,0
0.052,-0.765,0.217,0
0.337,-0.598,-0.71,0
0.442,-0.516,-1.22,0
0.411,-0.474,-1.342,0
0.316,-0.434,-1.462,0
0.283,-0.352,-1.594,0
0.199,-0.245,-1.733,0
0.147,-0.158,-1.891,0
0.074,-0.113,-1.785,0
0.065,-0.053,-1.72,0
-0.037,0.047,-1.703,0
-0.095,0.019,-1.572,0
-0.095,0,-1.177,0
-0.117,0.114,-1.037,0
-0.185,0.168,-0.911,0
-0.195,0.141,-0.805,0
-0.26,0.172,-0.762,0
-0.268,0.176,-0.763,0
0.045,0.278,-0.293,0
0.234,0.299,0.067,0
0.117,0.164,0.936,0
-0.121,0.061,1.286,0
-0.133,0.066,1.284,0
-0.506,-0.127,1.617,0
-0.554,-0.187,1.241,0
-0.462,-0.054,0.932,0
-0.473,-0.072,0.939,0
0.176,0.527,1.448,0
0.335,0.664,1.411,0
0.156,0.716,1.034,0
-0.383,0.512,0.251,0
-0.473,0.463,-0.155,0
-0.45,0.45,-0.15,0
-0.303,0.332,0.183,1
-0.305,0.337,0.181,0
-0.359,0.319,2.05,0
-0.397,0.529,2.085,0
-0.461,0.654,1.851,0
-0.169,0.58,1.193,0
0.299,0.599,0.735,0
1.109,0.566,1.074,0
1.446,0.362,2.324,0
1.48,-0.235,4.102,0
0.978,-0.428,4.303,0
0.191,-1.019,3.559,0
-0.006,-1.292,2.432,0
0.033,-1.282,2.428,0
0.134,-1.023,-0.742,0
0.448,-0.772,-0.818,0
0.597,-0.568,-0.325,0
0.587,-0.451,0.357,0
0.47,-0.534,0.236,0
0.473,-0.537,0.237,0
0.258,-0.74,-1.106,0
0.241,-0.736,-1.257,0
0.442,-0.713,-1.122,0
0.539,-0.687,-0.87,0
0.591,-0.597,-0.794,0
0.594,-0.55,-0.842,0
0.611,-0.53,-1.052,0
0.613,-0.544,-1.047,0
0.62,-0.298,-1.57,0
0.654,-0.147,-1.609,0
0.716,-0.018,-1.732,0
0.679,0.052,-2.183,0
0.591,0.095,-2.329,0
0.49,0.157,-2.488,0
0.326,0.022,-2.442,0
0.204,0.062,-2.127,0
0.205,0.06,-1.898,0
0.271,0.123,-1.374,0
0.257,0.105,-1.268,0
0.389,0.271,-1.425,0
0.527,0.362,-1.302,0
0.624,0.412,-0.649,0
0.627,0.412,-0.648,0
0.72,0.49,0.387,0
0.603,0.454,0.754,0
0.436,0.419,1.002,0
0.263,0.407,1.139,0
0.149,0.335,1.405,0
0.127,0.335,1.438,0
0.009,0.384,1.551,0
-0.002,0.333,1.654,0
-0.153,0.326,1.865,0
-0.101,0.377,1.849,0
-0.077,0.62,1.635,0
-0.136,0.687,1.302,0
-0.11,0.808,0.714,0
-0.057,0.868,0.751,0
-0.339,0.938,1.166,1
-0.727,0.863,1.226,0
-1.154,0.669,0.83,0
-1.303,0.508,0.581,0
-0.967,0.442,0.502,0
-0.376,0.385,0.451,0
0.539,0.237,1.423,0
0.888,-0.197,2.996,0
0.655,-0.817,4.602,0
0.062,-1.076,4.681,0
-0.988,-1.787,4.076,0
-1.178,-1.772,2.663,0
-1.261,-1.668,-0.034,0
-1.2,-1.521,-1.079,0
-0.782,-1.21,-2.165,0
-0.537,-1.055,-2.598,0
0.247,-0.326,-2.476,0
0.526,-0.259,-2.003,0
0.571,-0.324,-0.981,0
0.462,-0.481,-0.586,0
0.428,-0.467,-0.592,0
-0.201,-1.081,-0.44,0
-0.324,-1.036,-0.825,0
-0.248,-1.057,-1.068,0
-0.081,-0.84,-1.527,0
0.084,-0.659,-1.593,0
0.072,-0.652,-1.596,0
0.042,-0.471,-1.437,0
-0.133,-0.447,-1.258,0
-0.207,-0.461,-1.256,0
-0.323,-0.366,-1.247,0
-0.36,-0.296,-1.096,0
-0.368,-0.22,-0.676,0
-0.403,-0.178,-0.503,0
-0.265,-0.074,-0.748,0
-0.179,-0.03,-1.034,0
0.041,0.104,-1.381,0
0.125,0.173,-1.307,0
0.201,0.269,-0.958,0
0.206,0.314,-0.842,0
0.107,0.253,-0.93,0
0.028,0.203,-0.932,0
-0.099,0.064,-0.792,0
-0.157,0.054,-0.465,0
-0.237,0.085,0.359,0
-0.211,0.16,0.571,0
-0.153,0.328,0.563,0
-0.036,0.357,0.548,0
0.199,0.569,0.492,0
0.256,0.578,0.794,0
0.198,0.41,1.327,0
0.088,0.387,1.698,0
0.022,0.447,1.999,0
0.005,0.509,1.662,0
0.105,0.508,0.731,0
0.205,0.542,0.38,0
0.349,0.632,0.27,1
0.36,0.67,0.569,0
0.427,0.726,1.283,0
0.554,0.838,1.663,0
0.745,0.802,1.565,0
1.014,0.722,1.186,0
1.429,0.463,1.593,0
1.531,0.159,2.306,0
1.341,-0.46,3.611,0
0.789,-0.836,4.188,0
-0.065,-1.262,3.897,0
-0.344,-1.417,3.033,0
-0.419,-1.215,1.024,0
-0.207,-1.043,-0.039,0
0.213,-0.647,-1.095,0
0.474,-0.417,-1.113,0
0.716,-0.376,-1.197,0
0.734,-0.383,-1.384,0
0.741,-0.379,-1.385,0
0.545,-0.876,-1.043,0
0.235,-1.224,0.166,0
0.111,-1.385,0.702,0
-0.035,-1.447,1.138,0
0.094,-1.273,1.066,0
0.583,-0.913,0.199,0
0.684,-0.796,-0.615,0
0.632,-0.567,-1.723,0
0.611,-0.445,-1.962,0
0.646,-0.356,-2.12,0
0.554,-0.243,-2.103,0
0.354,-0.214,-1.854,0
0.31,-0.203,-1.688,0
0.193,-0.12,-1.445,0
0.191,-0.128,-1.479,0
0.112,-0.07,-1.721,0
0.08,-0.061,-1.863,0
0.088,-0.08,-1.855,0
0.267,0.109,-2.043,0
0.505,0.28,-1.734,0
0.7,0.378,-1.491,0
0.893,0.537,-0.585,0
0.931,0.568,-0.147,0
0.725,0.5,0.584,0
0.432,0.393,1.068,0
-0.018,0.229,1.281,0
-0.349,0.203,1.093,0
-0.441,0.162,0.647,0
-0.273,0.375,0.375,0
-0.066,0.543,0.187,0
0.067,0.628,0.24,0
0.231,0.803,0.881,0
0.285,0.733,1.318,0
0.139,0.526,1.905,0
-0.023,0.47,2.111,0
-0.134,0.447,1.779,0
0.022,0.497,1.325,0
0.06,0.58,1.013,1
0.161,0.732,0.836,0
0.262,1.091,0.562,0
0.25,1.168,0.615,0
0.258,1.022,0.481,0
0.152,0.84,0.481,0
0.159,0.459,1.701,0
0.232,0.186,3.003,0
0.52,-0.304,4.301,0
0.193,-0.759,4.851,0
-0.067,-1.093,4.365,0
-0.371,-1.206,3.454,0
-0.462,-1.253,1.035,0
-0.303,-1.081,-0.142,0
-0.041,-0.905,-1.199,0
0.099,-0.813,-1.462,0
0.215,-0.768,-1.413,0
0.257,-0.681,-1.522,0
0.238,-0.678,-1.817,0
0.249,-0.713,-2.021,0
0.315,-0.762,-2.169,0
0.244,-0.91,-2.017,0
0.038,-1.151,-1.174,0
-0.062,-1.222,-0.542,0
-0.115,-1.296,0.284,0
-0.144,-1.281,0.278,0
-0.142,-1.125,0.545,0
-0.164,-0.968,0.126,0
0.025,-0.621,-0.799,0
0.17,-0.387,-1.214,0
0.226,-0.147,-1.632,0
0.19,-0.105,-1.762,0
0.113,-0.156,-1.834,0
0.049,-0.155,-1.817,0
-0.09,-0.209,-1.8,0
0.014,-0.156,-1.815,0
-0.187,-0.265,-0.972,0
-0.152,-0.205,-0.521,0
-0.025,0.101,-0.55,0
0.108,0.236,-1.02,0
0.223,0.322,-1.533,0
0.4,0.344,-1.656,0
0.603,0.45,-1.328,0
0.639,0.475,-0.738,0
0.522,0.405,0.245,0
0.266,0.277,0.592,0
0.018,0.106,0.909,0
0.094,0.256,0.991,0
0.312,0.315,1.096,0
0.329,0.29,1.399,0
0.436,0.336,1.817,0
0.623,0.394,1.865,0
0.947,0.581,1.659,0
0.987,0.686,1.526,0
0.901,0.681,1.05,0
0.808,0.55,0.854,0
0.816,0.523,0.865,1
0.706,0.165,1.494,0
0.57,0.207,1.763,0
0.469,0.174,1.605,0
0.27,0.347,1.103,0
0.306,0.521,0.746,0
0.689,0.519,0.076,0
1.115,0.429,0.106,0
1.38,-0.028,1.09,0
1.254,-0.541,2.673,0
0.677,-1.236,4.692,0
0.115,-1.522,4.954,0
-0.267,-1.902,4.036,0
-0.191,-1.851,2.791,0
0.295,-1.319,0.158,0
0.645,-0.969,-0.95,0
1.181,-0.572,-1.831,0
1.303,-0.343,-2.148,0
1.34,-0.303,-2.355,0
1.236,-0.422,-2.437,0
1.037,-0.66,-1.771,0
0.934,-0.811,-1.106,0
0.944,-0.778,-1.117,0
0.514,-1.119,-0.203,0
0.599,-1.003,-0.561,0
0.844,-0.784,-0.957,0
1.259,-0.422,-1.881,0
1.307,-0.252,-2.375,0
1.268,-0.016,-2.822,0
1.014,0.036,-2.667,0
0.493,-0.113,-2.21,0
0.256,-0.128,-2.131,0
0.282,-0.11,-2.136,0
-0.256,-0.267,-1.928,0
-0.154,-0.129,-1.74,0
0.133,0.114,-1.589,0
0.689,0.478,-1.302,0
1.017,0.662,-1.085,0
1.217,0.812,-1.006,0
1.16,0.797,-0.928,0
0.967,0.586,-0.531,0
0.886,0.492,-0.242,0
0.688,0.184,0.281,0
0.635,0.078,0.578,0
0.243,-0.074,1.198,0
0.161,-0.097,1.563,0
0.273,0.118,1.678,0
0.367,0.27,1.494,0
0.386,0.363,1.363,0
0.404,0.417,1.333,0
0.33,0.442,1.626,0
0.355,0.398,1.969,0
0.459,0.408,2.214,0
0.303,0.369,2.148,0
0.19,0.37,1.469,0
0.057,0.302,0.92,0
-0.262,0.146,0.889,1
0.091,0.453,0.561,0
-0.269,0.38,1.303,0
0.013,0.487,1.52,0
0.804,1.057,1.55,0
1.411,1.331,1.387,0
2.559,1.469,1.169,0
2.75,1.306,1.757,0
2.497,0.193,4.287,0
2.128,-0.275,5.184,0
0.788,-1.15,5.978,0
0.267,-1.59,5.515,0
-0.014,-1.85,3.052,0
0.009,-1.775,1.255,0
0.155,-1.405,-0.76,0
0.697,-1.169,-1.68,0
0.989,-0.766,-2.159,0
1.212,-0.663,-1.859,0
1.269,-0.691,-1.189,0
1.102,-0.871,-0.988,0
0.902,-1.163,-0.839,0
0.848,-1.326,-0.756,0
0.592,-1.612,-1.099,0
0.583,-1.591,-1.368,0
0.895,-1.481,-1.785,0
1.021,-1.378,-1.983,0
1.067,-1.157,-2.193,0
0.895,-1.191,-2.183,0
0.553,-1.128,-1.932,0
0.509,-1.026,-1.888,0
0.284,-0.904,-1.791,0
0.224,-0.798,-1.712,0
0.227,-0.597,-1.487,0
0.274,-0.486,-1.567,0
0.241,-0.291,-1.807,0
0.211,-0.22,-1.855,0
0.244,-0.121,-1.588,0
0.228,-0.036,-1.303,0
0.191,0.109,-0.719,0
0.257,0.183,-0.562,0
0.253,0.371,-0.586,0
0.175,0.344,-0.437,0
0.092,0.301,-0.103,0
0.021,0.299,0.033,0
0.017,0.303,0.032,0
0.112,0.364,0.44,0
0.081,0.507,0.586,0
0.074,0.564,0.69,0
0.219,0.661,0.698,0
0.198,0.61,0.786,0
0.484,0.513,1.07,0
0.612,0.406,1.577,0
0.739,0.22,2.243,0
0.662,0.184,2.306,0
0.466,0.137,2.053,0
0.354,0.176,1.839,0
0.346,0.291,1.208,1
0.305,0.379,0.876,0
0.339,0.367,0.882,0
0.372,0.724,0.499,0
0.371,0.861,0.646,0
0.359,0.87,0.557,0
0.472,0.768,0.122,0
0.722,0.502,-0.129,0
1.281,0.004,0.624,0
1.501,-0.449,2.313,0
1.715,-1.066,5.068,0
1.375,-1.239,5.937,0
0.653,-1.648,6.059,0
0.418,-1.619,4.625,0
0.217,-1.402,0.772,0
0.4,-0.996,-1.43,0
0.714,-0.53,-3.226,0
0.628,-0.571,-3.432,0
0.502,-0.526,-3.087,0
0.458,-0.612,-2.276,0
0.493,-0.848,-1.05,0
0.514,-0.883,-0.605,0
0.612,-0.991,-0.142,0
0.65,-0.987,0.107,0
0.987,-0.729,0.522,0
1.14,-0.589,0.673,0
1.251,-0.395,0.513,0
1.151,-0.327,0.11,0
0.956,-0.244,-0.841,0
0.888,-0.129,-1.461,0
0.915,0.125,-2.137,0
0.988,0.248,-2.159,0
0.965,0.277,-2.149,0
0.969,0.288,-2.118,0
0.989,0.281,-2.114,0
0.955,0.403,-1.45,0
0.971,0.4,-1.448,0
1.332,0.677,-1.152,0
1.522,0.678,-1.101,0
1.526,0.688,-1.125,0
1.267,0.539,-0.842,0
1.052,0.384,-0.482,0
1.056,0.379,-0.48,0
0.746,0.121,0.247,0
0.757,0.154,0.708,0
0.769,0.199,0.956,0
0.777,0.332,0.918,0
0.703,0.342,0.723,0
0.504,0.373,0.586,0
0.392,0.388,0.715,0
0.295,0.37,1.031,0
0.21,0.316,1.325,0
0.275,0.288,1.73,0
0.326,0.247,1.858,0
0.268,0.3,1.498,0
0.286,0.451,1.238,0
0.289,0.424,1.248,0
0.539,0.659,0.798,0
0.458,0.707,1.079,1
0.286,0.754,1.166,0
0.127,0.707,1.02,0
0.175,0.689,0.726,0
0.215,0.743,0.332,0
0.2,0.749,0.328,0
0.572,0.397,0.343,0
0.613,0.025,1.121,0
0.593,-0.758,3.028,0
0.173,-1.165,4.142,0
-0.086,-1.439,4.937,0
0.028,-1.404,4.207,0
0.49,-0.922,1.413,0
0.662,-0.574,-0.206,0
1.002,-0.306,-1.749,0
1.094,-0.154,-2.144,0
0.848,-0.062,-1.979,0
0.712,-0.224,-1.541,0
0.265,-0.565,-0.717,0
0.021,-0.836,-0.192,0
-0.209,-1.203,0.116,0
-0.404,-1.328,0.009,0
-0.353,-1.326,-0.432,0
-0.183,-1.177,-0.801,0
0.096,-0.843,-1.531,0
0.242,-0.695,-2.017,0
0.237,-0.698,-2.016,0
0.242,-0.49,-2.612,0
0.094,-0.433,-2.314,0
0.005,-0.347,-1.937,0
-0.074,-0.238,-1.482,0
-0.091,-0.146,-1.391,0
-0.216,-0.064,-1.456,0
-0.25,0.016,-1.602,0
-0.28,0.203,-1.869,0
-0.248,0.266,-1.87,0
-0.095,0.461,-1.536,0
-0.119,0.493,-1.285,0
-0.304,0.395,-0.867,0
-0.327,0.386,-0.751,0
-0.416,0.455,-0.594,0
-0.533,0.397,-0.31,0
-0.688,0.218,0.528,0
-0.717,0.257,0.983,0
-0.472,0.401,1.162,0
-0.451,0.408,1.251,0
-0.252,0.552,1.16,0
-0.046,0.66,0.802,0
-0.047,0.636,0.809,0
0.054,0.645,0.85,0
0.079,0.635,1.032,0
-0.075,0.562,1.287,0
-0.228,0.324,1.566,0
-0.455,0.294,1.623,0
-0.539,0.301,1.549,0
-0.416,0.393,1.342,0
-0.048,0.524,0.909,1
0.108,0.676,0.949,0
0.315,0.932,1.232,0
0.419,1.034,1.338,0
0.421,0.996,1.038,0
0.278,0.976,0.753,0
0.294,0.777,0.356,0
0.548,0.683,0.174,0
0.937,0.481,1.08,0
1.099,0.041,2.832,0
0.737,-0.556,4.345,0
0.216,-1.054,5.115,0
0.237,-1.188,4.584,0
0.071,-1.286,3.554,0
0.215,-1.224,0.95,0
0.429,-0.988,-0.511,0
0.496,-0.862,-1.949,0
0.691,-0.794,-2.406,0
0.795,-0.704,-2.511,0
0.735,-0.819,-2.166,0
0.786,-0.943,-1.374,0
0.758,-1.087,-1.071,0
0.598,-1.275,-0.473,0
0.451,-1.384,-0.032,0
0.161,-1.526,0.444,0
0.21,-1.403,0.435,0
0.557,-1.039,-0.078,0
0.85,-0.726,-0.874,0
1.021,-0.344,-2.069,0
0.964,-0.31,-2.564,0
1.021,-0.08,-3.134,0
1.047,0.068,-3.282,0
1.021,0.211,-3.087,0
0.99,0.226,-2.689,0
0.78,0.126,-1.94,0
0.656,0.135,-1.728,0
0.55,0.1,-1.535,0
0.528,0.06,-1.385,0
0.608,0.131,-1.121,0
0.667,0.156,-1.066,0
0.78,0.206,-0.918,0
0.808,0.294,-0.677,0
0.913,0.448,-0.439,0
0.91,0.492,-0.144,0
0.666,0.427,0.4,0
0.314,0.339,0.57,0
-0.041,0.172,0.574,0
-0.124,0.186,0.563,0
-0.141,0.276,0.416,0
-0.078,0.296,0.488,0
-0.14,0.328,0.586,0
-0.082,0.463,1.043,0
0.147,0.464,2.324,0
0.188,0.475,2.781,0
0.053,0.532,2.957,0
-0.14,0.43,2.821,0
-0.164,0.476,1.788,1
-0.274,0.381,1.089,0
-0.618,0.41,0.742,0
-0.84,0.462,0.881,0
-0.939,0.627,0.901,0
-0.805,0.782,0.667,0
-0.176,1.225,0.727,0
0.381,1.457,0.856,0
1.147,1.467,0.848,0
1.482,1.261,1.118,0
1.421,0.417,2.83,0
1.154,-0.195,3.965,0
0.319,-0.969,4.58,0
-0.172,-1.148,4.263,0
-0.547,-1.427,2.467,0
-0.559,-1.287,0.884,0
-0.599,-1.086,-1.453,0
-0.533,-0.97,-1.854,0
-0.299,-0.685,-1.874,0
-0.173,-0.585,-1.533,0
-0.181,-0.669,-0.819,0
-0.247,-0.791,-0.557,0
-0.426,-1.007,-0.373,0
-0.458,-0.999,-0.377,0
-0.493,-1.104,-0.345,0
-0.431,-1.171,-0.842,0
-0.27,-1.064,-1.232,0
-0.155,-0.961,-1.349,0
-0.207,-0.88,-1.399,0
-0.328,-0.838,-1.416,0
-0.487,-0.802,-1.479,0
-0.603,-0.765,-1.405,0
-0.733,-0.677,-1.372,0
-0.784,-0.598,-1.525,0
-0.786,-0.596,-1.526,0
-0.63,-0.274,-1.825,0
-0.441,-0.052,-1.906,0
-0.353,0.074,-1.97,0
-0.297,0.228,-1.867,0
-0.361,0.199,-1.662,0
-0.32,0.197,-1.468,0
-0.32,0.22,-1.3,0
-0.332,0.227,-1.302,0
-0.343,0.204,-0.379,0
-0.36,0.279,0.176,0
-0.356,0.292,0.53,0
-0.225,0.392,0.907,0
-0.189,0.398,0.917,0
-0.185,0.486,0.884,0
0.03,0.55,0.946,0
0.366,0.788,0.947,0
0.414,0.788,0.985,0
0.338,0.801,0.975,0
0.23,0.62,1.083,0
0.106,0.59,1.539,0
-0.16,0.512,1.955,0
-0.57,0.391,2.054,0
-0.586,0.407,1.62,0
-0.611,0.404,0.807,1
-0.578,0.417,0.611,0
-0.442,0.563,0.734,0
-0.433,0.588,0.8,0
-0.511,0.703,0.675,0
-0.598,0.728,0.561,0
-0.31,0.642,0.448,0
0.008,0.543,0.639,0
0.382,0.053,2.243,0
0.547,-0.258,3.305,0
-0.293,-1.147,5.145,0
-0.621,-1.482,5.696,0
-1.167,-1.693,4.506,0
-1.201,-1.655,2.79,0
-0.778,-1.278,-0.224,0
-0.417,-0.886,-1.568,0
-0.02,-0.555,-2.747,0
0.197,-0.377,-3.04,0
0.185,-0.25,-2.372,0
0.059,-0.373,-1.663,0
-0.313,-0.642,-0.462,0
-0.438,-0.791,0.09,0
-0.458,-0.894,0.388,0
-0.389,-0.942,0.249,0
-0.258,-0.839,0.119,0
-0.076,-0.763,-0.14,0
-0.081,-0.775,-0.137,0
0.388,-0.312,-1.233,0
0.55,-0.159,-1.794,0
0.536,-0.094,-2.049,0
0.437,-0.035,-2.019,0
0.379,-0.04,-1.955,0
0.313,0.064,-1.893,0
0.113,-0.104,-1.868,0
0.145,-0.004,-2.034,0
0.131,0.023,-2.04,0
0.232,0.021,-1.824,0
0.374,0.157,-1.695,0
0.406,0.261,-1.47,0
0.362,0.241,-1.247,0
0.224,0.183,-1.074,0
0.135,0.134,-0.871,0
0.02,0.121,-0.577,0
-0.024,0.096,-0.498,0
-0.028,0.072,-0.448,0
-0.041,0.149,-0.402,0
-0.039,0.135,-0.397,0
0.087,0.408,-0.041,0
0.014,0.554,0.24,0
-0.055,0.542,0.389,0
-0.223,0.453,0.758,0
-0.299,0.389,1.02,0
-0.178,0.276,1.632,0
-0.04,0.256,1.841,0
0.079,0.305,1.879,0
-0.027,0.246,1.705,0
0.055,0.486,1.567,0
0.228,0.591,1.361,1
0.236,0.565,1.37,0
0.335,0.79,0.826,0
0.246,0.922,0.553,0
0.186,0.984,0.431,0
0.122,0.87,0.582,0
0.135,0.76,0.909,0
0.194,0.472,1.944,0
0.189,0.154,2.696,0
0.145,-0.413,3.58,0
-0.035,-0.784,3.669,0
-0.269,-1.255,3.439,0
-0.472,-1.386,2.903,0
-0.741,-1.554,1.373,0
-0.803,-1.495,0.291,0
-0.637,-1.135,-0.675,0
-0.412,-1.026,-0.836,0
-0.151,-0.715,-1.023,0
0.011,-0.536,-1.279,0
0.245,-0.452,-1.336,0
0.205,-0.535,-1.23,0
0.048,-0.688,-0.9,0
-0.09,-0.838,-0.561,0
-0.142,-1.022,-0.157,0
-0.072,-1.012,-0.228,0
0.007,-0.926,-0.551,0
0.116,-0.89,-0.772,0
0.241,-0.672,-1.054,0
0.294,-0.526,-1.305,0
0.423,-0.333,-1.812,0
0.444,-0.197,-2.082,0
0.367,-0.054,-2.234,0
0.382,0.137,-2.365,0
0.378,0.263,-2.381,0
0.471,0.436,-2.231,0
0.42,0.656,-1.788,0
0.329,0.639,-1.58,0
0.048,0.459,-1.273,0
-0.024,0.495,-0.928,0
0.066,0.452,-0.485,0
0.228,0.502,-0.567,0
0.136,0.421,-0.418,0
0.002,0.242,-0.166,0
0.034,0.223,0.139,0
0.062,0.182,0.47,0
0.172,0.147,1.046,0
0.171,0.202,1.102,0
0.086,0.272,1.112,0
0.089,0.298,1.122,0
0.271,0.496,1.142,0
0.421,0.521,1.052,0
0.392,0.428,1.122,0
0.428,0.363,1.396,0
0.442,0.248,1.9,0
0.397,0.227,2.056,0
0.145,0.246,1.448,0
0.141,0.319,0.756,0
0.214,0.271,0.201,1
0.22,0.336,0.263,0
0.031,0.475,0.751,0
0.107,0.487,1.032,0
0.424,0.799,0.808,0
0.403,0.909,0.436,0
0.92,1.113,-0.577,0
1.499,1.131,-0.983,0
1.718,0.654,0.338,0
1.766,0.041,2.442,0
1.758,0.117,2.416,0
-0.313,-1.778,6.415,0
-1.343,-2.532,6.678,0
-1.343,-2.574,5.525,0
-0.852,-2.1,1.728,0
-0.475,-1.688,-0.316,0
0.252,-0.937,-1.955,0
0.43,-0.694,-2.383,0
0.664,-0.493,-2.862,0
0.655,-0.498,-2.907,0
0.63,-0.662,-2.507,0
0.691,-0.78,-2.068,0
0.421,-1.074,-1.009,0
0.408,-1.055,-1.016,0
0.248,-1.251,-0.083,0
0.471,-1.035,-0.208,0
0.999,-0.575,-0.809,0
1.158,-0.29,-1.257,0
1.21,-0.081,-1.577,0
1.078,-0.033,-1.673,0
0.841,0.079,-1.784,0
0.735,0.08,-1.685,0
0.6,0.058,-1.397,0
0.451,-0.016,-1.19,0
0.37,-0.07,-1.145,0
0.504,0.027,-1.249,0
0.865,0.266,-1.335,0
0.96,0.325,-1.142,0
0.963,0.405,-0.754,0
0.966,0.406,-0.568,0
0.926,0.364,-0.293,0
0.946,0.404,-0.257,0
0.811,0.364,-0.207,0
0.685,0.267,-0.014,0
0.401,0.112,0.25,0
0.288,0.051,0.39,0
0.212,0.084,0.479,0
0.17,0.172,0.602,0
0.449,0.345,0.736,0
0.622,0.469,0.695,0
0.623,0.563,0.959,0
0.719,0.519,1.249,0
0.829,0.442,1.616,0
0.676,0.472,1.971,0
0.448,0.429,2.295,0
0.368,0.427,2.132,0
0.578,0.619,1.242,0
0.575,0.629,0.682,1
0.585,0.597,0.695,0
0.086,0.876,0.078,0
-0.116,0.987,-0.264,0
-0.136,1.093,-0.274,0
0.356,1.091,-0.434,0
0.654,0.906,-0.073,0
0.66,-0.013,2.496,0
0.547,-0.617,4.193,0
0.004,-1.394,5.458,0
-0.514,-1.933,6.253,0
-0.382,-1.757,5.207,0
-0.396,-1.732,5.198,0
-0.082,-1.193,-0.825,0
0.143,-0.866,-2.219,0
0.481,-0.523,-3.167,0
0.526,-0.368,-2.844,0
0.255,-0.49,-1.386,0
-0.031,-0.733,-0.606,0
-0.343,-1.018,0.215,0
-0.473,-1.3,0.276,0
-0.598,-1.316,0.036,0
-0.502,-1.285,-0.248,0
-0.17,-0.986,-0.937,0
0.024,-0.793,-1.39,0
0.137,-0.621,-2.124,0
0.158,-0.546,-2.477,0
-0.042,-0.491,-2.556,0
-0.139,-0.516,-2.351,0
-0.289,-0.463,-1.827,0
-0.373,-0.385,-1.383,0
-0.223,-0.052,-1.001,0
-0.103,0.152,-1.051,0
0.039,0.418,-1.243,0
0.263,0.63,-1.468,0
0.443,0.822,-1.881,0
0.468,0.859,-2.035,0
0.323,0.714,-1.929,0
0.073,0.524,-1.661,0
-0.3,0.196,-0.98,0
-0.33,0.139,-0.666,0
-0.404,0.068,0.012,0
-0.484,0.061,0.414,0
-0.562,0.1,0.879,0
-0.495,0.191,1.015,0
-0.493,0.195,1.014,0
-0.183,0.489,0.45,0
-0.129,0.565,0.22,0
-0.056,0.525,0.398,0
-0.026,0.382,0.984,0
-0.064,0.271,1.276,0
-0.307,0.041,1.72,0
-0.385,-0.056,1.863,0
-0.332,0.072,1.575,0
-0.269,0.248,1.139,0
-0.264,0.219,1.149,0
-0.225,0.443,0.107,1
0.127,0.7,0.244,0
0.123,0.717,0.699,0
0.12,0.826,1.03,0
0.012,0.777,0.997,0
-0.229,0.722,0.575,0
-0.292,0.685,0.282,0
0.154,0.328,-0.173,0
0.445,0.077,0.393,0
0.628,-0.586,3.072,0
0.747,-0.881,4.618,0
0.333,-0.909,5.235,0
-0.094,-1.215,5.311,0
-0.016,-1.213,3.088,0
0.014,-0.878,1.314,0
0.019,-0.569,-0.655,0
0.141,-0.447,-1.137,0
0.223,-0.294,-1.486,0
0.183,-0.196,-1.654,0
0.021,-0.415,-1.693,0
0.04,-0.471,-1.563,0
0.049,-0.589,-1.198,0
0.128,-0.644,-1.008,0
0.239,-0.609,-0.72,0
0.302,-0.578,-0.709,0
0.276,-0.523,-0.825,0
0.182,-0.634,-0.799,0
0.048,-0.623,-1.027,0
-0.086,-0.56,-0.981,0
-0.108,-0.514,-0.708,0
-0.067,-0.35,-0.634,0
0.023,-0.153,-0.686,0
0.144,-0.004,-0.886,0
0.184,0.116,-1.357,0
0.13,0.153,-1.631,0
-0.124,0.012,-2.003,0
-0.127,-0.118,-2.117,0
0.073,0.061,-2.109,0
0.246,0.106,-1.859,0
0.515,0.268,-1.4,0
0.487,0.318,-1.096,0
0.301,0.196,-0.384,0
0.17,0.084,-0.14,0
-0.089,0.006,0.158,0
-0.123,-0.069,0.306,0
-0.047,0.019,0.127,0
-0.01,0.154,-0.184,0
0.005,0.148,-0.181,0
0.303,0.436,-0.384,0
0.308,0.43,-0.382,0
0.294,0.51,0.872,0
0.145,0.574,1.332,0
0.008,0.513,1.741,0
0.042,0.41,2.22,0
0.117,0.396,2.212,0
0.246,0.516,1.782,0
0.258,0.654,1.431,0
0.173,0.705,0.886,0
0.346,0.855,0.57,1
0.444,0.996,0.354,0
0.366,1.127,0.321,0
0.244,1.168,0.131,0
0.305,1.079,-0.03,0
0.353,0.819,0.484,0
0.26,0.444,1.434,0
0.183,-0.196,2.583,0
0.109,-0.66,3.1,0
-0.085,-1.169,3.597,0
-0.227,-1.354,3.63,0
-0.397,-1.394,2.841,0
-0.285,-1.226,1.965,0
-0.039,-0.952,0.539,0
-0.029,-0.835,0.089,0
-0.066,-0.888,-0.124,0
-0.123,-0.887,-0.371,0
-0.146,-0.842,-0.702,0
