accelX,accelY,accelZ,label
-0.093,0.825,1.568,1
-0.524,0.903,1.052,1
-0.632,0.969,0.123,1
-0.403,1.174,-0.625,1
0.155,1.351,-0.732,1
0.306,1.358,-0.137,1
0.75,1.156,0.589,1
0.693,0.553,1.411,1
0.403,-0.265,2.575,1
0.161,-0.892,3.556,1
-0.268,-1.575,4.592,1
-0.502,-1.657,4.431,1
-0.279,-1.3,2.428,1
-0.113,-0.861,0.53,1
-0.035,-0.56,-1.071,1
-0.074,-0.361,-1.65,1
-0.076,-0.063,-1.999,1
0.002,0.043,-1.642,1
0.145,0.12,-1.036,1
0.252,-0.008,-0.813,1
0.197,-0.316,-0.612,1
0.252,-0.451,-0.585,0
0.328,-0.625,-0.369,0
0.388,-0.728,-0.331,0
0.363,-0.735,-0.257,0
0.249,-0.732,-0.285,0
0.147,-0.693,-0.769,0
0.156,-0.604,-1.174,0
0.202,-0.385,-1.636,0
0.206,-0.269,-1.698,0
0.232,-0.268,-1.645,0
0.26,-0.145,-1.614,0
0.295,-0.057,-1.503,0
0.247,-0.012,-1.494,0
0.042,-0.012,-1.587,0
-0.05,0.05,-1.725,0
-0.047,0.047,-1.724,0
-0.208,0.163,-1.735,0
-0.172,0.258,-1.783,0
-0.186,0.372,-1.559,0
-0.281,0.357,-1.246,0
-0.306,0.378,-1.079,0
-0.309,0.46,-0.848,0
-0.301,0.377,-0.631,0
-0.447,0.21,0.283,0
-0.504,0.233,1.012,0
-0.443,0.334,1.477,0
-0.507,0.304,1.518,0
-0.649,0.237,1.637,0
-0.674,0.157,1.873,0
-0.685,0.147,1.876,0
-0.417,0.068,2.8,0
-0.31,-0.012,3.139,0
0.014,0.245,2.919,0
-0.061,0.906,2.444,0
0.056,1.071,1.535,1
0.125,1.186,0.439,1
0.066,1.155,-0.196,1
-0.237,0.845,-0.233,1
-0.209,0.839,-0.23,1
-0.702,0.244,1.327,1
-0.638,0.017,1.817,1
-0.516,-0.158,2.042,1
-0.305,-0.333,2.188,1
-0.09,-0.454,2.363,1
0.013,-0.461,2.36,1
0.177,-0.362,1.772,1
0.255,-0.275,1.027,1
0.262,-0.268,-0.114,1
0.22,-0.308,-0.558,1
0.093,-0.429,-0.998,1
0.104,-0.488,-1.17,1
0.164,-0.562,-1.28,1
0.196,-0.56,-1.327,1
0.484,-0.446,-1.534,1
0.642,-0.468,-1.575,1
0.473,-0.725,-0.955,0
0.501,-0.788,-0.512,0
0.506,-0.836,-0.323,0
0.409,-0.829,-0.472,0
0.266,-0.784,-0.734,0
0.253,-0.63,-1.091,0
0.235,-0.394,-1.643,0
0.235,-0.233,-1.909,0
0.241,-0.027,-1.94,0
0.263,0.104,-1.846,0
0.367,0.209,-1.635,0
0.37,0.274,-1.434,0
0.387,0.29,-1.085,0
0.493,0.396,-0.978,0
0.532,0.503,-1.04,0
0.406,0.481,-1.221,0
0.143,0.388,-1.404,0
0.059,0.39,-1.398,0
0.282,0.411,-1.194,0
0.232,0.357,-0.765,0
0.033,0.319,-0.081,0
-0.081,0.215,0.136,0
-0.279,0.211,0.523,0
-0.285,0.275,0.571,0
-0.241,0.332,0.528,0
-0.288,0.325,0.821,0
-0.19,0.294,1.06,0
-0.303,0.157,1.179,0
-0.354,0.1,1.785,0
-0.228,0.081,2.091,0
-0.231,0.052,2.099,0
0.057,0.345,1.777,0
-0.273,0.83,1.006,0
-0.392,1.062,0.382,0
-0.226,1.316,-0.38,1
-0.016,1.551,-0.698,1
-0.133,1.59,-0.265,1
-0.141,1.426,0.205,1
0.017,0.638,1.681,1
0.055,-0.162,3.011,1
-0.201,-1.106,4.822,1
-0.575,-1.929,6.216,1
-0.745,-2.413,6.717,1
-0.679,-2.263,5.676,1
-0.353,-1.643,2.472,1
-0.161,-1.118,0.309,1
0.169,-0.629,-2.014,1
0.253,-0.301,-2.961,1
0.013,-0.169,-3.171,1
-0.261,-0.14,-2.646,1
-0.136,-0.141,-1.989,1
-0.019,-0.257,-1.35,1
-0.052,-0.237,-1.359,1
-0.019,-0.695,-0.847,1
-0.094,-0.971,-0.927,1
-0.065,-1.008,-0.924,0
-0.119,-1.135,-1.044,0
-0.142,-1.12,-1.267,0
0.002,-0.939,-1.695,0
-0.009,-0.811,-1.952,0
-0.001,-0.706,-2.058,0
-0.051,-0.561,-2.03,0
-0.018,-0.361,-1.991,0
0.018,-0.234,-2.067,0
0.184,0.07,-2.001,0
0.302,0.258,-1.85,0
0.41,0.46,-1.639,0
0.342,0.509,-1.497,0
0.177,0.443,-1.183,0
0.063,0.416,-0.844,0
0.022,0.347,-0.288,0
-0.086,0.275,0.194,0
-0.253,0.06,0.842,0
-0.311,-0.015,1.141,0
-0.512,-0.097,1.604,0
-0.475,-0.136,1.711,0
-0.503,-0.015,1.918,0
-0.588,-0.01,2.12,0
-0.596,0.058,1.995,0
-0.555,0.127,1.652,0
-0.514,0.158,1.149,0
-0.416,0.211,0.836,0
-0.177,0.208,0.598,0
-0.115,0.169,1.027,0
-0.213,0.443,1.735,0
-0.47,0.834,1.772,0
-0.391,1.086,1.13,1
-0.198,1.299,0.352,1
-0.025,1.355,-0.696,1
0.059,1.075,-0.993,1
-0.147,0.239,0.333,1
-0.182,-0.346,1.667,1
-0.325,-1.047,3.468,1
-0.444,-1.599,4.7,1
-0.499,-2.1,5.983,1
-0.478,-2.063,5.951,1
-0.25,-1.593,4.367,1
0.129,-1.158,2.342,1
0.331,-0.554,0.19,1
0.661,-0.304,-0.73,1
0.888,0.091,-1.641,1
0.858,0.08,-1.782,1
0.744,-0.212,-1.044,1
0.853,-0.41,-0.223,1
1.138,-0.571,0.466,1
1.108,-0.816,0.677,1
0.933,-1.123,0.553,1
0.986,-1.15,0.159,0
1.269,-0.952,-0.774,0
1.539,-0.76,-1.272,0
1.652,-0.583,-1.494,0
1.452,-0.481,-1.62,0
1.088,-0.454,-2.083,0
0.902,-0.48,-2.455,0
0.746,-0.378,-2.676,0
0.701,-0.363,-2.744,0
0.672,-0.226,-2.691,0
0.751,-0.129,-2.646,0
0.876,0.043,-2.406,0
0.846,0.128,-2.258,0
0.732,0.205,-2.091,0
0.523,0.166,-1.83,0
0.29,0.061,-1.474,0
0.176,0.032,-1.141,0
0.167,0.021,-0.697,0
0.314,0.088,-0.385,0
0.702,0.299,-0.159,0
0.78,0.353,-0.102,0
0.968,0.439,-0.034,0
1.101,0.506,-0.013,0
1.048,0.544,0.074,0
1.055,0.572,0.136,0
0.893,0.504,0.225,0
0.639,0.437,0.628,0
0.302,0.311,1.225,0
0.251,0.249,1.596,0
0.32,0.28,2.388,0
0.428,0.264,2.772,0
0.588,0.332,2.836,0
0.498,0.622,2.339,0
0.314,1.009,1.181,0
0.211,1.103,0.35,0
0.147,0.981,0.006,1
-0.005,0.727,0.573,1
-0.393,0.321,2.291,1
-0.33,0.183,3.097,1
-0.261,-0.256,3.448,1
-0.076,-0.799,3.245,1
0.203,-1.239,2.763,1
0.359,-1.573,2.541,1
0.578,-1.842,2.116,1
0.453,-1.73,1.698,1
0.344,-1.498,0.595,1
0.244,-1.281,-0.578,1
0.069,-1.058,-1.424,1
0.065,-0.858,-1.519,1
0.072,-0.46,-1.654,1
0.052,-0.256,-1.627,1
0.134,-0.169,-1.564,1
0.208,-0.217,-1.453,1
0.172,-0.445,-1.172,1
0.097,-0.665,-0.773,1
0.03,-0.974,-0.544,1
0.022,-1.033,-0.531,0
0.058,-1.059,-0.707,0
0.078,-1.014,-0.931,0
0.12,-0.78,-1.177,0
0.136,-0.644,-1.419,0
0.207,-0.415,-1.47,0
0.216,-0.155,-1.43,0
0.221,0.037,-1.388,0
0.114,0.121,-1.301,0
0.081,0.199,-1.104,0
0.033,0.213,-1.14,0
-0.18,0.232,-1.069,0
-0.199,0.252,-0.995,0
-0.136,0.272,-0.672,0
-0.134,0.258,-0.283,0
-0.154,0.237,-0.311,0
-0.067,0.296,-0.42,0
-0.131,0.362,-0.202,0
-0.187,0.35,0.134,0
-0.208,0.35,0.506,0
-0.234,0.296,0.507,0
-0.285,0.198,0.48,0
-0.38,0.233,0.863,0
-0.35,0.167,1.266,0
-0.569,0.063,1.625,0
-0.648,-0.051,1.755,0
-0.642,-0.113,1.625,0
-0.437,-0.071,1.389,0
-0.184,0.093,1.491,0
-0.112,0.87,1.542,0
0.09,1.462,1.08,0
0.081,1.431,1.089,1
0.835,1.404,-0.277,1
0.405,0.899,0.055,1
-0.072,0.059,1.218,1
-0.306,-0.53,3.019,1
-0.352,-0.867,3.724,1
0.087,-1.558,4.485,1
0.479,-1.62,4.567,1
0.709,-1.681,4.385,1
0.519,-1.604,3.847,1
0.181,-1.216,2.687,1
-0.062,-0.939,1.277,1
-0.044,-0.762,0.104,1
0.11,-0.51,-0.588,1
0.191,-0.219,-1.382,1
0.335,-0.139,-1.563,1
0.612,-0.045,-1.599,1
0.836,-0.032,-1.563,1
0.82,-0.056,-1.558,1
1.56,0.083,-2.148,1
1.561,0.078,-2.146,1
1.426,-0.447,-1.399,0
1.062,-0.716,-0.543,0
0.637,-1.072,-0.174,0
0.15,-1.299,0.168,0
0.007,-1.228,0.031,0
-0.088,-1.189,-0.651,0
-0.101,-1.053,-1.342,0
0.042,-0.784,-1.829,0
0.205,-0.587,-1.916,0
0.51,-0.304,-2.25,0
0.537,-0.15,-2.434,0
0.558,-0.105,-2.474,0
0.383,-0.128,-2.167,0
0.008,-0.329,-1.161,0
-0.167,-0.441,-0.632,0
-0.212,-0.357,-0.506,0
-0.019,-0.201,-0.779,0
0.128,0.007,-1.023,0
0.366,0.21,-1.051,0
0.359,0.19,-1.045,0
0.766,0.466,-0.976,0
0.829,0.385,-1.002,0
0.832,0.286,-0.666,0
0.832,0.281,-0.665,0
0.575,0.086,0.578,0
0.395,0.026,1.144,0
0.19,0.034,1.609,0
0.201,0.156,1.836,0
0.391,0.4,1.584,0
0.35,0.669,0.968,0
0.489,0.741,0.694,0
0.842,0.898,0.471,0
0.739,0.955,0.687,0
0.349,1.074,0.74,0
0.103,0.811,0.489,1
-0.136,0.372,0.634,1
-0.171,0.137,1.034,1
-0.302,0.077,1.581,1
-0.348,0.116,1.702,1
-0.365,-0.009,1.761,1
-0.189,-0.171,1.881,1
0.178,-0.577,2.599,1
0.278,-0.971,3.314,1
0.289,-1.477,3.631,1
0.257,-1.649,3.416,1
-0.072,-1.528,2.592,1
-0.115,-1.104,0.956,1
-0.045,-0.589,-1.266,1
-0.039,-0.425,-2.029,1
-0.166,-0.035,-2.895,1
-0.308,0.24,-3.065,1
-0.364,0.226,-2.301,1
-0.319,0.103,-1.268,1
-0.225,-0.118,-0.284,1
-0.268,-0.37,-0.106,1
-0.272,-0.697,0.039,0
-0.204,-0.806,0.134,0
-0.052,-0.759,0.095,0
0.134,-0.565,-0.315,0
0.159,-0.397,-1.089,0
0.056,-0.309,-1.569,0
-0.071,-0.18,-1.951,0
-0.11,-0.081,-2.137,0
-0.269,-0.068,-1.814,0
-0.381,-0.109,-1.475,0
-0.468,-0.114,-0.925,0
-0.607,-0.124,-0.845,0
-0.6,0.13,-1.264,0
-0.355,0.349,-1.432,0
-0.359,0.342,-1.431,0
-0.247,0.598,-1.339,0
-0.396,0.562,-0.993,0
-0.541,0.447,-0.585,0
-0.696,0.249,0.327,0
-0.73,0.158,0.685,0
-0.804,0.079,1.104,0
-0.633,0.149,1.137,0
-0.512,0.16,1.337,0
-0.539,0.102,1.711,0
-0.59,0.116,1.942,0
-0.749,0.206,1.999,0
-0.689,0.341,2.064,0
-0.62,0.369,1.757,0
-0.566,0.42,1.197,0
-0.317,0.294,1.289,0
-0.255,0.217,1.762,0
-0.232,0.148,2.147,0
-0.256,0.103,2.158,1
-0.473,1.125,1.233,1
-0.36,0.983,0.346,1
0.01,0.916,-0.038,1
0.265,0.697,-0.203,1
0.257,0.245,0.598,1
0.148,-0.748,2.691,1
-0.23,-1.029,3.455,1
-0.52,-1.368,3.882,1
-0.475,-1.489,3.754,1
-0.501,-1.328,2.518,1
-0.594,-1.072,1.149,1
-0.561,-0.617,-0.264,1
-0.46,-0.352,-0.919,1
-0.393,-0.249,-1.31,1
-0.276,-0.233,-1.475,1
-0.262,-0.301,-1.41,1
-0.194,-0.43,-1.046,1
-0.19,-0.421,-1.048,1
0.287,-0.798,-0.282,1
0.343,-0.975,-0.291,1
0.408,-1.024,-0.447,0
0.526,-1.073,-0.55,0
0.599,-0.988,-0.645,0
0.486,-0.928,-0.803,0
0.284,-0.921,-0.927,0
0.197,-0.777,-1.067,0
0.345,-0.529,-1.205,0
0.509,-0.167,-1.523,0
0.548,-0.001,-1.89,0
0.447,0.083,-2.205,0
0.373,0.147,-2.189,0
0.349,0.257,-2.244,0
0.265,0.295,-2.287,0
-0.155,0.15,-2.016,0
-0.32,0.076,-1.845,0
-0.308,0.118,-1.744,0
-0.198,0.195,-1.573,0
-0.184,0.252,-1.084,0
-0.145,0.272,-0.853,0
-0.125,0.277,-0.726,0
-0.116,0.244,-0.565,0
-0.119,0.241,-0.564,0
-0.029,0.117,-0.127,0
0.018,0.104,-0.006,0
-0.041,0.126,0.026,0
-0.262,0.138,0.197,0
-0.237,0.296,0.386,0
-0.153,0.465,0.669,0
-0.144,0.523,0.841,0
-0.181,0.537,1.171,0
-0.133,0.437,1.253,0
-0.125,0.411,1.261,0
-0.031,0.191,2.053,0
0.031,0.066,2.189,0
-0.294,0.402,2.241,0
-0.667,0.983,1.36,1
-0.711,1.202,0.154,1
-0.328,1.382,-0.684,1
-0.155,1.413,-0.803,1
-0.118,0.756,0.459,1
-0.047,0.146,2.065,1
-0.061,-0.648,3.577,1
-0.295,-1.455,4.89,1
-0.405,-2.111,5.514,1
-0.409,-1.929,4.866,1
-0.089,-1.474,2.4,1
0.073,-0.929,0.491,1
0.214,-0.643,-1.331,1
0.102,-0.42,-2.054,1
-0.23,-0.418,-2.36,1
-0.451,-0.545,-1.946,1
-0.402,-0.813,-0.721,1
-0.276,-0.924,-0.091,1
0.047,-1.245,0.367,1
0.08,-1.462,0.534,1
0.2,-1.473,0.486,1
0.344,-1.471,0.323,0
0.412,-1.266,-0.269,0
0.413,-1.08,-0.886,0
0.404,-0.89,-1.661,0
0.428,-0.764,-2.166,0
0.386,-0.611,-2.676,0
0.417,-0.492,-2.627,0
0.363,-0.373,-2.14,0
0.21,-0.275,-1.923,0
0.398,-0.079,-2.065,0
0.258,0.002,-1.918,0
0.035,0.085,-1.481,0
-0.17,0.108,-1.288,0
-0.15,0.197,-1.375,0
-0.178,0.145,-1.146,0
-0.184,0.181,-0.488,0
-0.221,0.213,-0.147,0
-0.271,0.252,-0.252,0
-0.213,0.289,-0.557,0
-0.311,0.249,-0.456,0
-0.32,0.288,-0.09,0
-0.273,0.196,0.063,0
-0.356,0.117,0.273,0
-0.313,0.151,0.884,0
-0.248,0.218,1.904,0
-0.206,0.261,3.099,0
-0.257,0.114,3.619,0
-0.034,0.021,3.213,0
0.096,0.104,2.512,0
0.356,0.038,1.691,0
0.564,0.082,1.57,0
0.473,0.513,1.264,0
0.121,0.9,0.659,0
0.132,0.857,0.672,1
-0.026,0.765,-0.269,1
0.055,0.404,0.791,1
0.05,0.009,1.717,1
0.009,-0.743,3.08,1
-0.135,-0.694,3.377,1
-0.201,-0.545,2.826,1
-0.095,-0.413,1.528,1
-0.119,-0.26,0.191,1
-0.161,-0.315,-0.16,1
-0.374,-0.378,-0.264,1
-0.54,-0.563,-0.147,1
-0.642,-0.792,0.106,1
-0.763,-0.91,0.179,1
-0.829,-1.184,0.091,1
-0.584,-1.245,-0.006,1
-0.316,-1.344,0.052,1
-0.146,-1.424,0.079,1
-0.058,-1.528,-0.107,1
-0.14,-1.64,0.156,1
-0.314,-1.742,0.657,1
-0.303,-1.621,0.585,0
-0.036,-1.216,-0.006,0
0.266,-0.807,-0.525,0
0.498,-0.406,-1.218,0
0.568,-0.168,-1.719,0
0.617,0.008,-2.198,0
0.595,0.117,-2.511,0
0.582,0.154,-2.451,0
0.629,0.214,-2.182,0
0.626,0.207,-2.18,0
0.526,0.289,-1.673,0
0.367,0.271,-1.662,0
0.356,0.288,-1.847,0
0.461,0.347,-1.737,0
0.369,0.341,-1.703,0
0.226,0.27,-1.734,0
0.324,0.309,-1.545,0
0.42,0.312,-1.091,0
0.521,0.264,-0.783,0
0.259,0.257,-0.076,0
-0.035,0.096,0.423,0
-0.495,-0.129,0.725,0
-0.736,-0.116,0.66,0
-0.779,-0.004,0.306,0
-0.542,0.163,-0.089,0
-0.01,0.536,-0.2,0
0.113,0.584,0.262,0
0.123,0.377,1.314,0
0.097,0.234,1.981,0
0.161,-0.184,2.799,0
0.125,-0.354,3.276,0
0.079,-0.711,3.837,0
0.028,-0.625,3.739,1
-0.289,0.287,2.448,1
-0.446,0.805,1.02,1
-0.327,1.097,-1.106,1
-0.266,1.345,-2.249,1
-0.41,1.106,-1.894,1
-0.387,0.696,-0.213,1
-0.203,-0.139,1.792,1
-0.145,-0.869,3.459,1
0.032,-1.658,5.14,1
0.306,-1.672,5.612,1
0.644,-1.349,4.182,1
0.578,-1.005,1.887,1
0.296,-0.793,-0.42,1
0.052,-0.547,-1.513,1
-0.47,-0.374,-2.335,1
-0.602,-0.402,-2.303,1
-0.441,-0.49,-1.673,1
-0.244,-0.71,-0.79,1
0.025,-1.087,0.068,1
0.152,-1.316,0.404,1
0.312,-1.458,0.458,0
0.357,-1.475,0.217,0
0.384,-1.383,-0.284,0
0.44,-1.253,-0.611,0
0.295,-1.145,-0.876,0
0.197,-1.039,-1.197,0
0.178,-0.764,-1.918,0
0.189,-0.581,-2.34,0
0.268,-0.397,-2.878,0
0.412,-0.181,-3.157,0
0.459,-0.042,-2.773,0
0.321,-0.04,-2.44,0
0.246,0.029,-2.417,0
0.21,0.053,-2.04,0
0.155,-0.011,-0.822,0
-0.012,-0.087,-0.313,0
-0.267,-0.078,-0.486,0
-0.495,-0.093,-0.434,0
-0.666,-0.019,-0.364,0
-0.712,0.034,-0.328,0
-0.773,0.094,-0.326,0
-0.65,0.063,-0.551,0
-0.385,0.15,-0.498,0
-0.283,0.19,-0.03,0
-0.26,0.064,0.532,0
-0.284,0.014,1.294,0
-0.206,-0.086,2.298,0
-0.127,-0.128,2.601,0
-0.002,-0.251,2.489,0
-0.038,-0.385,2.335,0
0.422,-0.285,2.239,0
0.637,-0.015,2.263,0
0.37,0.7,2.358,0
0.274,1.234,1.544,0
0.301,1.206,1.553,1
0.614,1.394,-0.569,1
0.528,0.723,0.625,1
0.424,-0.014,2.186,1
-0.091,-0.944,4.343,1
-0.308,-1.185,5.248,1
-0.012,-0.94,4.636,1
0.201,-0.626,3.041,1
0.278,-0.377,1.312,1
0.378,-0.354,0.654,1
0.396,-0.376,0.495,1
0.318,-0.619,0.744,1
0.232,-1.166,0.833,1
0.197,-1.304,0.724,1
-0.15,-1.783,0.406,1
-0.258,-1.987,0.174,1
-0.013,-1.927,-0.032,1
0.302,-1.787,0.015,1
0.587,-1.522,-0.044,1
0.781,-1.328,-0.598,1
0.819,-1.067,-1.246,1
0.706,-0.994,-1.381,0
0.604,-0.714,-1.566,0
0.619,-0.484,-1.756,0
0.538,-0.215,-2.193,0
0.571,-0.072,-2.489,0
0.579,0.102,-2.731,0
0.615,0.167,-2.913,0
0.493,0.163,-2.521,0
0.347,0.173,-2.085,0
0.054,0.12,-1.781,0
-0.014,0.13,-1.863,0
-0.216,0.103,-1.635,0
-0.439,-0.079,-1.197,0
-0.577,-0.048,-1.085,0
-0.466,0.09,-1.109,0
-0.269,0.156,-1.122,0
-0.091,0.272,-1.106,0
-0.125,0.129,-0.913,0
-0.082,0.017,-0.765,0
0.033,0.02,-0.097,0
-0.086,-0.123,0.62,0
-0.346,-0.325,1.391,0
-0.459,-0.303,1.652,0
-0.371,-0.164,1.322,0
-0.291,-0.057,0.814,0
-0.194,0.125,0.519,0
0.03,0.236,0.552,0
0.376,0.37,0.963,0
0.504,0.405,1.335,0
0.47,0.239,1.619,0
0.098,0.093,1.8,0
-0.53,0.501,1.49,0
-0.636,0.901,0.815,0
-0.367,1.28,0.156,1
0.141,1.439,-0.458,1
0.585,1.165,0.188,1
0.577,0.553,2.036,1
0.415,-0.558,4.76,1
0.182,-1.442,6.628,1
0.095,-2.336,7.793,1
-0.156,-2.557,7.321,1
-0.184,-2.377,4.959,1
-0.146,-1.754,2.881,1
-0.107,-1.757,2.884,1
-0.025,-0.794,-1.519,1
-0.713,-0.81,-3.137,1
-1.036,-0.981,-3.226,1
-1.17,-1.125,-2.04,1
-0.876,-1.26,-0.705,1
-0.49,-1.374,0.345,1
-0.435,-1.59,0.704,1
-0.277,-1.725,0.681,1
-0.037,-1.609,0.28,1
0.304,-1.311,-0.413,1
0.441,-1.115,-0.674,0
0.45,-0.916,-1.252,0
0.407,-0.837,-1.743,0
0.356,-0.743,-2.226,0
0.343,-0.669,-2.419,0
0.307,-0.561,-2.254,0
0.29,-0.485,-2.2,0
0.286,-0.256,-2.51,0
0.188,-0.034,-2.765,0
0.147,0.213,-3.001,0
0.154,0.391,-3.07,0
0.031,0.539,-2.783,0
-0.157,0.458,-2.199,0
-0.498,0.293,-1.331,0
-0.74,0.136,-0.61,0
-0.856,0.069,-0.006,0
-0.783,0.211,-0.002,0
-0.481,0.521,-0.021,0
-0.327,0.585,-0.074,0
-0.152,0.632,-0.009,0
-0.153,0.536,0.38,0
-0.256,0.385,0.852,0
-0.339,0.309,1.17,0
-0.549,0.205,1.429,0
-0.673,0.133,1.362,0
-0.652,0.161,1.004,0
-0.535,0.177,0.917,0
-0.357,0.313,0.716,0
-0.282,0.397,0.803,0
-0.325,0.786,1.089,0
-0.468,1.26,1.111,0
-0.596,1.468,0.565,0
-0.689,1.496,-0.124,0
-0.915,1.313,-0.822,1
-1.006,0.936,-0.401,1
-0.954,0.003,1.86,1
-1.016,-0.349,3.57,1
-1.202,-1.161,6.45,1
-1.245,-1.616,8.055,1
-0.745,-2.017,8.55,1
-0.653,-1.898,7.745,1
-0.322,-1.597,5.692,1
-0.001,-1.229,3.477,1
0.272,-0.814,1.432,1
0.594,-0.702,0.368,1
0.679,-0.492,-1.164,1
0.547,-0.591,-1.62,1
0.663,-0.699,-2.081,1
0.864,-0.676,-1.939,1
1.209,-0.737,-1.543,1
1.301,-0.794,-1.579,1
1.226,-1,-1.793,1
1.133,-1.049,-1.706,1
0.692,-1.162,-1.746,1
0.446,-1.251,-1.878,0
0.186,-1.216,-2.185,0
0.102,-1.177,-2.323,0
-0.004,-1.046,-2.606,0
0.043,-0.896,-2.939,0
0.319,-0.647,-3.122,0
0.398,-0.591,-2.935,0
0.285,-0.666,-2.386,0
0.09,-0.677,-1.964,0
-0.133,-0.679,-1.637,0
-0.244,-0.665,-1.544,0
-0.397,-0.429,-1.635,0
-0.278,-0.231,-1.88,0
-0.038,0.079,-2.129,0
0.078,0.274,-2.216,0
0.078,0.272,-2.216,0
0.249,0.308,-1.177,0
0.229,0.311,-1.179,0
-0.042,0.157,0.421,0
-0.245,-0.029,1.255,0
-0.348,-0.027,1.462,0
-0.444,-0.064,1.227,0
-0.273,0.088,0.649,0
0.022,0.298,0.202,0
0.068,0.407,0.308,0
0.047,0.427,0.4,0
-0.068,0.325,0.791,0
-0.051,0.253,1.343,0
-0.049,0.233,1.569,0
-0.127,0.165,2.074,0
-0.46,0.312,2.284,0
-0.462,0.273,2.297,0
-0.756,1.12,0.481,1
-0.07,1.482,-0.381,1
0.117,1.554,-0.913,1
-0.19,1.063,-0.212,1
-0.229,0.366,1.224,1
-0.468,-0.967,3.749,1
-0.97,-1.964,5.665,1
-1.457,-3.235,7.552,1
-1.598,-3.475,7.535,1
-1.589,-3.152,5.514,1
-1.293,-2.467,3.013,1
-0.747,-1.65,0.462,1
-0.479,-1.092,-1.667,1
-0.662,-0.588,-3.408,1
-0.797,-0.533,-3.643,1
-0.94,-0.532,-2.975,1
-0.627,-0.565,-1.979,1
0.036,-0.505,-0.895,1
0.348,-0.513,-0.524,1
0.459,-0.672,-0.254,1
0.472,-0.789,-0.275,1
0.456,-0.772,-0.462,0
0.378,-0.79,-0.717,0
0.141,-0.79,-1.199,0
-0.075,-0.697,-1.537,0
-0.243,-0.707,-2.18,0
-0.298,-0.574,-2.823,0
-0.311,-0.41,-3.182,0
-0.19,-0.17,-3.113,0
0.038,0.094,-2.731,0
0.148,0.28,-2.304,0
0.224,0.396,-1.769,0
0.08,0.375,-1.52,0
-0.315,0.219,-1.081,0
-0.651,0.005,-0.625,0
-0.646,0.025,-0.63,0
-0.843,0.004,0.228,0
-0.964,-0.002,0.459,0
-1.09,-0.033,0.415,0
-1.161,0.036,0.319,0
-1.186,0.009,0.427,0
-1.163,-0.115,0.874,0
-1.047,-0.057,1.073,0
-0.865,0.034,1.546,0
-1.093,-0.026,2.101,0
-1.189,0.067,2.666,0
-1.057,0.163,2.697,0
-0.932,0.264,2.341,0
-0.813,0.239,1.833,0
-0.579,0.385,1.461,0
-0.394,0.467,1.507,0
-0.403,0.778,1.461,0
-0.729,1.128,1.066,0
-0.73,1.084,1.078,1
-0.951,1.134,0.511,1
-0.935,1.008,-0.118,1
-0.704,0.769,0.333,1
-0.476,0.121,1.678,1
-0.661,-0.387,2.838,1
-1.019,-0.87,3.643,1
-1.257,-1.199,3.904,1
-1.381,-1.478,3.701,1
-1.271,-1.256,3.035,1
-0.847,-0.887,1.886,1
-0.594,-0.614,0.949,1
-0.473,-0.476,-0.119,1
-0.454,-0.557,-0.641,1
-0.495,-0.708,-0.778,1
-0.399,-0.825,-0.601,1
-0.407,-1.029,-0.511,1
-0.521,-1.363,-0.704,1
-0.496,-1.595,-0.771,1
-0.4,-1.589,-0.68,1
0.09,-1.398,-0.548,1
0.478,-1.095,-0.599,0
0.424,-1.005,-0.821,0
0.21,-1.01,-1.041,0
-0.064,-0.998,-1.301,0
-0.134,-0.862,-1.487,0
-0.182,-0.785,-1.665,0
-0.214,-0.648,-1.708,0
-0.043,-0.445,-1.752,0
0.152,-0.296,-1.737,0
0.439,-0.114,-1.577,0
0.338,-0.076,-1.199,0
0.229,-0.029,-0.858,0
0.274,0.08,-0.988,0
0.3,0.156,-1.325,0
0.372,0.217,-1.683,0
0.385,0.212,-1.682,0
0.026,0.239,-1.711,0
-0.16,0.137,-1.213,0
-0.316,0.088,-0.949,0
-0.272,0.049,-1.015,0
-0.198,0.134,-0.934,0
-0.056,0.27,-0.696,0
0.147,0.426,-0.315,0
0.12,0.494,0.188,0
-0.041,0.423,0.342,0
-0.209,0.394,0.176,0
-0.283,0.306,-0.009,0
-0.307,0.294,0.414,0
-0.148,0.244,0.673,0
0.034,0.113,1.087,0
0.056,-0.024,1.519,0
0.093,-0.405,2.91,0
-0.005,-0.376,3.771,0
-0.771,0.064,4.032,0
-1.065,0.234,2.697,0
-1.06,0.186,2.713,1
-0.975,0.495,0.304,1
-0.616,0.312,-0.298,1
-0.372,0.147,0.349,1
-0.07,-0.45,3.018,1
-0.072,-0.945,4.09,1
-0.153,-1.57,4.699,1
-0.109,-1.818,4.422,1
0.098,-1.393,2.61,1
0.039,-1.047,0.893,1
-0.157,-0.952,-0.701,1
-0.404,-0.866,-1.318,1
-0.668,-0.759,-1.404,1
-0.847,-0.74,-1.125,1
-0.96,-0.793,-0.572,1
-1,-0.85,-0.45,1
-0.761,-1.018,-0.458,1
-0.553,-1.109,-0.198,1
-0.27,-1.168,0.194,1
-0.208,-1.23,0.517,1
-0.227,-1.318,0.506,1
-0.298,-1.3,0.071,0
-0.349,-1.193,-0.861,0
-0.256,-0.976,-1.456,0
-0.091,-0.686,-1.946,0
-0.084,-0.481,-2.259,0
-0.117,-0.393,-2.548,0
-0.254,-0.357,-2.281,0
-0.476,-0.239,-1.83,0
-0.582,-0.138,-1.79,0
-0.413,0.065,-2.188,0
-0.441,0.233,-2.022,0
-0.632,0.209,-1.506,0
-0.902,0.147,-1.31,0
-1.035,0.04,-1.363,0
-0.864,0.076,-1.385,0
-0.845,0.001,-0.593,0
-0.932,-0.06,-0.061,0
-1.122,-0.135,0.164,0
-1.152,-0.171,0.132,0
-0.576,0.041,-0.293,0
-0.383,0.142,0.173,0
-0.395,0.025,0.602,0
-0.457,-0.029,0.556,0
-0.396,0.017,0.831,0
-0.357,0.038,1.276,0
-0.163,0.082,1.706,0
0.019,0.213,1.976,0
-0.043,0.308,1.898,0
-0.176,0.366,1.712,0
-0.238,0.531,1.154,0
-0.317,0.946,1.06,0
-0.309,0.922,1.067,0
-0.443,1.301,0.199,1
-0.214,1.254,-0.022,1
-0.257,1.086,0.731,1
-0.413,0.261,2.497,1
-0.756,-0.134,3.642,1
-1.172,-0.823,4.755,1
-1.187,-1.176,5.143,1
-0.993,-1.581,5.493,1
-0.816,-1.656,5.571,1
-0.683,-1.421,5.043,1
-0.563,-1.118,3.618,1
-0.521,-0.706,1.496,1
-0.476,-0.605,0.333,1
-0.373,-0.428,-0.943,1
-0.27,-0.35,-1.452,1
-0.416,-0.386,-1.515,1
-0.535,-0.6,-1.218,1
-0.592,-0.791,-0.911,1
-0.538,-0.9,-0.968,1
-0.729,-1.052,-0.978,1
-0.914,-1.207,-0.932,1
-0.886,-1.199,-0.934,0
-0.76,-1.012,-1.242,0
-0.59,-0.764,-1.735,0
-0.454,-0.558,-2.116,0
-0.411,-0.372,-2.633,0
-0.329,-0.209,-2.851,0
-0.291,-0.055,-3.096,0
-0.253,-0.032,-3.033,0
-0.258,-0.033,-3.032,0
-0.67,-0.283,-1.777,0
-0.81,-0.413,-1.401,0
-0.774,-0.382,-1.314,0
-0.58,-0.303,-1.603,0
-0.486,-0.203,-1.974,0
-0.394,-0.091,-2.12,0
-0.299,0.014,-1.978,0
-0.103,0.119,-1.824,0
-0.024,0.117,-1.709,0
-0.022,0.13,-1.713,0
-0.273,-0.089,-0.858,0
-0.372,-0.164,-0.493,0
-0.544,-0.263,-0.165,0
-0.538,-0.255,-0.167,0
-0.859,-0.271,0.453,0
-0.699,-0.062,0.434,0
-0.688,0.104,0.467,0
-0.469,0.344,0.288,0
-0.316,0.572,0.183,0
-0.184,0.767,0.596,0
-0.052,0.789,0.972,0
0.039,0.566,1.791,0
0.007,0.392,2.576,0
-0.097,0.539,3.646,0
-0.26,1.07,4.038,0
-0.263,1.664,2.493,1
-0.245,1.956,1.201,1
-0.044,1.785,0.724,1
-0.009,1.525,1.141,1
-0.064,0.529,3.278,1
-0.315,-0.235,4.557,1
-0.592,-1.206,6.143,1
-0.477,-1.67,6.904,1
-0.115,-1.992,6.295,1
-0.088,-1.756,4.648,1
-0.112,-1.222,2.13,1
-0.186,-1.022,0.253,1
-0.377,-0.664,-2.26,1
-0.644,-0.511,-3.325,1
-1.356,-0.631,-3.583,1
-1.621,-0.745,-3.242,1
-1.59,-0.852,-2.046,1
-1.148,-0.909,-1.298,1
-0.954,-1.298,-0.815,1
-0.842,-1.348,-0.506,1
-0.702,-1.669,-0.133,1
-0.714,-1.762,0.108,0
-0.704,-1.73,0.197,0
-0.767,-1.671,-0.187,0
-0.781,-1.435,-0.845,0
-0.809,-1.245,-1.432,0
-0.759,-0.941,-2.447,0
-0.671,-0.676,-2.912,0
-0.436,-0.357,-3.123,0
-0.168,-0.13,-3.402,0
0.018,0.043,-2.749,0
-0.041,-0.022,-2.085,0
-0.336,0.097,-1.367,0
-0.421,0.146,-1.172,0
-0.395,0.253,-1.358,0
-0.413,0.3,-1.225,0
-0.633,0.094,-0.66,0
-0.694,0.076,-0.37,0
-0.805,0.037,0.171,0
-0.876,0.013,0.549,0
-0.961,0.023,0.969,0
-1.02,-0.055,0.973,0
-0.825,-0.042,0.871,0
-0.677,0.034,0.73,0
-0.569,0.068,0.563,0
-0.732,-0.057,0.516,0
-0.951,-0.079,0.644,0
-0.903,-0.019,0.963,0
-0.817,0.034,1.755,0
-0.688,0.022,1.996,0
-0.43,0.057,2.079,0
-0.227,0.112,1.924,0
0.122,0.514,1.6,0
-0.017,1.032,1.262,0
-0.015,1.004,1.27,1
-0.141,1.288,-0.096,1
0.244,1.194,0.206,1
0.406,0.776,1.105,1
0.321,-0.1,3.068,1
-0.056,-0.447,3.885,1
-0.236,-0.941,4.506,1
-0.298,-1.121,4.154,1
-0.535,-1.321,3.292,1
-0.82,-1.444,2.401,1
-0.774,-1.423,2.394,1
-1.427,-1.448,0.728,1
-1.502,-1.328,-0.279,1
-1.369,-1.098,-0.819,1
-1.14,-0.998,-1.313,1
-0.902,-1.021,-1.101,1
-0.684,-1.073,-0.625,1
-0.511,-1.081,-0.296,1
-0.354,-1.118,-0.36,1
-0.341,-1.16,-0.477,1
-0.3,-1.196,-0.648,1
-0.19,-1.133,-0.799,0
0.054,-0.856,-0.955,0
0.141,-0.702,-1.044,0
0.208,-0.457,-1.111,0
0.231,-0.25,-1.229,0
0.148,-0.038,-1.474,0
0.143,0.121,-1.555,0
0.144,0.184,-1.32,0
-0.058,0.116,-1.124,0
-0.358,0.088,-1.06,0
-0.394,0.038,-0.999,0
-0.389,0.053,-0.967,0
-0.343,0.073,-0.948,0
-0.282,0.013,-1.22,0
-0.131,0.126,-1.466,0
0.252,0.296,-1.633,0
0.435,0.331,-1.662,0
0.613,0.345,-1.39,0
0.503,0.296,-1.078,0
0.209,-0.049,-0.116,0
-0.013,-0.266,0.733,0
-0.179,-0.35,1.463,0
-0.208,-0.201,1.458,0
-0.065,0.118,0.547,0
0.09,0.39,-0.202,0
0.189,0.659,-0.663,0
0.386,0.764,-0.521,0
0.468,0.713,0.515,0
0.467,0.502,1.434,0
0.504,0.212,2.186,0
0.423,0.003,2.681,0
0.161,-0.147,2.87,0
-0.324,0.286,2.371,0
-0.892,1.023,0.8,0
-0.584,1.395,-0.914,1
0.083,1.937,-2.495,1
0.707,2.09,-2.807,1
0.712,1.611,-0.029,1
0.648,0.379,2.564,1
0.031,-1.237,5.939,1
-0.308,-2.512,8.703,1
-0.323,-3.199,9.559,1
-0.242,-2.715,7.883,1
-0.067,-1.87,3.363,1
-0.049,-1.127,0.437,1
-0.057,-0.366,-2.98,1
-0.283,-0.063,-4.146,1
-0.58,-0.149,-4.356,1
-0.897,-0.227,-3.131,1
-0.757,-0.431,-1.02,1
-0.455,-0.424,-0.424,1
-0.376,-0.732,-0.59,1
-0.46,-1.059,-0.705,1
-0.199,-1.131,-0.664,1
-0.029,-1.059,-0.619,1
0.107,-1.055,-0.687,0
-0.053,-1.05,-0.921,0
-0.286,-1.042,-1.505,0
-0.531,-0.968,-1.86,0
-0.668,-0.841,-2.183,0
-0.683,-0.688,-2.29,0
-0.662,-0.522,-2.018,0
-0.491,-0.362,-1.712,0
-0.201,-0.267,-1.158,0
-0.188,-0.227,-0.744,0
-0.253,-0.188,-0.647,0
-0.381,-0.175,-0.68,0
-0.381,-0.117,-0.709,0
-0.313,0.011,-0.735,0
-0.226,0.109,-0.563,0
-0.123,0.118,-0.478,0
-0.096,0.149,-0.386,0
-0.137,0.081,-0.297,0
-0.169,-0.008,-0.245,0
-0.294,-0.126,0.119,0
-0.46,-0.293,0.691,0
-0.539,-0.367,1.08,0
-0.522,-0.215,0.999,0
-0.541,-0.139,0.894,0
-0.47,-0.069,1.103,0
-0.268,0.012,1.345,0
0.014,0.052,1.619,0
0.184,0.045,1.936,0
0.107,0.248,1.956,0
-0.039,0.87,1.828,0
-0.025,1.477,1.17,0
0.108,1.548,0.227,0
0.174,1.384,-0.344,1
0.177,1.372,-0.341,1
-0.016,-0.512,2.443,1
-0.211,-1.106,3.938,1
-0.713,-1.587,5.653,1
-0.611,-1.585,5.866,1
-0.131,-1.228,4.188,1
0.122,-0.81,2.287,1
0.241,-0.587,0.749,1
0.239,-0.464,-0.225,1
0.156,-0.547,-0.802,1
0.027,-0.838,-0.765,1
0.063,-0.827,-0.768,1
-0.13,-1.462,0.689,1
-0.318,-1.749,1.256,1
-0.406,-1.888,1.23,1
-0.27,-1.772,0.75,1
-0.021,-1.565,0.16,1
0.173,-1.269,-0.437,1
0.276,-1.048,-0.847,1
0.27,-0.815,-1.341,1
0.241,-0.688,-1.824,0
0.329,-0.32,-2.69,0
0.351,-0.116,-3.158,0
0.306,0.133,-3.384,0
0.253,0.149,-3.153,0
0.198,0.216,-2.712,0
0.181,0.224,-2.378,0
0.012,0.127,-1.956,0
-0.074,0.143,-1.603,0
-0.045,0.205,-1.291,0
-0.017,0.304,-1.148,0
0.055,0.375,-1.293,0
0.009,0.41,-1.339,0
0.004,0.411,-1.34,0
-0.016,0.359,-1.593,0
-0.119,0.323,-1.543,0
-0.172,0.217,-1.471,0
-0.284,0.092,-0.751,0
-0.296,0.048,-0.283,0
-0.328,0.083,0.04,0
-0.408,0.187,0.132,0
-0.475,0.384,-0.073,0
-0.502,0.495,-0.434,0
-0.305,0.654,-0.699,0
-0.301,0.732,-0.472,0
-0.226,0.428,-0.097,0
0.182,0.516,0.691,0
0.65,0.601,1.501,0
0.958,0.615,2.179,0
0.945,0.779,3.013,0
0.574,1.277,2.536,0
0.046,2.007,0.65,0
-0.066,2.134,-0.563,0
0.095,2.189,-1.53,1
0.207,2.055,-0.246,1
0.24,0.608,3.465,1
-0.131,-0.306,5.544,1
-0.211,-1.477,7.759,1
-0.045,-1.92,7.776,1
0.159,-2.048,5.767,1
0.239,-1.904,3.518,1
0.251,-1.577,1.957,1
0.069,-1.286,0.99,1
-0.221,-0.907,-0.561,1
-0.386,-0.787,-1.508,1
-0.593,-0.826,-2.113,1
-0.524,-0.804,-2.003,1
-0.232,-0.592,-1.201,1
-0.157,-0.664,-0.9,1
-0.231,-0.855,-1.064,1
-0.243,-0.994,-1.091,1
-0.107,-1.126,-0.74,1
-0.028,-1.094,-0.484,1
-0.01,-1.081,-0.64,1
-0.202,-1.078,-0.959,0
-0.375,-0.969,-1.3,0
-0.421,-0.848,-1.476,0
-0.547,-0.717,-1.636,0
-0.652,-0.677,-1.725,0
-0.885,-0.734,-1.576,0
-0.956,-0.795,-1.317,0
-0.893,-0.768,-1.066,0
-0.738,-0.656,-1.07,0
-0.428,-0.426,-1.245,0
-0.192,-0.166,-1.512,0
-0.056,0.073,-1.716,0
-0.219,0.073,-1.643,0
-0.348,0.09,-1.526,0
-0.441,0.08,-1.331,0
-0.614,-0.007,-0.838,0
-0.734,-0.09,-0.424,0
-0.807,-0.168,-0.037,0
-0.706,-0.119,0.012,0
-0.379,-0.062,0.049,0
-0.174,-0.013,0.258,0
-0.075,0.069,0.616,0
-0.014,0.131,0.714,0
-0.039,0.301,0.646,0
-0.092,0.378,0.472,0
0.049,0.531,0.09,0
0.104,0.504,0.464,0
-0.052,0.239,1.71,0
-0.051,0.238,2.376,0
-0.15,0.525,2.646,0
-0.239,0.948,2.123,0
-0.013,1.22,0.779,0
0.642,1.48,-0.092,1
0.895,1.517,-0.448,1
0.541,0.833,0.406,1
-0.216,-0.202,2.614,1
-0.801,-0.624,3.882,1
-0.832,-1.102,5.467,1
-0.458,-0.951,5.423,1
0.015,-0.807,4.052,1
0.088,-0.585,2.626,1
0.076,-0.472,1.306,1
-0.116,-0.621,0.882,1
-0.437,-0.945,0.411,1
-0.494,-1.1,-0.123,1
-0.445,-1.218,-0.669,1
-0.359,-1.283,-0.412,1
-0.154,-1.439,0.216,1
0.267,-1.454,0.401,1
0.554,-1.344,0.621,1
0.755,-1.343,0.588,1
0.891,-1.202,0.198,1
0.807,-1.154,-0.149,1
0.512,-1.038,-0.725,0
0.461,-0.895,-1.324,0
0.595,-0.526,-2.288,0
0.625,-0.316,-2.538,0
0.582,-0.073,-2.709,0
0.774,0.052,-3.01,0
0.72,0.153,-2.576,0
0.575,0.224,-2.081,0
0.262,0.213,-1.718,0
0.128,0.226,-1.74,0
0.067,0.255,-1.927,0
-0.062,0.151,-1.385,0
-0.109,0.298,-1.125,0
-0.157,0.284,-1.595,0
-0.15,0.262,-1.589,0
-0.174,0.406,-1.817,0
0.021,0.419,-1.404,0
0.191,0.448,-1.084,0
0.184,0.436,-1.081,0
0.34,0.372,-0.265,0
0.224,0.221,0.789,0
0.179,0.075,1.37,0
0.096,0.048,1.621,0
0.134,0.089,1.583,0
0.172,0.242,1.064,0
0.274,0.395,0.512,0
0.412,0.589,0.315,0
0.468,0.679,0.663,0
0.27,0.486,1.601,0
0.07,0.348,2.054,0
-0.551,0.556,2.105,0
-0.803,0.893,1.457,0
-0.796,1.212,0.23,0
-0.517,1.219,-0.243,0
-0.01,1.374,-0.724,1
0.19,1.233,-0.516,1
0.175,0.474,1.052,1
0.064,-0.068,2.252,1
-0.29,-1.092,4.563,1
-0.501,-1.645,5.835,1
-0.548,-2.195,6.209,1
-0.599,-2.076,4.845,1
-0.636,-1.463,2.151,1
-0.572,-1.002,0.498,1
-0.549,-0.551,-1.646,1
-0.723,-0.308,-3.082,1
-1.091,-0.209,-3.476,1
-0.992,-0.136,-2.825,1
-0.694,0.042,-1.196,1
-0.52,-0.041,-0.37,1
-0.395,-0.25,-0.42,1
-0.493,-0.45,-0.389,1
-0.391,-0.66,-0.183,1
-0.274,-0.718,-0.274,1
-0.193,-0.722,-0.449,1
-0.266,-0.749,-0.641,0
-0.497,-0.739,-1.111,0
-0.69,-0.687,-1.42,0
-0.874,-0.577,-1.673,0
-0.97,-0.52,-1.584,0
-0.877,-0.36,-1.54,0
-0.868,-0.189,-1.412,0
-0.662,0.02,-1.578,0
-0.497,0.221,-1.807,0
-0.488,0.327,-2.095,0
-0.473,0.334,-2.281,0
-0.714,0.314,-2.005,0
-0.675,0.267,-1.789,0
-0.684,0.268,-1.789,0
-0.616,0.201,-0.659,0
-0.783,0.047,0.11,0
-0.905,-0.015,0.503,0
-0.924,0.037,0.505,0
-0.81,0.161,0.341,0
-0.752,0.267,0.441,0
-0.792,0.28,0.59,0
-0.779,0.388,0.642,0
-0.838,0.449,0.575,0
-0.87,0.413,0.353,0
-0.89,0.376,0.528,0
-0.72,0.226,1.329,0
-0.487,0.051,1.768,0
-0.261,0.034,2.242,0
-0.241,0.036,2.294,0
-0.514,0.666,1.578,0
-0.744,1.174,0.658,0
-0.065,1.332,-0.414,0
0.366,1.669,-0.749,0
0.389,1.666,-0.749,1
0.299,0.775,0.937,1
-0.358,-0.274,3.037,1
-0.615,-0.642,3.767,1
-0.498,-1.245,4.808,1
-0.351,-1.505,4.921,1
-0.215,-1.261,4.061,1
-0.207,-1.118,2.913,1
-0.331,-0.919,1.466,1
-0.39,-0.889,0.62,1
-0.398,-0.898,0.007,1
-0.472,-1.031,-0.208,1
-0.512,-1.354,-0.048,1
-0.467,-1.522,0.263,1
-0.29,-1.61,0.494,1
-0.092,-1.499,0.131,1
0.222,-1.287,-0.647,1
0.43,-1.102,-0.873,1
0.657,-0.924,-0.846,1
0.776,-0.69,-1.139,1
0.698,-0.495,-1.488,1
0.515,-0.423,-1.611,0
0.332,-0.186,-2.282,0
0.323,-0.005,-2.766,0
0.155,0.136,-2.925,0
-0.012,0.212,-2.746,0
-0.167,0.219,-2.606,0
-0.138,0.097,-2.693,0
-0.163,0.188,-1.807,0
-0.148,0.187,-0.949,0
-0.361,0.126,-0.638,0
-0.507,0.076,-0.77,0
-0.604,0.078,-1.328,0
-0.551,0.083,-1.674,0
-0.411,0.186,-1.483,0
-0.415,0.201,-1.157,0
-0.597,0.141,-0.985,0
-0.598,0.059,-1.088,0
-0.457,0.145,-0.899,0
-0.257,0.192,-0.569,0
-0.068,0.399,-0.354,0
-0.04,0.537,0.145,0
0.053,0.618,0.883,0
-0.072,0.635,0.89,0
-0.257,0.556,0.82,0
-0.137,0.532,0.81,0
0.273,0.731,0.756,0
0.413,0.679,0.944,0
0.375,0.438,1.074,0
0.235,0.387,1.457,0
-0.381,0.964,1.604,0
-0.694,1.266,0.887,0
-0.671,1.244,0.894,0
-0.661,1.311,-0.38,0
-0.203,1.122,-0.562,1
-0.057,0.713,0.862,1
-0.057,-0.308,3.278,1
-0.259,-0.91,4.409,1
-0.225,-2.05,6.464,1
-0.05,-2.126,6.997,1
-0.04,-1.927,6.021,1
-0.074,-1.553,3.772,1
-0.074,-0.927,1.132,1
-0.041,-0.704,-0.331,1
-0.57,-0.529,-2.192,1
-1.006,-0.751,-2.523,1
-1.285,-0.903,-1.662,1
-1.105,-0.792,-0.813,1
-0.643,-0.82,-0.399,1
-0.408,-0.923,-0.374,1
0.048,-0.93,-0.167,1
0.18,-0.917,0.058,1
0.156,-0.902,0.054,1
-0.264,-1.139,-0.203,1
-0.346,-1.011,-1.019,1
-0.299,-0.851,-1.486,0
-0.279,-0.677,-2.082,0
-0.179,-0.524,-2.557,0
-0.09,-0.326,-3.033,0
-0.025,-0.16,-2.933,0
-0.026,-0.165,-2.932,0
0.066,-0.058,-1.686,0
0.102,0.106,-1.294,0
0.035,0.219,-1.58,0
-0.15,0.263,-2.006,0
-0.319,0.249,-2.159,0
-0.333,0.332,-2.004,0
-0.258,0.355,-1.602,0
-0.225,0.325,-0.838,0
-0.312,0.313,-0.409,0
-0.406,0.165,-0.259,0
-0.363,0.208,-0.065,0
-0.38,0.221,0.698,0
-0.453,0.182,1.268,0
-0.522,0.259,2.034,0
-0.64,0.204,2.148,0
-0.529,0.186,1.604,0
-0.338,0.3,1.054,0
-0.131,0.282,1.149,0
-0.027,0.191,1.312,0
0.119,0.203,1.446,0
0.346,0.28,1.559,0
0.329,0.247,1.567,0
-0.306,1.468,1.112,0
-0.287,1.442,0.37,0
0.195,1.545,0.027,0
0.917,1.526,-0.313,1
1.138,0.889,0.838,1
0.862,-0.304,3.338,1
0.072,-0.754,4.76,1
-0.292,-1.344,5.852,1
-0.292,-1.155,5.356,1
-0.155,-0.839,3.259,1
-0.077,-0.63,1.914,1
-0.154,-0.6,1.108,1
-0.5,-0.808,0.779,1
-0.753,-1.251,0.594,1
-0.763,-1.448,0.267,1
-0.511,-1.575,-0.141,1
-0.188,-1.722,-0.034,1
0.064,-1.695,0.057,1
0.115,-1.644,-0.058,1
0.363,-1.484,-0.456,1
0.433,-1.333,-0.697,1
0.288,-1.152,-0.708,1
0.198,-0.98,-0.893,1
0.189,-0.695,-1.584,1
0.387,-0.349,-2.078,0
0.692,-0.004,-2.349,0
0.765,0.086,-2.599,0
0.734,0.241,-3.042,0
0.608,0.288,-3.045,0
0.293,0.166,-2.405,0
-0.019,0.058,-1.853,0
-0.391,-0.051,-1.822,0
-0.593,0.029,-2.052,0
-0.445,0.189,-2.27,0
-0.24,0.357,-2.361,0
-0.24,0.341,-2.356,0
-0.104,0.488,-2.499,0
0.151,0.596,-2.608,0
0.221,0.503,-2.099,0
0.096,0.299,-1.238,0
-0.132,-0.008,-0.752,0
-0.574,-0.307,0.186,0
-0.661,-0.374,0.672,0
-0.534,-0.138,0.624,0
-0.334,0.064,0.246,0
-0.179,0.506,-0.106,0
-0.148,0.633,-0.01,0
-0.086,0.723,0.368,0
0.125,0.91,0.835,0
0.239,0.868,1.387,0
0.313,0.721,1.669,0
0.456,0.544,2.199,0
0.611,0.302,2.585,0
0.702,0.26,2.801,0
0.523,0.677,2.738,0
0.504,0.638,2.748,1
0.072,1.686,-0.001,1
-0.115,1.672,-0.891,1
-0.256,1.485,-1.101,1
-0.543,0.909,0.081,1
-0.501,0.078,1.839,1
-0.661,-1.216,4.355,1
-0.73,-1.862,5.344,1
-0.234,-2.144,5.847,1
0.118,-1.785,4.732,1
0.361,-0.982,1.914,1
0.525,-0.553,0.286,1
0.346,-0.144,-1.911,1
-0.027,-0.148,-3.531,1
-0.513,-0.177,-3.983,1
-0.752,-0.349,-3.089,1
-0.613,-0.368,-1.079,1
-0.392,-0.503,-0.229,1
-0.098,-0.83,0.225,1
-0.155,-1.176,1.005,1
-0.205,-1.561,1.952,1
-0.294,-1.706,2.533,0
-0.42,-1.676,2.463,0
-0.596,-1.585,1.646,0
-0.622,-1.122,-0.016,0
-0.518,-0.843,-0.826,0
-0.202,-0.353,-2.065,0
-0.047,-0.048,-2.938,0
0.074,0.133,-3.459,0
0.039,0.126,-3.195,0
-0.031,0.077,-2.254,0
-0.081,0.055,-1.798,0
-0.088,0.05,-1.796,0
-0.436,-0.059,-1.309,0
-0.328,0.172,-1.468,0
-0.351,0.264,-1.604,0
-0.358,0.409,-1.62,0
-0.381,0.429,-1.683,0
-0.589,0.395,-1.548,0
-0.634,0.367,-1.307,0
-0.449,0.426,-0.964,0
-0.396,0.351,-0.655,0
-0.341,0.313,-0.069,0
-0.273,0.231,0.562,0
-0.156,0.102,1.596,0
-0.227,0.054,2.032,0
-0.358,-0.073,2.501,0
-0.354,-0.119,2.519,0
-0.186,-0.069,2.19,0
-0.022,0.006,1.837,0
0.27,0.136,1.831,0
0.569,0.352,1.67,0
0.446,0.877,1.059,0
0.196,1.387,0.29,0
0.068,1.43,-0.552,0
0.177,1.27,-0.612,1
0.257,1.073,0.11,1
0.357,0.432,1.409,1
0.196,-0.423,3.283,1
-0.245,-0.594,3.891,1
-0.262,-0.573,3.886,1
-0.296,-0.91,3.427,1
-0.409,-0.784,2.29,1
-0.57,-0.765,1.806,1
-0.811,-0.707,1.47,1
-0.753,-0.691,0.969,1
-0.657,-0.685,0.24,1
-0.652,-0.699,-0.138,1
-0.687,-0.9,-0.171,1
-0.507,-1.095,0.128,1
-0.265,-1.175,0.448,1
-0.138,-1.192,0.355,1
0.026,-1.228,0.001,1
0.151,-1.133,-0.165,1
0.278,-0.949,-0.501,1
0.361,-0.808,-0.845,1
0.398,-0.525,-1.387,0
0.48,-0.352,-1.858,0
0.545,-0.048,-2.344,0
0.528,0.094,-2.566,0
0.196,0.047,-2.437,0
0.046,0.018,-2.148,0
0.02,0.136,-1.888,0
0.023,0.16,-1.654,0
0.126,0.339,-1.639,0
0.153,0.471,-1.778,0
0.048,0.583,-1.968,0
-0.067,0.624,-2.167,0
-0.172,0.691,-2.381,0
-0.248,0.695,-2.301,0
-0.242,0.685,-2.298,0
-0.421,0.501,-1.968,0
-0.428,0.403,-1.513,0
-0.234,0.487,-1.219,0
-0.239,0.482,-1.218,0
-0.457,0.201,0.383,0
-0.665,0.193,0.679,0
-0.648,0.278,0.701,0
-0.431,0.457,0.361,0
-0.364,0.543,0.275,0
-0.269,0.437,0.692,0
-0.259,0.366,1.273,0
-0.131,0.215,1.835,0
-0.148,0.121,1.987,0
0.082,-0.154,2.592,0
0.288,-0.244,2.878,0
0.126,0.126,2.74,0
-0.179,0.869,1.879,0
-0.446,1.358,0.141,0
-0.23,1.558,-1.077,0
-0.213,1.515,-1.063,1
0.471,1.455,-1.988,1
0.438,1.459,-1.99,1
-0.168,-0.298,2.649,1
-0.456,-1.251,4.882,1
-0.234,-1.733,5.925,1
-0.187,-1.238,5.206,1
-0.067,-0.92,3.314,1
-0.195,-0.468,0.965,1
-0.245,-0.27,-0.031,1
-0.417,-0.155,-0.662,1
-0.705,-0.104,-0.935,1
-0.927,-0.412,-0.692,1
-0.868,-0.581,-0.475,1
-0.664,-1.022,0.248,1
-0.48,-1.293,0.687,1
-0.298,-1.439,0.652,1
-0.028,-1.358,0.283,1
0.217,-1.274,-0.524,1
0.432,-1.153,-1.296,1
0.463,-1.045,-1.897,1
0.232,-1.143,-1.996,0
-0.059,-1.201,-2.15,0
-0.189,-1.146,-2.016,0
-0.456,-1.111,-2.055,0
-0.603,-1.012,-2.411,0
-0.538,-0.763,-2.775,0
-0.549,-0.63,-2.722,0
-0.486,-0.339,-2.574,0
-0.349,-0.129,-2.593,0
-0.29,0.059,-2.43,0
-0.217,0.192,-2.051,0
-0.231,0.28,-1.641,0
-0.507,0.266,-1.376,0
-0.757,0.172,-0.966,0
-0.737,0.172,-0.652,0
-0.709,0.243,-0.521,0
-0.601,0.292,-0.636,0
-0.282,0.394,-0.683,0
-0.046,0.42,-0.23,0
-0.019,0.285,0.831,0
-0.134,0.208,1.231,0
-0.323,0.252,1.756,0
-0.339,0.242,2.281,0
-0.389,0.191,2.678,0
-0.299,0.195,2.4,0
-0.048,0.336,1.967,0
0.126,0.404,1.804,0
0.481,0.554,1.517,0
0.546,0.942,1.159,0
0.146,1.588,0.374,0
0.032,1.666,-0.005,0
-0.022,1.47,0.164,1
-0.086,1.258,0.779,1
-0.156,0.671,2.095,1
-0.363,0.171,3.009,1
-0.826,-0.204,3.877,1
-0.874,-0.225,3.903,1
-0.337,-0.289,3.495,1
-0.031,-0.201,3.096,1
0.046,-0.148,2.476,1
-0.115,-0.218,1.988,1
-0.257,-0.33,1.185,1
-0.3,-0.444,0.653,1
-0.33,-0.587,0.389,1
-0.472,-0.792,0.306,1
-0.551,-1.071,0.148,1
-0.308,-1.11,0.088,1
-0.069,-1.176,0.092,1
0.082,-1.137,-0.092,1
0.27,-1.028,-0.307,1
0.314,-0.963,-0.459,1
0.316,-0.844,-0.751,1
0.168,-0.763,-0.956,0
0.023,-0.66,-1.403,0
-0.008,-0.541,-1.81,0
0.039,-0.274,-2.361,0
0.143,-0.109,-2.596,0
0.328,0.051,-2.704,0
0.41,0.187,-2.513,0
0.413,0.346,-2.276,0
0.452,0.391,-2.03,0
0.314,0.432,-1.872,0
0.163,0.415,-1.995,0
0.108,0.43,-2.282,0
0.11,0.437,-2.326,0
0.138,0.453,-2.178,0
0.24,0.476,-2.132,0
0.23,0.466,-2.13,0
0.335,0.186,-1.268,0
0.314,0.178,-1.267,0
0.262,0.065,-0.313,0
0.331,0.022,0.631,0
0.355,0.134,1.104,0
0.044,0.21,1.011,0
-0.195,0.23,0.54,0
-0.407,0.443,-0.251,0
-0.379,0.604,-0.243,0
-0.12,0.676,0.007,0
0.064,0.686,0.36,0
0.099,0.488,1.381,0
0.249,0.269,2.208,0
0.42,0.187,2.719,0
0.217,0.354,2.729,0
0.207,0.314,2.74,0
-0.706,1.492,0.474,0
-0.611,1.669,-0.652,0
-0.484,1.647,-1.166,1
-0.423,1.275,-0.355,1
-0.617,0.583,1.531,1
-1.097,-0.588,3.982,1
-1.182,-1.291,5.256,1
-1.215,-2.241,6.557,1
-1.229,-2.255,5.78,1
-0.851,-1.685,2.735,1
-0.476,-1.17,1.349,1
-0.345,-0.746,-0.161,1
-0.423,-0.448,-1.16,1
-0.971,-0.496,-1.69,1
-1.192,-0.488,-1.227,1
-0.868,-0.432,-0.348,1
-0.406,-0.392,-0.066,1
0.238,-0.567,0.237,1
0.375,-0.729,0.301,1
0.53,-1,0.361,1
0.399,-1.133,0.489,1
0.265,-1.339,0.292,1
0.175,-1.353,-0.191,1
0.084,-1.246,-1.271,0
0.135,-1.116,-1.939,0
0.331,-0.795,-2.956,0
0.511,-0.512,-3.426,0
0.513,-0.249,-3.725,0
0.393,-0.126,-3.632,0
0.175,0,-3.012,0
0.065,0.12,-2.738,0
-0.191,0.186,-2.544,0
-0.291,0.189,-2.416,0
-0.211,0.338,-2,0
-0.037,0.458,-1.744,0
0.062,0.552,-1.29,0
0.033,0.545,-1.058,0
-0.08,0.409,-0.653,0
-0.17,0.427,-0.123,0
-0.117,0.433,0.503,0
-0.076,0.467,0.842,0
-0.266,0.402,1.171,0
-0.381,0.32,1.351,0
-0.495,0.322,1.522,0
-0.42,0.39,1.473,0
-0.335,0.549,1.035,0
-0.318,0.547,0.793,0
-0.301,0.493,0.822,0
-0.276,0.276,0.98,0
-0.234,0.199,1.848,0
-0.218,0.28,2.163,0
-0.645,0.795,1.58,0
-0.817,1.277,0.632,0
-0.316,1.664,-0.597,0
-0.048,1.678,-0.988,1
-0.073,1.308,-0.642,1
-0.214,0.619,0.737,1
-0.577,-0.498,3.16,1
-1.104,-0.836,4.245,1
-1.138,-1.273,5.104,1
-0.817,-1.2,4.901,1
-0.337,-0.879,3.77,1
-0.229,-0.561,2.953,1
-0.212,-0.24,1.69,1
-0.17,-0.192,1.26,1
-0.262,-0.331,0.603,1
-0.481,-0.611,0.06,1
-0.706,-1.044,-0.594,1
-0.618,-1.309,-0.876,1
-0.368,-1.566,-0.541,1
0.079,-1.561,-0.052,1
0.618,-1.282,0.727,1
0.734,-1.163,0.898,1
0.427,-1.097,0.282,1
0.216,-1.077,-0.056,1
0.022,-0.887,-0.647,0
0.006,-0.658,-1.134,0
-0.005,-0.298,-2.121,0
0.034,-0.149,-2.684,0
0.056,-0.006,-3.639,0
0.113,0.19,-3.981,0
0.302,0.428,-3.593,0
0.337,0.455,-3.177,0
0.222,0.431,-2.444,0
0.052,0.348,-1.8,0
-0.161,0.258,-1.189,0
-0.207,0.258,-1.125,0
-0.11,0.359,-1.232,0
0.018,0.436,-1.316,0
0.142,0.509,-1.438,0
0.24,0.573,-1.435,0
0.335,0.543,-1.002,0
0.358,0.497,-0.701,0
0.378,0.311,-0.244,0
0.327,0.152,0.337,0
0.143,0.023,1.174,0
0.066,0.044,1.23,0
0.004,0.18,0.974,0
0.052,0.308,0.762,0
0.151,0.581,0.639,0
0.3,0.603,0.453,0
0.399,0.375,0.571,0
0.296,0.142,1.33,0
0.264,-0.192,1.998,0
0.261,-0.198,2.209,0
-0.051,-0.162,2.55,0
-0.503,0.263,2.239,0
-0.802,1.046,0.169,1
-0.736,1.043,-0.495,1
-0.224,1.282,-1.288,1
0.235,1.193,-1.411,1
0.344,0.628,0.574,1
0.407,0.115,1.88,1
0.438,-0.601,3.35,1
0.484,-0.917,4.248,1
0.426,-1.023,4.933,1
0.308,-0.764,3.982,1
0.074,-0.376,1.143,1
-0.145,-0.193,0.163,1
-0.442,-0.164,-0.865,1
-0.738,-0.038,-1.164,1
-0.968,-0.292,-1.112,1
-0.936,-0.324,-1.188,1
-0.658,-0.65,-0.607,1
-0.453,-0.873,-0.073,1
-0.298,-1.145,0.792,1
-0.211,-1.186,1.048,1
-0.208,-1.219,0.761,1
-0.175,-1.169,0.251,0
-0.116,-0.992,-0.696,0
-0.125,-0.899,-1.125,0
-0.137,-0.691,-1.705,0
-0.192,-0.559,-2.111,0
-0.174,-0.294,-2.855,0
-0.144,-0.159,-3.257,0
-0.198,-0.027,-2.981,0
-0.249,0.022,-2.682,0
-0.366,0.044,-1.936,0
-0.383,-0.014,-1.46,0
-0.622,-0.052,-0.937,0
-0.691,-0.093,-0.861,0
-0.75,-0.051,-0.91,0
-0.693,0.015,-0.824,0
-0.447,0.208,-0.884,0
-0.329,0.322,-0.894,0
-0.229,0.444,-0.557,0
-0.157,0.425,-0.36,0
-0.012,0.354,0.201,0
0.053,0.28,0.677,0
0.039,0.21,0.977,0
-0.018,0.223,1.279,0
-0.074,0.134,1.431,0
-0.151,0.058,1.239,0
-0.072,0.171,1.017,0
0.042,0.228,0.995,0
0.586,0.478,0.924,0
0.908,0.618,1.09,0
0.723,0.641,1.392,0
0.182,0.752,1.299,0
0.181,0.716,1.309,0
-0.545,0.922,0.12,0
-0.443,0.834,0.156,1
-0.261,0.784,0.5,1
0.175,0.355,1.518,1
0.177,0.369,1.514,1
-0.213,-0.565,3.165,1
-0.252,-0.693,3.279,1
0.128,-0.755,3.338,1
0.202,-0.698,3.406,1
-0.051,-0.651,3.202,1
-0.192,-0.575,2.527,1
-0.428,-0.6,1.216,1
-0.374,-0.635,0.725,1
-0.33,-0.747,0.701,1
-0.378,-0.816,0.625,1
-0.172,-0.863,0.161,1
-0.058,-0.895,-0.049,1
0.071,-0.913,-0.369,1
0.111,-0.881,-0.654,1
0.149,-0.823,-1.111,1
0.129,-0.748,-1.295,1
0.209,-0.512,-1.769,1
0.265,-0.38,-1.982,0
0.273,-0.311,-2.107,0
0.197,-0.252,-1.979,0
0.227,-0.14,-1.756,0
0.308,-0.104,-1.726,0
0.091,-0.169,-1.786,0
0.018,-0.138,-1.947,0
-0.051,0.082,-2.195,0
0.016,0.224,-2.49,0
-0.015,0.351,-2.815,0
-0.017,0.427,-2.766,0
-0.015,0.457,-2.279,0
0.098,0.466,-2.071,0
0.088,0.466,-2.071,0
0.189,0.478,-1.358,0
0.171,0.475,-1.357,0
0.153,0.198,-0.442,0
-0.013,0.01,-0.145,0
0.044,-0.031,-0.065,0
0.274,0.052,0.095,0
0.376,0.2,0.302,0
0.29,0.311,0.337,0
0.261,0.324,0.272,0
0.252,0.506,0.577,0
0.264,0.477,1.015,0
0.323,0.325,1.897,0
0.332,0.279,2.541,0
0.404,0.297,2.788,0
0.321,0.274,3.076,0
0.01,0.236,2.711,0
-0.365,0.533,2.02,0
-0.63,1.214,0.469,0
-0.393,1.426,-0.587,1
0.029,1.815,-1.479,1
0.326,1.791,-1.249,1
0.144,1.084,1.662,1
0.013,0.314,2.949,1
-0.323,-0.786,4.844,1
-0.492,-1.458,5.89,1
-0.616,-2.094,6.842,1
-0.357,-1.805,6.461,1
-0.022,-0.927,3.386,1
-0.056,-0.45,1.42,1
-0.353,-0.012,-1.393,1
-0.594,0.182,-2.873,1
-1.103,0.31,-3.395,1
-1.223,0.158,-2.902,1
-1.145,-0.028,-1.583,1
-0.952,-0.302,-0.904,1
-0.676,-0.694,-0.279,1
-0.581,-0.816,-0.045,1
-0.384,-1.158,0.18,1
-0.237,-1.068,-0.05,1
-0.074,-0.939,-0.554,0
-0.106,-0.903,-0.852,0
-0.286,-0.838,-1.349,0
-0.314,-0.749,-1.836,0
-0.334,-0.492,-2.506,0
-0.33,-0.354,-2.791,0
-0.368,-0.184,-3.27,0
-0.407,-0.097,-3.038,0
-0.236,0.172,-2.398,0
-0.257,0.321,-2.318,0
-0.16,0.426,-2.462,0
-0.23,0.355,-1.829,0
-0.433,0.291,-0.964,0
-0.557,0.261,-0.812,0
-0.704,0.218,-0.728,0
-0.742,0.18,-0.716,0
-0.773,0.171,-0.671,0
-0.691,0.2,-0.538,0
-0.458,0.283,-0.309,0
-0.376,0.281,-0.095,0
-0.502,0.108,0.689,0
-0.623,0.018,1.121,0
-1.003,-0.16,1.997,0
-1.243,-0.294,2.236,0
-1.258,-0.25,2.513,0
-1.118,-0.161,2.316,0
-0.854,0.032,1.383,0
-0.719,0.041,0.783,0
-0.602,0.052,0.52,0
-0.567,0.222,0.537,0
-0.856,1.077,0.54,0
-0.672,1.524,0.088,0
-0.349,1.942,-0.651,1
-0.252,1.978,-0.688,1
-0.096,1.592,0.114,1
-0.018,1.148,1.33,1
-0.079,0.374,3.19,1
-0.015,0.112,3.579,1
0.176,-0.42,4.379,1
0.075,-0.713,4.542,1
-0.445,-1.032,4.005,1
-0.794,-1.142,3.306,1
-1.048,-1.151,2.193,1
-1.283,-1.201,1.515,1
-1.675,-1.377,0.413,1
-1.717,-1.392,-0.19,1
-1.399,-1.289,-1.196,1
-0.873,-1.092,-1.47,1
-0.112,-0.937,-1.128,1
0.044,-0.947,-0.883,1
0.069,-1.128,-0.841,1
0.12,-1.169,-0.901,1
0.022,-1.218,-0.885,1
-0.043,-1.278,-0.761,0
0.017,-1.097,-0.681,0
0.183,-0.855,-1.103,0
0.439,-0.325,-2.08,0
0.608,-0.061,-2.547,0
0.81,0.251,-2.891,0
0.971,0.394,-3.006,0
0.884,0.447,-2.762,0
0.738,0.287,-2.241,0
0.464,-0.033,-1.17,0
0.301,-0.092,-0.606,0
0.062,-0.22,-0.545,0
-0.061,-0.16,-1.044,0
-0.042,0.035,-1.819,0
0.044,0.212,-2.114,0
0.18,0.43,-2.095,0
0.224,0.486,-2.111,0
0.229,0.556,-2.082,0
0.264,0.507,-1.867,0
0.387,0.394,-1.004,0
0.214,0.362,-0.293,0
-0.185,0.1,0.381,0
-0.267,0.116,0.561,0
-0.185,0.383,0.654,0
-0.156,0.46,0.681,0
-0.041,0.661,0.727,0
0.115,0.731,0.83,0
0.43,0.755,1.454,0
0.336,0.746,1.766,0
0.559,0.393,2.224,0
0.652,0.315,2.503,0
0.477,0.431,3.088,0
0.167,0.776,3.114,1
-0.047,1.347,1.532,1
-0.261,1.687,0.698,1
-0.471,1.656,0.888,1
-0.649,1.358,1.294,1
-0.652,0.592,3.242,1
-0.503,-0.008,4.165,1
-0.628,-1.022,5.394,1
-0.627,-1.478,5.903,1
-0.691,-1.775,5.655,1
-0.66,-1.508,4.12,1
-0.7,-0.826,0.978,1
-0.595,-0.62,-0.519,1
-0.749,-0.283,-2.404,1
-0.907,-0.219,-3.015,1
-1.281,-0.381,-2.367,1
-1.249,-0.562,-1.401,1
-1.024,-0.831,-0.621,1
-0.912,-1.041,-0.505,1
-0.701,-1.261,-0.382,1
-0.544,-1.313,-0.293,1
-0.114,-1.189,-0.385,0
0.083,-1.026,-0.5,0
0.088,-0.919,-1.135,0
-0.053,-0.862,-1.604,0
-0.04,-0.725,-2.252,0
0.006,-0.584,-2.533,0
0.004,-0.33,-2.636,0
0.004,-0.235,-2.713,0
0.024,-0.132,-2.421,0
-0.027,-0.115,-2.062,0
-0.031,-0.115,-2.062,0
-0.36,0.074,-2.224,0
-0.189,0.242,-2.245,0
-0.274,0.281,-1.624,0
-0.476,0.237,-1.15,0
-0.526,0.333,-1.346,0
-0.442,0.46,-1.676,0
-0.468,0.453,-1.36,0
-0.64,0.288,-0.328,0
-0.831,0.231,0.116,0
-0.823,0.022,0.338,0
-0.632,0.062,0.812,0
-0.619,-0.058,1.818,0
-0.62,-0.054,1.968,0
-0.66,0.126,2.058,0
-0.62,0.246,1.924,0
-0.414,0.561,1.388,0
-0.248,0.604,1.273,0
0.092,0.723,1.133,0
0.465,0.757,0.991,0
0.82,0.758,0.951,0
0.764,0.771,0.995,0
0.013,0.964,1.042,0
-0.331,1.055,0.714,0
-0.585,1.16,0.097,1
-0.493,1.173,-0.104,1
-0.248,1.037,0.523,1
-0.208,0.747,1.453,1
-0.606,0.151,2.816,1
-0.819,-0.059,3.105,1
-0.828,-0.409,3.422,1
-0.678,-0.457,3.388,1
-0.499,-0.531,3.167,1
-0.479,-0.51,3.161,1
-0.169,-0.411,1.884,1
-0.094,-0.44,1.158,1
0.027,-0.478,0.095,1
0.185,-0.373,-0.243,1
0.315,-0.292,-0.591,1
0.342,-0.33,-0.727,1
0.359,-0.527,-0.619,1
0.556,-0.477,-0.764,1
0.796,-0.513,-1.136,1
0.814,-0.633,-1.228,1
0.835,-0.745,-1.303,1
0.828,-0.692,-1.33,0
0.301,-0.88,-1.623,0
0.134,-0.971,-1.915,0
0.065,-0.791,-2.012,0
0.272,-0.539,-2.087,0
0.679,-0.105,-2.21,0
0.831,0.117,-2.519,0
0.769,0.289,-3.117,0
0.599,0.292,-3.138,0
0.334,0.142,-2.476,0
0.138,0.007,-1.95,0
0.059,-0.065,-1.458,0
0.293,0.009,-1.181,0
0.514,0.136,-0.548,0
0.459,0.137,-0.132,0
0.442,0.167,-0.165,0
0.459,0.311,-0.535,0
0.516,0.451,-0.608,0
0.554,0.425,-0.603,0
0.599,0.465,-0.68,0
0.521,0.383,-0.381,0
0.348,0.313,0.229,0
0.262,0.276,0.435,0
0.188,0.366,1.144,0
0.202,0.402,1.446,0
0.143,0.436,1.414,0
0.066,0.402,1.296,0
0.098,0.532,1.312,0
0.11,0.483,1.529,0
0.179,0.382,2.003,0
0.246,0.437,2.359,0
0.008,0.845,2.296,0
-0.107,1.127,1.39,0
-0.021,1.506,-0.12,1
-0.025,1.461,-0.107,1
0.128,1.504,-0.956,1
0.079,1.168,-0.104,1
0.078,0.156,2.772,1
-0.125,-0.313,3.985,1
-0.329,-1.129,5.364,1
-0.364,-1.656,6.245,1
-0.305,-1.609,5.278,1
-0.325,-1.309,3.872,1
-0.058,-0.668,0.942,1
0.062,-0.324,-0.246,1
0.08,-0.33,-0.244,1
-0.133,0.047,-2.673,1
-0.658,-0.097,-2.949,1
-0.741,-0.233,-2.584,1
-0.406,-0.256,-1.466,1
-0.212,-0.419,-0.818,1
-0.066,-0.644,-0.277,1
-0.102,-0.814,0.006,1
-0.036,-1.102,0.262,1
-0.032,-1.101,0.379,0
-0.203,-1.142,0.032,0
-0.306,-1.043,-0.52,0
-0.371,-0.819,-1.684,0
-0.233,-0.589,-2.289,0
-0.066,-0.335,-2.919,0
0.036,-0.175,-3.188,0
0.056,-0.069,-3.061,0
0.014,-0.056,-2.77,0
-0.064,0.04,-2.376,0
-0.052,0.08,-2.31,0
-0.143,0.095,-2.172,0
-0.373,0.07,-2,0
-0.39,0.149,-1.565,0
-0.333,0.203,-1.301,0
-0.304,0.319,-1.075,0
-0.36,0.297,-1.143,0
-0.427,0.41,-1.108,0
-0.394,0.456,-0.834,0
-0.284,0.477,-0.099,0
-0.311,0.466,0.166,0
-0.424,0.417,0.457,0
-0.421,0.354,0.739,0
-0.492,0.205,1.501,0
-0.515,0.086,1.956,0
-0.42,0.138,2.073,0
-0.193,0.284,1.593,0
0.154,0.587,1.094,0
0.404,0.663,1.177,0
0.419,0.902,1.726,0
0.096,1.177,1.772,0
-0.253,1.602,1.177,0
-0.156,1.735,0.413,0
0.034,1.8,-0.112,1
0.235,1.643,0.333,1
0.382,1.07,2.131,1
0.106,0.604,3.28,1
-0.209,0.142,4.04,1
-0.182,-0.062,4.131,1
0.016,-0.49,4.594,1
0.039,-0.703,4.892,1
-0.005,-0.831,4.779,1
0.102,-0.798,3.993,1
0.16,-0.621,1.73,1
0.155,-0.598,0.497,1
0.068,-0.641,-0.252,1
0.057,-0.708,-0.502,1
-0.011,-0.818,-0.652,1
0.072,-0.96,-0.566,1
0.282,-1,-0.561,1
0.371,-1.026,-0.533,1
0.401,-1.091,-0.731,1
0.351,-1.108,-0.99,1
0.29,-1.083,-1.537,1
0.299,-1.012,-1.806,0
0.321,-0.753,-2.463,0
0.371,-0.579,-2.84,0
0.433,-0.299,-3.166,0
0.392,-0.215,-3.074,0
0.245,-0.187,-2.293,0
0.206,-0.132,-1.996,0
0.095,0.023,-2.141,0
0.055,0.094,-2.355,0
0.065,0.26,-2.377,0
0.117,0.335,-2.294,0
0.136,0.456,-2.264,0
0.179,0.49,-2.249,0
0.299,0.522,-2.153,0
0.403,0.489,-1.962,0
0.468,0.374,-1.478,0
0.391,0.263,-0.847,0
0.214,-0.011,0.497,0
0.192,-0.173,0.979,0
0.202,-0.187,1.198,0
0.345,-0.05,1.087,0
0.525,0.156,0.632,0
0.586,0.285,0.406,0
0.39,0.453,0.563,0
0.384,0.492,0.494,0
0.417,0.614,0.557,0
0.451,0.576,0.978,0
0.488,0.509,1.582,0
0.531,0.409,1.967,0
0.67,0.408,2.224,0
0.35,0.672,2.105,0
0.354,0.623,2.121,0
-0.625,1.47,0.393,0
-0.595,1.517,-0.386,1
-0.537,1.422,-0.819,1
-0.43,1.002,-0.239,1
-0.229,0.581,1.189,1
0.107,-0.47,3.591,1
0.197,-1.025,4.892,1
0.313,-1.655,6.6,1
0.085,-1.655,6.441,1
-0.035,-1.211,3.421,1
-0.067,-0.754,1.215,1
0.037,-0.295,-0.723,1
-0.009,-0.184,-1.461,1
-0.302,0.032,-1.67,1
-0.252,-0.041,-1.244,1
0.047,-0.103,-0.655,1
0.344,-0.306,-0.458,1
0.467,-0.68,-0.192,1
0.394,-0.917,0.037,1
0.283,-1.21,0.033,1
0.177,-1.288,-0.294,1
0.191,-1.241,-1.073,1
0.245,-1.114,-1.469,0
0.153,-1.014,-2.192,0
0.04,-0.887,-2.752,0
0.038,-0.555,-3.479,0
0.022,-0.359,-3.599,0
-0.156,-0.236,-3.185,0
-0.239,-0.23,-2.715,0
-0.48,-0.243,-1.902,0
-0.543,-0.239,-1.603,0
-0.565,-0.073,-1.693,0
-0.461,0.003,-1.857,0
-0.451,0.108,-1.669,0
-0.454,0.125,-1.344,0
-0.418,0.163,-0.981,0
-0.448,0.238,-0.877,0
-0.528,0.223,-0.893,0
-0.582,0.266,-0.826,0
-0.619,0.245,-0.237,0
-0.78,0.241,0.015,0
-0.725,0.278,-0.052,0
-0.754,0.363,-0.004,0
-0.54,0.413,0.397,0
-0.529,0.369,0.733,0
-0.422,0.387,1.331,0
-0.333,0.467,1.679,0
-0.024,0.373,2.194,0
0.221,0.41,2.54,0
0.623,0.657,2.573,0
0.65,0.806,2.219,0
0.651,0.784,2.225,0
0.106,1.437,0.383,0
0.385,1.285,-0.463,1
0.408,1.287,-0.292,1
0.391,0.886,1.233,1
0.091,0.527,2.353,1
-0.619,0.178,2.945,1
-0.782,-0.214,3.193,1
-0.404,-0.735,3.874,1
-0.109,-0.999,4.466,1
-0.016,-1.305,5.33,1
-0.117,-1.303,5.12,1
-0.183,-1.167,3.63,1
-0.07,-1.048,2.289,1
0.176,-0.513,0.318,1
0.406,-0.376,-0.346,1
0.577,-0.122,-1.242,1
0.508,-0.229,-1.509,1
0.364,-0.494,-0.874,1
0.495,-0.538,-0.529,1
0.933,-0.419,-0.834,1
1.089,-0.369,-1.274,1
1.12,-0.34,-1.754,1
1.022,-0.296,-1.811,0
0.96,-0.222,-2.067,0
0.794,-0.159,-2.218,0
0.535,-0.08,-2.259,0
0.331,-0.099,-2.21,0
0.073,-0.035,-2.198,0
0.069,0.072,-2.276,0
0.059,0.23,-2.451,0
0.013,0.327,-2.54,0
-0.095,0.379,-2.738,0
0.003,0.44,-2.79,0
-0.047,0.435,-2.572,0
-0.086,0.417,-2.336,0
-0.084,0.415,-2.336,0
-0.222,0.1,-1.229,0
-0.233,0.098,-1.229,0
0.006,0.224,-0.307,0
0.17,0.362,-0.272,0
0.152,0.417,-0.452,0
0.189,0.524,-0.807,0
0.362,0.624,-0.885,0
0.436,0.829,-0.528,0
0.338,0.768,-0.362,0
-0.112,0.688,0.002,0
-0.342,0.63,0.316,0
-0.288,0.76,0.672,0
-0.181,0.916,0.877,0
-0.048,1.102,1.032,0
0.087,1.152,1.073,0
-0.076,1.504,1.476,0
-0.354,1.813,1.542,0
-0.601,1.876,1.336,0
-0.553,1.765,1.242,0
-0.703,1.602,2.279,1
-0.74,1.281,3.256,1
-0.621,0.379,4.997,1
-0.277,-0.221,6.338,1
0.666,-1.186,7.693,1
1.133,-1.511,7.539,1
1.621,-1.741,6.073,1
1.427,-1.751,4.709,1
0.79,-1.658,2.279,1
0.374,-1.51,0.754,1
0.051,-1.108,-2.388,1
-0.133,-0.771,-3.793,1
-0.502,-0.652,-3.987,1
-0.598,-0.447,-3.311,1
-0.312,-0.161,-1.679,1
-0.223,-0.222,-1.038,1
-0.159,-0.271,-1.13,1
-0.236,-0.39,-1.238,1
-0.159,-0.555,-1.393,1
-0.035,-0.559,-1.432,1
0.051,-0.582,-1.773,1
0.022,-0.564,-2.096,0
-0.12,-0.485,-2.588,0
-0.1,-0.338,-2.74,0
-0.164,-0.167,-2.7,0
-0.262,-0.095,-2.529,0
-0.172,0.099,-2.219,0
-0.125,0.191,-2.008,0
-0.147,0.193,-2.009,0
-0.248,0.186,-1.58,0
-0.074,0.237,-1.209,0
-0.044,0.275,-0.881,0
-0.129,0.26,-0.59,0
-0.141,0.24,-0.639,0
-0.182,0.268,-0.257,0
-0.231,0.26,-0.011,0
-0.481,0.223,0.005,0
-0.493,0.235,0.014,0
-0.531,0.337,0.313,0
-0.534,0.357,0.205,0
-0.417,0.376,-0.486,0
-0.184,0.45,-0.594,0
-0.043,0.651,0.33,0
-0.142,0.464,0.814,0
-0.363,0.296,1.225,0
-0.368,0.238,1.535,0
-0.388,-0.061,2.279,0
-0.29,-0.168,2.473,0
-0.069,-0.062,2.2,0
0.184,0.088,1.871,0
0.036,1.238,0.906,0
0.113,1.619,-0.115,0
0.71,1.787,-1.039,1
1.063,1.927,-0.905,1
1.044,1.916,-0.902,1
0.84,0.488,2.405,1
-0.06,-0.459,4.071,1
-0.188,-0.965,4.949,1
-0.009,-1.631,5.936,1
0.088,-1.621,5.797,1
0.018,-1.518,4.748,1
0.006,-1.301,3.601,1
0.004,-0.975,1.788,1
0.006,-0.91,0.81,1
-0.016,-0.854,-0.429,1
0.025,-0.843,-0.877,1
0.185,-1.01,-1.148,1
0.181,-1.203,-0.732,1
0.13,-1.507,0.146,1
0.185,-1.513,0.022,1
0.447,-1.389,-0.751,1
0.624,-1.206,-1.196,1
0.669,-1.019,-1.663,1
0.615,-0.963,-2.001,0
0.572,-0.652,-2.63,0
0.66,-0.431,-2.947,0
0.745,-0.04,-3.384,0
0.789,0.123,-3.478,0
0.688,0.298,-3.175,0
0.603,0.297,-3.017,0
0.385,0.238,-2.366,0
0.146,0.07,-1.81,0
0.055,0.04,-1.735,0
0.114,0.09,-1.714,0
0.262,0.196,-1.278,0
0.317,0.247,-1.18,0
0.206,0.258,-1.02,0
0.126,0.285,-0.912,0
0.06,0.336,-0.977,0
0.062,0.372,-1.248,0
-0.009,0.412,-1.413,0
0.006,0.383,-1.266,0
0.008,0.373,-1.264,0
-0.193,0.169,-0.076,0
-0.468,0.168,0.48,0
-0.482,0.164,0.66,0
-0.309,0.376,0.723,0
0.025,0.599,0.856,0
0.032,0.572,0.864,0
0.137,0.611,1.38,0
0.639,0.85,1.426,0
0.79,0.902,1.17,0
0.773,1.143,0.69,0
0.429,1.337,0.677,0
-0.346,1.406,0.334,0
-0.366,1.506,-0.146,0
-0.358,1.486,-0.14,1
-0.109,1.425,0.014,1
-0.208,0.96,1.854,1
-0.191,0.405,2.84,1
-0.354,-0.638,4.838,1
-0.396,-1.361,6.051,1
-0.387,-2.031,6.851,1
-0.27,-2.116,6.272,1
-0.195,-1.679,3.861,1
-0.201,-1.121,1.508,1
-0.125,-0.684,-0.758,1
-0.143,-0.419,-1.89,1
-0.378,-0.113,-2.554,1
-0.398,-0.044,-2.107,1
-0.243,0.146,-1.177,1
-0.153,0.097,-0.856,1
-0.011,-0.232,-0.582,1
0.068,-0.335,-0.369,1
0.152,-0.544,-0.206,1
0.149,-0.623,-0.335,1
0.14,-0.607,-0.339,1
0.02,-0.577,-1.08,0
-0.234,-0.585,-1.705,0
-0.257,-0.516,-2.069,0
-0.231,-0.337,-2.477,0
-0.321,-0.229,-2.385,0
-0.425,-0.114,-2.341,0
-0.434,0.003,-2.083,0
-0.39,0.132,-1.796,0
-0.434,0.206,-1.656,0
-0.454,0.222,-1.556,0
-0.437,0.289,-1.394,0
-0.357,0.335,-1.11,0
-0.374,0.378,-1.025,0
-0.475,0.242,-0.703,0
-0.533,0.135,-0.511,0
-0.461,0.153,-0.526,0
-0.221,0.263,-0.637,0
-0.082,0.34,-0.518,0
-0.145,0.316,-0.498,0
-0.024,0.295,-0.619,0
-0.235,0.16,-0.054,0
-0.495,0.059,0.722,0
-0.535,0.026,0.69,0
-0.849,-0.138,1.292,0
-1.004,-0.163,1.471,0
-0.591,0.192,0.958,0
-0.093,0.509,0.57,0
0.389,0.903,0.513,0
0.452,1.198,0.584,0
-0.112,1.788,0.695,0
-0.134,1.908,0.494,0
0.186,1.645,0.698,0
0.263,1.355,1.491,0
0.247,1.371,1.487,1
-0.277,0.137,3.106,1
-0.551,-0.325,3.554,1
-0.454,-0.623,3.756,1
-0.154,-1.062,4.366,1
-0.067,-1.257,4.714,1
-0.126,-1.376,4.788,1
-0.232,-1.222,4.049,1
-0.105,-0.715,2.216,1
0.097,-0.35,0.57,1
0.423,-0.099,-0.5,1
0.734,-0.049,-0.646,1
1.001,0.111,-0.569,1
1.023,0.025,-0.29,1
0.976,-0.285,0.095,1
0.989,-0.331,-0.106,1
1.123,-0.275,-0.681,1
1.225,-0.291,-1.081,1
1.202,-0.306,-1.275,1
1.101,-0.395,-1.386,1
0.871,-0.473,-1.576,1
0.787,-0.536,-1.721,0
0.493,-0.595,-1.807,0
0.301,-0.697,-1.847,0
0.072,-0.639,-2,0
-0.027,-0.595,-2.104,0
-0.112,-0.478,-2.358,0
-0.134,-0.404,-2.568,0
-0.107,-0.265,-2.669,0
-0.074,-0.19,-2.562,0
-0.022,-0.138,-2.275,0
-0.049,-0.12,-2.108,0
-0.135,-0.144,-1.987,0
-0.233,-0.155,-1.897,0
-0.421,-0.213,-1.92,0
-0.527,-0.114,-2.02,0
-0.514,-0.106,-2.04,0
-0.507,-0.007,-1.713,0
-0.245,0.107,-1.339,0
0.068,0.183,-1.152,0
0.27,0.258,-0.541,0
0.24,0.355,-0.05,0
0.28,0.537,0.356,0
0.11,0.598,0.664,0
-0.193,0.598,0.706,0
-0.202,0.735,0.696,0
0.133,0.99,1.205,0
0.318,1.066,1.71,0
0.436,1.05,2.049,0
0.472,1.02,2.346,0
0.233,1.123,2.395,0
-0.184,1.457,1.942,0
-0.542,1.628,0.779,0
-0.519,1.51,0.54,0
-0.492,1.436,0.279,1
-0.474,1.229,0.471,1
-0.361,0.749,2.137,1
-0.163,0.132,3.365,1
-0.026,-0.594,4.695,1
0.156,-1.158,5.511,1
0.29,-1.62,5.413,1
0.198,-1.457,4.039,1
0.269,-0.819,1.26,1
0.226,-0.447,-0.329,1
-0.006,-0.202,-1.993,1
-0.471,-0.335,-2.738,1
-0.877,-0.605,-2.281,1
-1.018,-0.686,-1.19,1
-0.767,-0.861,0.066,1
-0.538,-0.838,0.218,1
-0.193,-0.921,0.286,1
0.081,-0.9,0.165,1
0.265,-0.819,-0.036,1
0.207,-0.879,-0.243,1
0.137,-0.857,-0.648,1
0.121,-0.701,-1.263,0
0.081,-0.449,-2.13,0
0.029,-0.261,-2.662,0
-0.037,-0.151,-3.119,0
-0.165,-0.114,-2.826,0
-0.288,-0.136,-2.205,0
-0.276,-0.112,-1.975,0
-0.289,-0.11,-1.975,0
-0.214,0.091,-1.596,0
-0.098,0.309,-1.516,0
-0.178,0.325,-1.328,0
-0.402,0.263,-0.866,0
-0.451,0.262,-0.624,0
-0.355,0.29,-0.265,0
-0.194,0.374,-0.198,0
-0.1,0.41,-0.14,0
-0.151,0.303,0.049,0
-0.152,0.189,0.214,0
-0.153,0.179,0.216,0
0.137,0.167,0.408,0
0.059,0.115,0.699,0
-0.307,0.101,1.089,0
-0.488,0.179,1.236,0
-0.376,0.32,0.829,0
-0.292,0.526,0.543,0
-0.109,0.578,0.363,0
0.101,0.559,0.393,0
0.133,0.638,0.901,0
-0.141,0.897,1.073,0
-0.438,1.144,0.146,0
-0.301,1.12,-0.408,0
-0.098,0.976,-0.267,1
-0.256,0.664,0.616,1
-0.625,0.167,2.111,1
-0.947,-0.058,2.772,1
-1.063,-0.51,3.359,1
-0.687,-0.906,3.707,1
-0.171,-1.42,4.857,1
-0.055,-1.689,5.848,1
-0.181,-1.832,5.94,1
-0.284,-1.592,4.5,1
-0.095,-1.001,1.582,1
0.188,-0.623,0.224,1
0.492,-0.225,-1.068,1
0.461,-0.069,-1.763,1
0.577,0.185,-2.127,1
0.639,0.328,-2.225,1
0.935,0.294,-2.257,1
1.194,0.332,-2.248,1
1.201,0.333,-2.248,1
1.463,-0.049,-1.071,1
1.275,-0.281,-0.458,1
1.178,-0.342,-0.324,0
0.94,-0.386,-0.356,0
0.752,-0.335,-0.61,0
0.563,-0.185,-1.096,0
0.412,-0.024,-1.469,0
0.238,0.036,-2.14,0
0.19,0.093,-2.495,0
0.327,0.243,-2.471,0
0.325,0.227,-2.468,0
0.487,0.293,-1.565,0
0.466,0.296,-1.304,0
0.454,0.283,-1.302,0
0.284,0.287,-1.376,0
0.149,0.346,-1.545,0
0.152,0.393,-1.534,0
0.207,0.476,-1.49,0
0.311,0.567,-1.487,0
0.421,0.654,-1.371,0
0.501,0.6,-1.156,0
0.544,0.547,-0.55,0
0.543,0.467,0.015,0
0.629,0.389,0.472,0
0.475,0.356,0.855,0
0.168,0.326,1.426,0
0.061,0.328,1.242,0
-0.19,0.473,1.05,0
-0.187,0.58,0.981,0
0.115,0.806,0.682,0
0.189,0.925,0.671,0
0.343,0.872,1.177,0
0.415,0.806,1.58,0
0.216,0.681,1.929,0
-0.207,0.939,1.819,1
-0.191,0.908,1.828,1
-0.829,1.474,0.163,1
-0.933,1.269,0.553,1
-0.847,1.052,0.956,1
-0.58,0.981,1.696,1
-0.194,0.628,2.281,1
0.11,-0.058,3.193,1
0.09,-0.753,4.123,1
-0.025,-1.588,5.137,1
-0.225,-1.652,4.659,1
-0.478,-1.378,2.187,1
-0.549,-0.924,0.219,1
-0.569,-0.751,-1.488,1
-0.682,-0.586,-2.269,1
-0.578,-0.332,-2.15,1
-0.417,-0.19,-1.512,1
-0.07,-0.18,-0.976,1
0.028,-0.316,-1.024,1
0.212,-0.517,-1.361,1
0.378,-0.61,-1.411,1
0.546,-0.761,-0.883,0
0.429,-0.884,-0.439,0
0.207,-0.987,-0.505,0
0.06,-0.945,-0.877,0
-0.081,-0.816,-1.424,0
-0.139,-0.664,-1.73,0
-0.072,-0.302,-2.113,0
0.084,-0.067,-2.313,0
0.155,0.167,-2.304,0
0.119,0.246,-2.234,0
0.208,0.354,-2.209,0
0.165,0.411,-2.098,0
-0.034,0.251,-1.558,0
-0.194,0.097,-1.048,0
-0.271,0.061,-0.639,0
-0.24,0.103,-0.342,0
-0.204,0.12,-0.202,0
-0.227,0.142,-0.299,0
-0.34,0.177,-0.197,0
-0.285,0.214,-0.293,0
-0.204,0.385,-0.552,0
-0.125,0.488,-0.585,0
0.154,0.611,-0.611,0
0.285,0.582,-0.444,0
0.107,0.48,-0.062,0
-0.058,0.388,0.068,0
-0.08,0.17,0.41,0
-0.12,-0.007,0.969,0
-0.076,-0.156,1.491,0
-0.008,-0.256,2.022,0
0.248,-0.285,2.692,0
0.283,0.015,2.968,0
0.328,1.097,1.527,0
0.558,1.465,0.438,0
1.228,1.58,-0.103,1
1.448,1.691,0.233,1
1.29,1.169,1.366,1
0.598,0.569,2.423,1
-0.113,0.033,2.829,1
-0.135,-0.353,2.852,1
0.299,-0.675,2.985,1
0.524,-0.922,3.206,1
0.188,-1.249,3.644,1
-0.066,-1.341,3.431,1
-0.191,-1.258,2.17,1
-0.158,-1.104,0.681,1
0.048,-0.865,-0.838,1
0.126,-0.828,-1.196,1
0.184,-0.826,-0.982,1
0.188,-0.941,-0.502,1
0.277,-1.027,-0.119,1
0.203,-1.063,-0.105,1
0.276,-1.077,-0.264,1
0.503,-0.913,-0.577,1
0.741,-0.636,-0.949,1
0.81,-0.511,-1.418,0
0.875,-0.321,-2.007,0
0.856,-0.181,-2.28,0
0.742,-0.015,-2.397,0
0.685,0.052,-2.485,0
0.299,-0.011,-2.055,0
0.043,-0.02,-1.756,0
-0.061,0.064,-1.572,0
-0.173,0.153,-1.509,0
-0.184,0.301,-1.538,0
-0.052,0.453,-1.766,0
0.194,0.716,-1.813,0
0.254,0.803,-1.61,0
0.249,0.796,-1.608,0
0.203,0.63,-1.245,0
0.117,0.434,-0.614,0
0.104,0.303,-0.364,0
0.068,0.133,0.123,0
0.045,-0.025,0.614,0
0.294,0.061,0.467,0
0.456,0.257,0.371,0
0.504,0.424,0.112,0
0.304,0.557,-0.121,0
0.29,0.81,-0.161,0
0.174,0.922,-0.014,0
-0.033,0.753,0.465,0
-0.213,0.541,1.193,0
-0.084,0.376,1.702,0
0.123,0.306,1.523,0
0.453,0.407,1.445,0
0.335,0.647,1.455,0
0.343,0.612,1.465,0
-0.648,1.442,0.155,0
-0.765,1.693,-0.767,1
-0.653,1.777,-1.26,1
-0.169,1.801,-0.968,1
0.426,1.548,0.229,1
1.022,0.354,2.919,1
0.963,-0.696,5.289,1
0.58,-1.967,7.826,1
0.072,-2.835,8.999,1
-0.405,-2.686,6.202,1
-0.355,-2.073,3.257,1
0.254,-1.14,0.433,1
0.513,-0.343,-2.059,1
0.199,-0.087,-4.063,1
-0.049,-0.194,-4.243,1
-0.069,-0.143,-2.566,1
0.174,-0.316,-1.105,1
0.168,-0.57,-0.134,1
-0.066,-0.956,0.393,1
-0.294,-1.451,0.945,1
-0.152,-1.382,0.753,1
0.202,-1.211,0.264,1
0.167,-1.078,-0.292,0
-0.079,-1.009,-1.116,0
-0.179,-0.905,-1.692,0
-0.26,-0.686,-2.379,0
-0.259,-0.522,-2.79,0
-0.243,-0.292,-2.915,0
-0.26,-0.248,-2.718,0
-0.299,-0.213,-2.207,0
-0.219,-0.185,-1.799,0
-0.229,-0.18,-1.8,0
0.012,0.053,-1.207,0
0.168,0.192,-1.24,0
0.22,0.31,-1.293,0
0.229,0.366,-1.301,0
0.174,0.337,-1.177,0
0.144,0.345,-0.958,0
0.108,0.31,-0.93,0
-0.032,0.209,-0.682,0
-0.064,0.109,-0.486,0
0.036,0.212,-0.035,0
0.153,0.315,0.256,0
0.021,0.165,0.619,0
-0.025,0.266,0.977,0
-0.04,0.534,1.109,0
-0.109,0.608,0.924,0
-0.134,0.724,0.656,0
-0.029,0.793,0.707,0
0.243,0.845,1.049,0
0.324,0.843,1.543,0
0.157,0.688,1.91,0
0.041,0.642,1.805,0
-0.511,1.057,1.564,0
-0.829,1.211,1.17,0
-0.833,1.169,1.18,1
-0.234,1.228,-0.029,1
0.074,1.115,0.203,1
0.206,0.716,1.104,1
-0.255,0.22,2.633,1
-0.618,-0.228,3.242,1
-0.773,-0.708,3.708,1
-0.802,-1.205,4.041,1
-1.125,-1.317,4.095,1
-0.936,-1.452,3.576,1
-0.726,-0.882,2.467,1
-0.334,-0.585,1.531,1
-0.085,-0.293,0.407,1
-0.069,-0.282,-0.092,1
-0.014,-0.251,-0.481,1
0.133,-0.315,-0.584,1
0.245,-0.467,-0.502,1
0.249,-0.518,-0.714,1
0.364,-0.616,-1.231,1
0.216,-0.545,-1.324,1
0.048,-0.627,-1.205,1
-0.037,-0.647,-1.151,0
-0.24,-0.555,-1.39,0
-0.365,-0.515,-1.701,0
-0.278,-0.253,-2.265,0
-0.117,-0.051,-2.537,0
0.068,0.268,-2.92,0
0.386,0.532,-3.122,0
0.388,0.518,-3.118,0
0.4,0.771,-2.558,0
0.105,0.642,-2.08,0
0.095,0.637,-2.079,0
-0.322,0.428,-1.655,0
-0.411,0.366,-1.273,0
-0.302,0.406,-1.137,0
-0.206,0.5,-1.262,0
-0.02,0.622,-1.342,0
0.199,0.728,-1.523,0
0.199,0.715,-1.519,0
0.195,0.541,-1.017,0
0.198,0.536,-1.016,0
0.034,0.216,-0.292,0
-0.139,0.111,0.353,0
-0.328,-0.082,0.81,0
-0.606,-0.114,1.04,0
-0.463,0.097,0.868,0
-0.266,0.231,0.937,0
-0.141,0.347,1.386,0
0.105,0.528,1.836,0
0.264,0.547,1.987,0
0.511,0.559,1.947,0
0.554,0.491,2.093,0
0.225,0.78,2.057,0
-0.043,1.09,1.37,0
-0.029,1.057,1.38,1
-0.593,1.164,0.065,1
-0.409,1.23,0.234,1
-0.295,1.21,0.52,1
-0.163,0.846,1.201,1
-0.097,0.19,2.217,1
-0.061,-0.929,3.819,1
-0.105,-1.646,5.129,1
-0.231,-2.007,5.641,1
-0.446,-1.813,4.062,1
-0.598,-1.231,0.635,1
-0.702,-0.894,-1.172,1
-0.873,-0.558,-2.726,1
-0.956,-0.34,-3.186,1
-1.137,-0.378,-2.9,1
-1.147,-0.349,-2.908,1
-0.76,-0.536,-1.297,1
-0.299,-0.528,-0.936,1
0.302,-0.589,-0.602,1
0.491,-0.688,-0.331,1
0.746,-0.726,-0.115,1
0.793,-0.726,-0.072,0
0.572,-0.75,-0.302,0
0.43,-0.69,-0.637,0
0.338,-0.518,-1.252,0
0.327,-0.348,-1.53,0
0.273,-0.092,-1.668,0
0.155,0.079,-1.995,0
-0.019,0.272,-2.342,0
-0.019,0.312,-2.224,0
-0.135,0.418,-1.737,0
-0.277,0.496,-1.751,0
-0.288,0.59,-1.99,0
-0.179,0.603,-1.881,0
-0.126,0.631,-1.021,0
-0.203,0.554,-0.681,0
-0.144,0.521,-0.71,0
-0.097,0.56,-0.478,0
-0.139,0.614,-0.12,0
-0.242,0.624,0.126,0
-0.322,0.475,0.327,0
-0.467,0.383,0.39,0
-0.572,0.266,0.432,0
-0.581,0.132,0.662,0
-0.687,0.241,1.216,0
-0.672,0.412,1.206,0
-0.49,0.455,0.713,0
-0.427,0.521,1.085,0
-0.333,0.423,1.689,0
-0.318,0.29,2.137,0
-0.097,0.273,2.658,0
-0.058,0.458,2.822,0
-0.189,0.974,1.777,0
0.016,0.969,0.783,1
0.713,1.13,0.433,1
1.11,1.275,0.438,1
0.999,0.9,0.965,1
0.382,0.391,1.75,1
-0.438,-0.036,2.256,1
-0.571,-0.218,2.252,1
-0.42,-0.549,2.559,1
-0.274,-0.848,3.105,1
-0.214,-1.034,3.547,1
-0.27,-1.024,3.163,1
-0.184,-0.915,1.836,1
-0.043,-0.752,0.43,1
0.237,-0.52,-0.717,1
0.308,-0.454,-1.227,1
0.121,-0.586,-1.441,1
-0.108,-0.781,-1.043,1
-0.048,-0.914,-0.571,1
0.183,-0.854,-0.539,1
0.501,-0.835,-0.442,1
0.532,-0.909,-0.34,1
0.521,-0.917,-0.252,0
0.541,-0.827,-0.394,0
0.481,-0.704,-0.681,0
0.514,-0.573,-1.176,0
0.661,-0.208,-2.095,0
0.79,0.031,-2.541,0
0.708,0.209,-2.7,0
0.55,0.214,-2.783,0
0.309,0.059,-2.269,0
0.227,0.066,-1.798,0
0.274,0.108,-1.822,0
0.396,0.249,-1.811,0
0.409,0.348,-1.594,0
0.416,0.487,-1.521,0
0.443,0.652,-1.467,0
0.535,0.781,-1.467,0
0.484,0.896,-1.645,0
0.423,0.839,-1.731,0
0.325,0.801,-1.362,0
0.334,0.696,-0.905,0
0.076,0.517,-0.466,0
0.012,0.454,-0.084,0
0.027,0.481,0.487,0
-0.029,0.581,0.862,0
-0.115,0.686,0.771,0
-0.248,0.813,0.507,0
-0.171,0.885,0.375,0
-0.113,0.941,0.771,0
-0.036,0.792,1.349,0
-0.029,0.615,1.786,0
-0.017,0.518,2.152,0
0.277,0.5,2.252,0
0.224,0.49,2.483,0
-0.22,0.747,2.216,1
-0.488,1.057,0.628,1
-0.469,1.181,0.291,1
-0.419,1.228,0.212,1
-0.174,1.242,0.19,1
-0.188,1.232,0.192,1
0.442,0.821,2.421,1
0.394,0.84,2.415,1
0.282,-0.741,4.525,1
0.176,-1.589,5.289,1
-0.068,-1.789,5.153,1
-0.247,-1.714,3.433,1
-0.438,-1.449,1.462,1
-0.627,-1.124,-0.326,1
-0.618,-0.912,-1.456,1
-0.645,-0.488,-2.348,1
-0.534,-0.267,-2.408,1
-0.247,-0.079,-1.778,1
-0.148,-0.155,-1.205,1
-0.17,-0.568,-0.327,1
-0.171,-0.784,-0.01,1
0.047,-0.895,0.163,0
0.101,-0.947,0.233,0
0.149,-0.948,0.101,0
0.111,-0.873,-0.351,0
0.113,-0.66,-1.403,0
0.173,-0.371,-2.109,0
0.244,-0.136,-2.797,0
0.299,0.025,-3.178,0
0.269,0.138,-3.162,0
0.098,0.137,-2.847,0
-0.068,0.033,-2.561,0
-0.131,0.03,-2.485,0
-0.207,0.066,-2.187,0
-0.194,0.086,-1.907,0
-0.276,0.006,-1.518,0
-0.316,0.026,-1.169,0
-0.321,0.051,-0.717,0
-0.255,0.142,-0.683,0
-0.125,0.204,-0.839,0
-0.223,0.155,-0.676,0
-0.428,0.043,-0.068,0
-0.386,0.061,0.171,0
-0.438,0.071,0.188,0
-0.363,0.123,0.13,0
-0.12,0.372,0.204,0
-0.026,0.434,0.456,0
-0.072,0.477,0.744,0
0.045,0.536,0.61,0
0.234,0.625,0.489,0
0.335,0.549,0.909,0
0.317,0.403,1.678,0
0.326,0.411,1.888,0
-0.039,1.187,1.511,0
-0.367,1.608,0.744,0
-0.162,1.66,-0.634,0
0.167,1.9,-0.992,0
0.419,1.777,-1.023,1
0.482,1.232,0.128,1
0.133,0.226,2.531,1
-0.189,-0.392,4.147,1
-0.374,-1.278,5.842,1
-0.71,-1.91,6.897,1
-0.988,-2.188,6.718,1
-1.035,-2.006,5.314,1
-0.623,-1.256,3.029,1
-0.251,-0.903,1.57,1
0.038,-0.58,-0.105,1
0.376,-0.236,-1.851,1
0.324,-0.311,-2.328,1
0.427,-0.489,-1.611,1
0.695,-0.693,-0.124,1
0.782,-0.864,0.569,1
0.518,-1.167,1.2,1
0.267,-1.391,1.019,1
0.16,-1.286,0.29,1
0.359,-1.013,-0.303,1
0.567,-0.569,-1.052,1
0.565,-0.4,-1.545,0
0.605,-0.21,-2.371,0
0.715,0.004,-2.803,0
0.818,0.101,-2.577,0
0.728,0.074,-2.424,0
0.552,0.01,-2.2,0
0.394,0.005,-2.095,0
0.257,0.009,-2.019,0
0.184,0.047,-2.133,0
0.12,0.053,-2.124,0
0.086,0.039,-1.944,0
0.141,0.164,-1.364,0
0.187,0.193,-1.217,0
0.271,0.333,-1.471,0
0.35,0.362,-1.594,0
0.395,0.367,-1.486,0
0.447,0.38,-1.379,0
0.588,0.33,-1.263,0
0.667,0.304,-0.981,0
0.55,0.175,-0.625,0
0.416,0.183,-0.361,0
0.374,0.294,-0.187,0
0.351,0.391,-0.162,0
0.281,0.547,0.187,0
0.234,0.557,0.481,0
0.292,0.656,0.685,0
0.39,0.751,0.978,0
0.933,0.96,1.557,0
1.162,1.007,2.062,0
0.839,0.789,2.528,0
0.206,0.887,2.739,0
-0.435,1.121,1.648,0
-0.492,1.306,0.632,0
-0.478,1.275,0.642,1
-0.317,1.494,-0.353,1
-0.222,1.42,-0.031,1
-0.155,0.998,1.141,1
-0.179,-0.032,3.069,1
-0.26,-0.953,4.736,1
-0.154,-2.076,6.428,1
0.191,-2.206,6.079,1
0.051,-1.789,4.425,1
-0.017,-1.678,2.184,1
-0.312,-1.182,0.16,1
-0.495,-1.066,-0.805,1
-0.79,-0.829,-2.227,1
-0.907,-0.566,-2.58,1
-0.706,-0.536,-2.103,1
-0.396,-0.31,-1.533,1
0.284,-0.419,-1.019,1
0.536,-0.458,-1.058,1
0.788,-0.558,-0.86,1
0.921,-0.612,-0.669,1
0.924,-0.652,-0.545,1
0.809,-0.666,-0.703,0
0.81,-0.632,-0.71,0
0.371,-0.758,-1.169,0
0.015,-0.764,-1.129,0
-0.104,-0.684,-1.248,0
-0.089,-0.451,-1.696,0
0.004,-0.147,-2.079,0
0.164,0.217,-2.555,0
0.372,0.433,-2.722,0
0.376,0.437,-2.417,0
0.381,0.489,-1.905,0
0.373,0.498,-1.907,0
0.364,0.431,-1.251,0
0.126,0.171,-0.106,0
-0.083,0.03,0.143,0
-0.215,0.041,-0.264,0
-0.274,0.166,-0.498,0
-0.352,0.312,-0.589,0
-0.438,0.363,-0.674,0
-0.53,0.443,-0.798,0
-0.315,0.54,-0.888,0
0.026,0.788,-0.523,0
0.078,0.848,0.095,0
0.023,0.735,0.676,0
-0.2,0.61,1.281,0
-0.325,0.497,1.726,0
-0.358,0.418,2.147,0
-0.268,0.348,2.272,0
-0.155,0.278,2.09,0
0.078,0.4,1.833,0
0.386,0.59,1.744,0
0.339,1.145,1.891,0
-0.228,1.482,1.447,0
-0.238,1.281,0.53,1
0.107,1.285,0.267,1
0.64,1.262,0.715,1
0.843,0.946,1.707,1
0.73,0.183,2.901,1
0.28,-0.201,3.517,1
-0.126,-0.743,4.051,1
-0.181,-0.951,3.992,1
-0.238,-1.124,3.421,1
-0.3,-1.109,2.875,1
-0.318,-0.945,1.811,1
-0.259,-0.814,0.81,1
-0.2,-0.735,-0.253,1
-0.109,-0.719,-0.615,1
-0.02,-0.749,-0.552,1
0.117,-0.75,-0.226,1
0.272,-0.938,0.142,1
0.274,-1.063,0.178,1
0.33,-1.113,0.247,1
0.446,-1.036,-0.012,1
0.469,-0.877,-0.564,1
0.47,-0.719,-1.115,0
0.491,-0.469,-1.997,0
0.4,-0.331,-2.406,0
0.329,-0.226,-2.888,0
0.512,-0.036,-3.097,0
0.655,0.098,-2.594,0
0.63,0.104,-2.224,0
0.525,0.177,-2.338,0
0.53,0.168,-2.648,0
0.16,-0.076,-1.672,0
0.007,-0.093,-0.949,0
-0.201,0.005,-0.947,0
-0.203,0.031,-1.348,0
-0.112,0.294,-1.575,0
0.054,0.356,-1.411,0
0.145,0.506,-1.583,0
0.072,0.547,-1.534,0
0.077,0.526,-1.338,0
0.065,0.565,-1.327,0
-0.095,0.369,-1.081,0
-0.115,0.301,-1.023,0
0.091,0.384,-0.586,0
0.101,0.347,-0.044,0
-0.122,0.313,0.371,0
-0.275,0.263,0.64,0
-0.299,0.418,0.934,0
-0.288,0.484,1.233,0
-0.336,0.562,1.347,0
-0.4,0.591,1.42,0
-0.144,0.624,1.355,0
-0.055,0.68,1.521,0
0.251,0.729,1.882,0
0.291,0.789,2.132,0
-0.079,1.373,2.261,1
-0.296,1.703,1.274,1
-0.672,1.712,-0.006,1
-0.671,1.676,-0.269,1
-0.647,1.537,-0.12,1
-0.513,1.369,0.642,1
-0.126,0.716,1.717,1
-0.074,0.075,2.714,1
-0.175,-1.081,4.437,1
-0.399,-1.735,5.549,1
-0.446,-2.222,6.027,1
-0.458,-2.152,4.743,1
-0.179,-1.429,2.143,1
0.053,-0.899,0.48,1
0.226,-0.339,-1.551,1
0.081,-0.072,-2.803,1
-0.516,-0.122,-3.271,1
-0.733,-0.192,-2.928,1
-0.741,-0.202,-2.205,1
-0.723,-0.372,-1.575,1
-0.667,-0.615,-0.972,1
-0.559,-0.712,-0.861,0
-0.244,-0.731,-0.693,0
-0.086,-0.7,-0.293,0
-0.24,-0.764,0.318,0
-0.442,-0.738,0.417,0
-0.627,-0.667,-0.095,0
-0.683,-0.566,-0.578,0
-0.697,-0.407,-1.044,0
-0.678,-0.261,-1.441,0
-0.548,-0.005,-2.087,0
-0.439,0.109,-2.413,0
-0.443,0.153,-2.543,0
-0.241,0.316,-2.684,0
-0.175,0.402,-2.4,0
-0.3,0.306,-1.815,0
-0.336,0.289,-1.411,0
-0.342,0.267,-1.139,0
-0.461,0.198,-0.923,0
-0.54,0.162,-0.856,0
-0.549,0.204,-0.856,0
-0.595,0.219,-0.911,0
-0.498,0.257,-1.076,0
-0.555,0.255,-0.916,0
-0.659,0.174,-0.441,0
-0.734,0.113,0.04,0
-0.721,0.126,0.037,0
-0.859,0.025,0.935,0
-0.7,0.237,0.94,0
-0.541,0.487,0.945,0
-0.343,0.661,0.941,0
-0.325,0.633,1.335,0
-0.15,0.484,2.143,0
0.033,0.525,2.534,0
0.122,0.502,2.397,0
-0.182,0.712,1.705,0
-0.809,1.14,0.591,0
-0.793,1.025,0.085,0
-0.407,1.203,-0.293,1
0.028,1.317,-0.009,1
0.25,0.901,1.589,1
-0.101,0.58,2.691,1
-0.154,0.105,2.681,1
0.037,-0.243,2.724,1
0.292,-0.88,3.829,1
0.16,-1.366,4.934,1
-0.278,-1.7,5.409,1
-0.457,-1.777,4.893,1
-0.494,-1.572,2.461,1
-0.483,-1.288,0.646,1
-0.312,-1.009,-0.727,1
-0.166,-0.813,-1.177,1
0.229,-0.684,-1.613,1
0.387,-0.665,-1.475,1
0.459,-0.927,-0.77,1
0.558,-0.968,-0.419,1
0.44,-1.148,-0.259,1
0.28,-1.296,-0.353,1
0.222,-1.202,-0.963,1
0.339,-0.983,-1.241,0
0.493,-0.692,-1.531,0
0.575,-0.454,-1.871,0
0.659,-0.17,-2.606,0
0.664,0.105,-3.333,0
0.635,0.283,-3.414,0
0.416,0.172,-2.912,0
0.031,0.034,-2.203,0
-0.097,-0.145,-1.732,0
-0.289,-0.214,-1.253,0
-0.299,-0.182,-1.104,0
-0.119,0.044,-1.24,0
0.108,0.277,-1.602,0
0.123,0.27,-1.6,0
0.072,0.438,-1.996,0
0.014,0.421,-1.902,0
0.214,0.492,-1.993,0
0.06,0.409,-1.356,0
0.018,0.24,-1.062,0
0.004,0.063,-0.577,0
-0.023,-0.002,0.383,0
-0.006,0.129,0.864,0
-0.018,0.29,0.762,0
0.036,0.522,0.282,0
0.066,0.666,-0.026,0
0.191,0.747,-0.349,0
0.209,0.878,0.125,0
0.4,0.849,0.884,0
0.556,0.816,1.277,0
0.68,0.748,1.941,0
0.735,0.513,2.683,0
0.789,0.256,2.862,0
0.797,0.101,3.214,0
0.328,0.676,2.354,1
-0.036,1.097,0.901,1
-0.142,1.155,-0.214,1
-0.053,1.449,-0.983,1
0.05,1.413,-1.314,1
0.102,1,-0.309,1
0.192,0.256,2.283,1
0.184,-0.376,3.774,1
0.182,-1.323,5.624,1
0.168,-1.757,6.417,1
0.089,-2.137,5.79,1
0.034,-1.782,3.733,1
-0.008,-1.181,1.222,1
-0.139,-0.869,-0.288,1
-0.516,-0.52,-1.882,1
-0.654,-0.376,-2.625,1
-0.538,-0.131,-1.662,1
-0.234,-0.078,-0.706,1
0.027,-0.053,-0.124,1
0.007,-0.345,-0.182,1
-0.025,-0.868,0.254,1
0.027,-1.118,0.694,0
0.125,-1.246,0.951,0
0.105,-1.29,0.678,0
-0.097,-1.25,-0.202,0
-0.118,-1.096,-0.972,0
-0.139,-0.797,-1.762,0
-0.178,-0.595,-2.322,0
-0.258,-0.25,-3.021,0
-0.196,-0.058,-3.209,0
-0.13,0.124,-3.11,0
-0.183,0.12,-2.788,0
-0.387,-0.009,-2.288,0
-0.509,-0.053,-2.038,0
-0.424,-0.03,-1.953,0
-0.302,0.029,-1.844,0
-0.093,0.17,-1.453,0
-0.103,0.177,-1.145,0
-0.18,0.128,-0.886,0
-0.246,0.115,-0.731,0
-0.4,0.102,-0.429,0
-0.53,0.141,-0.248,0
-0.546,0.186,-0.252,0
-0.564,0.283,-0.121,0
-0.62,0.287,-0.507,0
-0.48,0.375,-0.651,0
-0.109,0.539,-0.234,0
-0.067,0.633,0.384,0
-0.099,0.684,0.472,0
-0.217,0.761,0.205,0
-0.212,0.734,0.365,0
-0.062,0.704,0.711,0
0.2,0.661,1.311,0
0.178,0.531,1.766,0
-0.002,0.283,2.357,0
0.172,0.107,2.838,0
0.111,0.423,2.658,0
-0.253,0.681,2.143,0
-0.451,1.052,1.259,1
-0.227,1.098,1.064,1
0.228,1.308,0.811,1
0.493,1.306,0.689,1
0.42,0.926,1.085,1
0.094,0.764,1.552,1
-0.114,0.368,1.666,1
0.017,-0.03,1.805,1
0.409,-0.502,2.544,1
0.403,-0.846,3.263,1
-0.012,-1.124,3.811,1
-0.459,-1.275,3.366,1
-0.713,-1.181,1.494,1
-0.653,-0.944,0.422,1
-0.376,-0.657,-0.531,1
-0.232,-0.49,-1.241,1
-0.096,-0.356,-1.817,1
0.066,-0.43,-1.636,1
0.229,-0.641,-0.992,1
0.318,-0.858,-0.76,1
0.245,-1.058,-0.544,1
0.053,-1.286,-0.224,0
0.005,-1.371,0.153,0
0.052,-1.26,0.112,0
0.11,-0.991,-0.403,0
0.159,-0.716,-1.058,0
0.299,-0.32,-2.034,0
0.41,-0.021,-2.522,0
0.48,0.202,-2.713,0
0.363,0.267,-2.508,0
0.268,0.264,-2.272,0
0.147,0.267,-2.24,0
0.037,0.289,-2.122,0
0.114,0.332,-1.884,0
0.163,0.357,-1.594,0
0.16,0.351,-1.592,0
0.152,0.426,-1.513,0
0.254,0.491,-1.515,0
0.322,0.596,-1.302,0
0.377,0.641,-1.118,0
0.465,0.714,-1.01,0
0.531,0.755,-0.987,0
0.467,0.734,-0.811,0
0.329,0.701,-0.546,0
0.175,0.701,-0.364,0
0.035,0.686,-0.207,0
-0.231,0.533,0.224,0
-0.359,0.436,0.51,0
-0.415,0.4,0.875,0
-0.355,0.495,1.231,0
0.007,0.628,1.499,0
0.045,0.556,1.813,0
0.433,0.518,2.658,0
0.66,0.467,3.331,0
0.514,0.293,3.244,0
-0.003,0.446,2.394,0
-0.719,0.869,0.934,1
-0.684,1.005,0.23,1
-0.532,1.366,-0.488,1
-0.515,1.459,-0.818,1
-0.516,1.456,-0.817,1
-0.154,0.817,1.526,1
0.182,-0.276,3.52,1
0.177,-1.107,5.438,1
0.29,-1.975,7.418,1
0.166,-2.157,7.568,1
-0.18,-1.938,4.801,1
-0.212,-1.429,1.998,1
-0.057,-0.688,-1.011,1
-0.298,-0.47,-2.756,1
-0.95,-0.366,-3.61,1
-1.227,-0.147,-3.237,1
-1.042,-0.124,-1.528,1
-0.723,-0.079,-0.838,1
-0.55,-0.266,-0.846,1
-0.313,-0.549,-0.712,1
0.004,-0.662,-0.171,1
0.211,-0.759,0.168,0
0.22,-0.855,0.269,0
0.085,-0.889,-0.113,0
-0.097,-0.873,-0.896,0
-0.078,-0.702,-1.437,0
-0.376,-0.656,-2.111,0
-0.468,-0.583,-2.463,0
-0.301,-0.272,-2.735,0
-0.225,-0.129,-2.866,0
0.012,0.177,-3.146,0
0.217,0.378,-3.217,0
0.098,0.414,-2.772,0
-0.207,0.293,-2.526,0
-0.49,0.223,-2.248,0
-0.429,0.278,-1.939,0
-0.376,0.317,-1.292,0
-0.427,0.264,-0.908,0
-0.479,0.261,-0.42,0
-0.412,0.364,-0.101,0
-0.276,0.499,0.394,0
-0.228,0.472,0.347,0
-0.292,0.377,0.156,0
-0.17,0.27,0.447,0
0.019,0.131,1.111,0
-0.164,0.029,1.785,0
-0.399,-0.303,2.349,0
-0.363,-0.34,2.142,0
0.048,0.021,1.446,0
0.399,0.21,1.128,0
0.623,0.359,1.108,0
0.836,0.489,1.268,0
0.957,0.593,1.535,0
0.656,0.502,1.49,0
-0.115,0.966,1.115,0
0.01,0.776,0.804,0
0.333,0.641,0.889,1
0.521,0.629,0.949,1
0.457,0.238,1.616,1
0.33,-0.235,2.228,1
0.09,-0.424,2.746,1
-0.202,-0.294,2.589,1
-0.16,-0.221,1.635,1
0.044,-0.102,1.058,1
0.281,-0.057,0.867,1
0.235,-0.029,0.67,1
0.065,-0.04,-0.001,1
-0.013,-0.078,-0.497,1
-0.063,-0.23,-0.618,1
-0.037,-0.31,-0.551,1
0.133,-0.48,-0.653,1
0.245,-0.538,-0.35,1
0.435,-0.742,-0.154,1
0.443,-0.91,0.078,1
0.407,-1.08,0.321,1
0.338,-1.13,0.332,1
0.233,-1.122,0.036,1
0.24,-1.015,-0.266,0
0.276,-0.856,-0.733,0
0.33,-0.692,-1.11,0
0.176,-0.557,-1.549,0
0.083,-0.477,-1.798,0
0.172,-0.331,-1.828,0
0.281,-0.184,-1.753,0
0.555,0.04,-1.627,0
0.604,0.125,-1.537,0
0.395,0.168,-1.459,0
0.283,0.196,-1.431,0
0.182,0.319,-1.497,0
0.139,0.415,-1.474,0
-0.111,0.393,-1.403,0
-0.261,0.356,-1.202,0
-0.365,0.407,-1.036,0
-0.342,0.471,-1.005,0
-0.04,0.523,-1.199,0
-0.003,0.663,-1.124,0
-0.072,0.456,-0.8,0
-0.22,0.313,-0.417,0
-0.16,0.29,-0.038,0
0.02,0.4,0.139,0
-0.112,0.453,0.333,0
-0.267,0.43,0.452,0
-0.32,0.45,0.536,0
-0.169,0.537,0.499,0
0.007,0.744,0.617,0
0.004,0.717,0.893,0
0.216,0.873,0.989,0
0.386,0.868,0.981,0
0.588,0.63,1.593,0
0.692,0.503,2.149,0
0.339,0.726,2.35,1
-0.073,0.924,1.721,1
-0.454,1.044,0.51,1
-0.257,1.13,0.152,1
0.023,1.325,0.217,1
-0.093,0.918,0.854,1
-0.526,0.242,2.144,1
-0.456,-0.169,2.708,1
0,-0.742,3.734,1
0.315,-1.036,4.256,1
0.425,-1.352,4.655,1
0.256,-1.321,4.05,1
0.111,-0.903,1.523,1
0.096,-0.523,-0.075,1
0.053,-0.237,-1.822,1
-0.243,-0.158,-2.746,1
-0.388,-0.234,-2.641,1
-0.426,-0.287,-1.868,1
-0.418,-0.511,-1.226,1
-0.32,-0.67,-1.019,1
-0.07,-1.007,-0.709,1
0.155,-1.119,-0.626,0
0.498,-1.028,-0.472,0
0.7,-0.894,-0.491,0
0.577,-0.851,-1.055,0
0.353,-0.868,-1.498,0
0.067,-0.833,-1.595,0
0.022,-0.709,-1.603,0
0.073,-0.397,-1.659,0
0.132,-0.2,-1.893,0
0.2,0.066,-2.055,0
0.151,0.143,-2.033,0
0.166,0.308,-2.017,0
0.281,0.459,-1.837,0
0.315,0.542,-1.462,0
0.182,0.44,-1.024,0
-0.019,0.36,-0.491,0
-0.129,0.316,-0.256,0
-0.297,0.302,0.149,0
-0.433,0.297,0.266,0
-0.434,0.346,-0.002,0
-0.444,0.406,-0.039,0
-0.39,0.448,-0.195,0
-0.312,0.513,-0.315,0
-0.194,0.437,-0.045,0
-0.235,0.358,0.197,0
-0.483,0.255,0.569,0
-0.66,0.046,0.547,0
-0.639,0.141,0.522,0
-0.318,0.323,0.192,0
0.06,0.466,0.164,0
0.146,0.39,0.641,0
0.059,0.203,1.241,0
0.291,0.265,1.532,0
0.176,0.83,1.483,0
-0.21,1.237,0.74,1
-0.189,1.215,0.746,1
0.384,1.304,-0.372,1
0.542,1.244,0.041,1
0.373,0.777,0.831,1
-0.325,0.221,2.233,1
-0.725,-0.122,2.6,1
-0.614,-0.502,2.913,1
-0.275,-0.652,3.319,1
0.008,-0.935,4.076,1
0.053,-1.009,4.212,1
-0.026,-0.999,3.323,1
0.029,-0.898,2.221,1
0.323,-0.699,0.656,1
0.591,-0.581,0.07,1
0.675,-0.536,0.127,1
0.62,-0.542,0.176,1
0.606,-0.542,-0.068,1
0.726,-0.56,-0.41,1
0.734,-0.66,-0.693,1
0.696,-0.745,-0.919,1
0.698,-0.744,-0.919,0
0.744,-0.788,-1.298,0
0.755,-0.69,-1.581,0
0.848,-0.638,-2.136,0
0.713,-0.415,-2.067,0
0.621,-0.366,-1.847,0
0.444,-0.256,-1.762,0
0.264,-0.243,-1.691,0
0.086,-0.211,-1.717,0
0.02,-0.1,-1.892,0
0.132,0.058,-2.116,0
0.163,0.214,-1.719,0
0.132,0.22,-1.25,0
-0.066,0.163,-1.263,0
-0.114,0.167,-1.336,0
0.001,0.27,-1.003,0
0.203,0.523,-0.703,0
0.196,0.575,-0.829,0
0.181,0.63,-0.908,0
0.225,0.742,-0.898,0
0.427,0.843,-0.916,0
0.344,0.787,-0.542,0
0.165,0.662,-0.059,0
0.05,0.612,0.125,0
-0.159,0.452,0.489,0
-0.207,0.471,0.561,0
-0.098,0.507,0.707,0
-0.076,0.61,1.123,0
0.005,0.643,1.234,0
0.001,0.679,1.36,0
0.013,0.635,1.659,0
0.024,0.59,1.897,0
0.101,0.569,2.058,0
-0.005,0.638,2.076,0
-0.829,1.09,1.542,0
-1,1.19,0.324,0
-0.861,1.25,0.072,1
-0.811,1.192,0.603,1
-0.703,0.836,1.14,1
-0.584,0.47,1.817,1
-0.203,-0.209,3.177,1
-0.029,-0.674,3.936,1
0.121,-1.366,5.157,1
0.179,-1.66,5.568,1
-0.02,-1.62,4.788,1
-0.135,-1.261,2.684,1
-0.148,-0.678,0.073,1
0.004,-0.35,-1.394,1
-0.086,-0.021,-2.634,1
-0.361,-0.042,-2.657,1
-0.511,-0.18,-1.686,1
-0.334,-0.125,-1.082,1
0.081,-0.254,-0.825,1
0.034,-0.584,-0.6,1
-0.075,-0.887,-0.227,1
0.048,-0.989,-0.102,1
0.158,-1.075,0.02,1
0.048,-1.105,-0.125,0
-0.139,-1.08,-0.962,0
-0.195,-1.006,-1.671,0
-0.255,-0.854,-2.472,0
-0.187,-0.737,-2.623,0
-0.059,-0.427,-2.79,0
-0.079,-0.281,-2.895,0
-0.129,-0.109,-2.925,0
-0.177,0.011,-2.94,0
-0.41,0.016,-2.747,0
-0.587,-0.019,-2.552,0
-0.694,0.029,-2.117,0
-0.682,0.086,-1.997,0
-0.609,0.265,-1.952,0
-0.447,0.398,-1.941,0
-0.336,0.498,-1.775,0
-0.285,0.511,-1.266,0
-0.342,0.437,-0.665,0
-0.509,0.335,-0.224,0
-0.679,0.132,0.185,0
-0.816,0.04,0.436,0
-0.901,-0.04,0.901,0
-0.998,0.008,1.291,0
-0.911,0.275,1.765,0
-0.802,0.572,1.649,0
-0.573,0.869,1.147,0
-0.371,1.043,0.798,0
-0.153,0.961,0.809,0
-0.117,0.786,1.152,0
-0.117,0.646,1.738,0
-0.016,0.558,1.983,0
-0.455,0.877,1.868,0
-0.526,1.141,1.192,1
-0.515,1.118,1.198,1
0.4,1.375,0.663,1
0.631,1.185,1.305,1
0.371,0.676,2.249,1
-0.259,0.173,3.169,1
-0.334,0.067,3.242,1
0.218,-0.276,3.346,1
0.462,-0.339,3.417,1
0.472,-0.525,3.173,1
0.264,-0.528,2.539,1
0.299,-0.511,2.536,1
0.063,-0.354,0.287,1
0.085,-0.253,-0.774,1
0.085,-0.273,-1.292,1
-0.041,-0.491,-1.069,1
0.023,-0.64,-0.789,1
0.234,-0.738,-0.629,1
0.179,-0.916,-0.533,1
0.179,-1.123,-0.675,1
0.215,-1.147,-0.625,1
0.248,-1.245,-0.379,0
0.189,-1.222,-0.126,0
0.19,-1.108,-0.17,0
0.15,-0.983,-0.512,0
0.252,-0.653,-1.499,0
0.296,-0.379,-2.075,0
0.242,-0.072,-2.596,0
0.235,0.053,-2.801,0
0.183,0.143,-2.555,0
0.012,0.053,-2.188,0
-0.123,0.161,-2.163,0
0.006,0.206,-2.241,0
0.074,0.307,-1.884,0
0.046,0.399,-1.612,0
-0.039,0.323,-1.468,0
-0.11,0.399,-1.363,0
-0.115,0.536,-1.314,0
-0.084,0.554,-1.337,0
-0.167,0.51,-0.773,0
-0.178,0.502,-0.525,0
0.031,0.565,-0.491,0
0.064,0.513,-0.243,0
-0.053,0.384,0.379,0
-0.274,0.281,0.833,0
-0.327,0.224,1.399,0
-0.243,0.37,1.82,0
-0.062,0.523,1.795,0
0.12,0.71,1.481,0
0.236,0.863,1.341,0
0.322,0.898,1.589,0
0.416,0.835,1.98,0
0.486,0.692,2.34,0
0.366,0.556,2.837,0
0.111,0.831,2.901,0
-0.196,1.302,1.581,1
-0.363,1.519,0.54,1
-0.09,1.626,-0.362,1
0.071,1.567,-1.024,1
0.256,0.982,-0.102,1
0.216,0.428,1.646,1
0.191,-0.352,3.696,1
0.246,-0.765,4.885,1
0.298,-1.41,6.184,1
0.126,-1.448,5.638,1
0.134,-1.118,2.964,1
0.069,-0.641,0.768,1
-0.021,-0.47,-0.902,1
-0.271,-0.391,-1.623,1
-0.57,-0.575,-1.99,1
-0.641,-0.708,-1.638,1
-0.416,-0.821,-0.714,1
-0.188,-0.871,-0.579,1
0.043,-1.089,-0.576,1
0.066,-1.257,-0.518,1
0.109,-1.453,-0.324,1
0.227,-1.453,-0.021,0
0.229,-1.385,-0.146,0
0.111,-1.301,-0.683,0
-0.145,-1.209,-1.65,0
-0.26,-1.1,-2.194,0
-0.249,-0.732,-2.956,0
-0.191,-0.527,-3.283,0
-0.219,-0.432,-3.352,0
-0.237,-0.397,-2.899,0
-0.119,-0.255,-2.267,0
0.124,-0.076,-1.98,0
0.035,0.016,-1.644,0
-0.197,-0.046,-1.471,0
-0.241,0.059,-1.429,0
-0.274,0.215,-1.279,0
-0.316,0.358,-1.331,0
-0.391,0.422,-1.481,0
-0.47,0.448,-1.435,0
-0.352,0.472,-1.16,0
-0.386,0.342,-0.2,0
-0.348,0.191,0.257,0
-0.219,0.099,0.877,0
-0.176,0.123,1.12,0
-0.247,0.141,1.216,0
-0.203,0.239,0.987,0
-0.123,0.557,0.588,0
-0.05,0.643,0.592,0
-0.094,0.598,0.969,0
0.091,0.589,1.183,0
0.305,0.577,1.721,0
0.227,0.555,1.909,0
-0.215,1.12,1.628,0
-0.274,1.36,0.787,0
-0.123,1.55,-0.472,0
-0.091,1.56,-0.798,0
-0.145,1.284,-0.123,1
-0.161,0.72,1.016,1
-0.601,-0.187,3.205,1
-0.754,-0.559,3.98,1
-0.87,-1.216,5.595,1
-0.888,-1.467,6.325,1
-0.724,-1.502,6.347,1
-0.606,-1.343,5.255,1
-0.242,-0.886,2.791,1
0.047,-0.519,1.284,1
0.4,-0.277,0.111,1
0.599,-0.173,-0.925,1
0.56,-0.244,-1.35,1
0.777,-0.347,-1.194,1
1.027,-0.372,-0.772,1
1.028,-0.573,-0.297,1
0.765,-0.953,0.041,1
0.627,-1.042,-0.166,1
0.594,-0.963,-0.635,1
0.556,-0.901,-1.03,1
0.455,-0.777,-1.542,1
0.465,-0.59,-1.964,0
0.54,-0.305,-2.693,0
0.593,-0.136,-2.954,0
0.609,0.034,-3.043,0
0.408,-0.024,-2.888,0
0.179,-0.165,-2.432,0
0.052,-0.179,-1.981,0
-0.108,-0.252,-1.672,0
-0.228,-0.226,-1.471,0
-0.001,0.033,-1.667,0
0.144,0.254,-1.86,0
0.238,0.404,-1.972,0
0.159,0.428,-1.84,0
0.159,0.415,-1.505,0
0.115,0.317,-1.119,0
0.009,0.218,-1.039,0
-0.017,0.146,-0.949,0
-0.065,0.083,-0.578,0
-0.077,0.06,-0.301,0
0.023,0.144,-0.016,0
0.064,0.265,-0.143,0
0.029,0.461,-0.466,0
0.107,0.613,-0.564,0
0.114,0.595,-0.559,0
0.423,0.984,-0.154,0
0.539,0.852,0.457,0
0.527,0.658,1.319,0
0.6,0.44,2.241,0
0.472,0.236,2.925,0
0.313,0.326,3.548,0
0.094,0.885,2.97,0
0.009,1.465,1.155,0
0.062,1.718,0.031,0
0.079,1.687,0.04,1
0.255,1.691,-0.291,1
0.15,0.79,2.116,1
0.159,0.118,3.401,1
0.068,-0.952,5.535,1
-0.006,-1.621,6.512,1
-0.016,-1.807,6.024,1
0.113,-1.592,4.012,1
0.241,-0.934,1.214,1
0.412,-0.563,-0.206,1
0.558,-0.174,-1.722,1
0.324,-0.182,-2.088,1
0.114,-0.36,-1.252,1
0.174,-0.387,-0.381,1
0.301,-0.533,0.056,1
0.356,-0.714,-0.197,1
0.28,-0.897,-0.497,1
0.196,-1.064,-0.46,1
0.081,-1.211,-0.492,1
-0.009,-1.171,-0.716,1
0.066,-1.006,-1.431,1
0.157,-0.876,-1.955,0
0.254,-0.615,-2.671,0
0.183,-0.608,-2.477,0
0,-0.644,-1.859,0
-0.136,-0.704,-1.416,0
-0.368,-0.759,-1.082,0
-0.541,-0.775,-1.347,0
-0.331,-0.472,-2.141,0
-0.088,-0.156,-2.541,0
0.018,0.147,-2.621,0
0.07,0.272,-2.674,0
0.079,0.483,-2.902,0
0.13,0.513,-2.655,0
0.047,0.438,-1.68,0
-0.015,0.293,-1.01,0
-0.206,0.107,-0.137,0
-0.421,-0.14,0.491,0
-0.481,-0.266,0.962,0
-0.367,-0.254,1.109,0
0.022,-0.046,0.881,0
0.153,0.113,0.717,0
0.242,0.306,0.638,0
0.296,0.433,0.429,0
0.273,0.665,0.431,0
0.447,0.709,0.587,0
0.5,0.645,1.158,0
0.481,0.541,1.708,0
0.383,0.43,2.005,0
0.401,0.382,2.023,0
-0.075,0.709,2.023,0
-0.496,1.04,1.444,0
-0.07,0.894,0.603,1
0.425,1.068,0.195,1
0.431,1.053,0.2,1
1.061,0.536,1.503,1
0.876,-0.135,3.178,1
0.573,-0.196,3.694,1
0.562,-0.57,4.051,1
0.717,-0.608,3.836,1
0.878,-0.528,3.04,1
0.782,-0.576,2.658,1
0.616,-0.604,2.071,1
0.497,-0.711,1.488,1
0.297,-0.878,0.898,1
0.343,-0.915,0.459,1
0.469,-0.961,0.062,1
0.555,-0.9,-0.202,1
0.575,-0.895,-0.203,1
0.833,-1.071,-0.244,1
0.999,-1.076,-0.176,1
1.141,-0.982,-0.462,1
1.054,-0.978,-0.773,1
0.879,-1.001,-0.991,0
0.82,-0.784,-1.777,0
0.861,-0.608,-2.333,0
0.858,-0.314,-2.749,0
0.826,-0.208,-2.582,0
0.804,-0.032,-2.393,0
0.795,0.076,-2.451,0
0.713,0.114,-2.296,0
0.549,0.158,-2.16,0
0.546,0.152,-2.158,0
0.247,0.152,-1.923,0
0.074,0.222,-1.862,0
0.042,0.338,-1.976,0
0.255,0.507,-2.404,0
0.359,0.718,-2.523,0
0.428,0.751,-2.496,0
0.424,0.733,-2.192,0
0.367,0.579,-1.323,0
0.263,0.494,-0.771,0
0.074,0.263,-0.271,0
-0.099,0.116,0.359,0
-0.172,0.024,0.955,0
-0.215,0.076,0.953,0
-0.307,0.13,0.588,0
-0.169,0.315,0.134,0
0.026,0.601,-0.141,0
0.194,0.678,-0.041,0
0.326,0.753,0.479,0
0.315,0.674,1.077,0
0.186,0.366,1.826,0
0.117,0.263,2.396,0
0.084,0.45,2.694,0
-0.164,1.018,2.106,0
-0.205,1.511,0.395,0
-0.265,1.567,0.022,0
-0.256,1.545,0.029,1
0.504,1.572,-0.554,1
0.736,1.302,1.547,1
0.488,0.675,2.59,1
0.052,-0.554,4.081,1
-0.034,-1.394,5.322,1
-0.365,-2.273,6.067,1
-0.687,-2.25,5.367,1
-0.774,-1.714,2.578,1
-0.921,-1.209,0.534,1
-0.871,-0.801,-1.577,1
-0.783,-0.382,-2.649,1
-0.518,-0.039,-2.404,1
-0.246,0.088,-1.509,1
-0.161,-0.084,-0.214,1
-0.105,-0.327,-0.027,1
0.1,-0.609,-0.03,1
0.216,-0.802,0.226,1
0.455,-0.942,0.582,1
0.512,-0.953,0.548,1
0.379,-0.959,-0.082,1
0.229,-0.898,-0.638,0
0.141,-0.682,-1.615,0
0.093,-0.474,-1.966,0
-0.073,-0.326,-2.39,0
-0.177,-0.198,-2.586,0
-0.243,-0.04,-2.454,0
-0.26,-0.017,-2.194,0
-0.508,-0.082,-1.647,0
-0.582,-0.02,-1.236,0
-0.439,0.129,-1.182,0
-0.394,0.287,-1.299,0
-0.426,0.31,-1.157,0
-0.51,0.318,-0.939,0
-0.373,0.415,-0.936,0
-0.277,0.475,-0.805,0
-0.396,0.424,-0.585,0
-0.578,0.284,-0.375,0
-0.632,0.234,0.1,0
-0.535,0.282,0.242,0
-0.25,0.398,0.084,0
-0.158,0.357,0.107,0
-0.356,0.311,0.652,0
-0.472,0.19,1.081,0
-0.41,0.254,1.38,0
-0.446,0.275,1.553,0
-0.443,0.255,1.558,0
-0.387,0.298,0.953,0
-0.214,0.278,1.178,0
-0.142,0.224,1.368,0
-0.102,0.465,1.487,0
-0.289,0.96,1.368,0
-0.218,1.095,0.716,0
-0.022,1.126,0.389,1
0.108,1.251,0.257,1
0.126,0.951,0.72,1
-0.239,0.208,2.233,1
-0.499,0.006,2.733,1
-0.626,-0.289,2.853,1
-0.375,-0.587,3.058,1
0.064,-0.864,3.633,1
0.11,-1.023,3.922,1
-0.002,-1.088,3.518,1
-0.137,-1.04,2.499,1
-0.266,-0.949,1.013,1
-0.215,-0.799,0.049,1
-0.061,-0.605,-0.673,1
0.001,-0.605,-1.238,1
-0.037,-0.628,-1.412,1
0.079,-0.766,-1.214,1
0.254,-0.745,-1.164,1
0.44,-0.742,-1.258,1
0.344,-0.924,-0.818,1
0.255,-1.04,-0.505,1
0.157,-1.078,-0.369,0
0.138,-0.982,-0.548,0
0.079,-0.785,-1.119,0
0.058,-0.631,-1.55,0
0.046,-0.427,-2.079,0
0.331,-0.101,-2.487,0
0.577,0.211,-2.824,0
0.355,0.274,-2.9,0
0.13,0.171,-2.778,0
0.173,0.138,-2.548,0
-0.129,-0.121,-1.354,0
-0.207,-0.212,-1.025,0
-0.165,-0.004,-0.718,0
-0.068,0.075,-0.559,0
-0.016,0.214,-0.685,0
-0.037,0.224,-0.93,0
0.002,0.344,-1.38,0
0.185,0.533,-1.602,0
0.191,0.523,-1.599,0
0.322,0.632,-1.166,0
0.329,0.627,-1.165,0
-0.191,0.138,-0.397,0
-0.381,0.166,0.206,0
-0.384,0.154,0.209,0
-0.31,0.384,-0.037,0
-0.073,0.593,-0.283,0
0.234,0.774,0.121,0
0.42,0.892,0.785,0
0.389,0.795,1.539,0
0.3,0.652,1.673,0
0.275,0.46,2.057,0
0.307,0.228,2.613,0
0.065,0.409,2.656,0
-0.346,0.818,1.527,1
-0.415,1.224,-0.243,1
-0.183,1.402,-1.172,1
0.161,1.703,-1.802,1
0.194,1.536,-0.968,1
-0.085,0.74,2.06,1
-0.197,-0.054,3.605,1
-0.453,-1.156,5.759,1
-0.246,-1.683,6.736,1
-0.003,-2.002,6.527,1
-0.127,-1.855,4.946,1
-0.236,-1.264,1.971,1
-0.176,-0.932,0.285,1
-0.145,-0.38,-1.982,1
-0.025,-0.07,-2.829,1
-0.146,0.049,-2.572,1
-0.212,0.059,-1.765,1
-0.259,-0.234,-0.872,1
-0.113,-0.415,-0.653,1
0.05,-0.67,-0.34,1
0.311,-0.711,-0.323,1
0.604,-0.757,-0.127,0
0.599,-0.832,-0.054,0
0.381,-0.901,-0.245,0
0.239,-0.864,-0.727,0
0.093,-0.738,-1.346,0
0.106,-0.595,-1.682,0
0.051,-0.414,-1.868,0
0.073,-0.271,-1.963,0
0.003,-0.109,-2.082,0
-0.064,-0.067,-2.193,0
-0.18,-0.046,-2.143,0
-0.205,0.038,-1.935,0
-0.164,0.181,-1.921,0
-0.138,0.218,-1.87,0
-0.075,0.344,-1.669,0
-0.152,0.383,-1.308,0
-0.167,0.307,-0.835,0
-0.241,0.274,-0.295,0
-0.367,0.214,0.373,0
-0.428,0.249,0.671,0
-0.417,0.236,1.013,0
-0.414,0.271,0.669,0
-0.223,0.373,0.063,0
0.021,0.459,-0.069,0
0.118,0.396,0.338,0
-0.084,0.279,0.725,0
-0.186,0.318,1.035,0
-0.073,0.362,1.131,0
0.061,0.395,1.493,0
0.078,0.37,1.821,0
0.143,0.365,1.783,0
0.254,0.376,1.706,0
0.13,0.851,1.702,0
-0.097,1.179,1.254,1
-0.089,1.147,1.263,1
0.253,1.154,0.093,1
0.266,1.139,0.097,1
0.333,0.436,2.085,1
-0.139,-0.452,3.341,1
-0.622,-0.761,3.797,1
-0.734,-1.16,3.968,1
-0.496,-1.034,3.672,1
-0.025,-0.758,2.805,1
0.082,-0.481,2.077,1
-0.067,-0.388,1.113,1
-0.247,-0.405,0.397,1
-0.345,-0.451,-0.248,1
-0.229,-0.517,-0.499,1
-0.169,-0.599,-0.823,1
-0.051,-0.634,-0.863,1
0.105,-0.76,-1.036,1
0.237,-0.856,-0.913,1
0.426,-0.989,-0.785,1
0.501,-1.043,-0.692,1
0.561,-1.103,-0.489,0
0.617,-1.037,-0.501,0
0.496,-0.932,-0.631,0
0.42,-0.849,-0.858,0
0.3,-0.661,-1.266,0
0.229,-0.553,-1.525,0
0.208,-0.361,-1.97,0
0.272,-0.212,-2.331,0
0.413,-0.088,-2.629,0
0.471,0.056,-2.621,0
0.425,0.124,-2.406,0
0.483,0.267,-2.221,0
0.571,0.425,-2.115,0
0.419,0.403,-1.882,0
0.133,0.351,-1.645,0
0.011,0.346,-1.727,0
0.017,0.48,-1.876,0
0.029,0.523,-1.788,0
0.026,0.518,-1.489,0
0.1,0.524,-1.142,0
0.083,0.517,-1.141,0
0.314,0.415,-0.173,0
0.312,0.376,0.527,0
0.241,0.352,1.113,0
-0.012,0.348,1.165,0
-0.27,0.322,0.676,0
-0.402,0.417,0.022,0
-0.265,0.567,0.022,0
-0.256,0.538,0.03,0
0.137,0.72,0.738,0
0.135,0.694,0.745,0
0.088,0.456,2.002,0
-0.028,0.446,2.414,0
-0.449,0.769,2.18,1
-0.44,0.742,2.188,1
-0.608,1.202,0.3,1
-0.356,1.218,0.277,1
-0.028,1.121,0.293,1
0.197,0.685,1.596,1
0.107,0.105,2.774,1
-0.18,-0.579,3.825,1
-0.219,-1.075,4.425,1
-0.248,-1.617,4.404,1
-0.316,-1.665,3.721,1
-0.349,-1.29,2.372,1
-0.268,-0.824,1.003,1
-0.174,-0.344,-0.399,1
-0.226,-0.239,-1.156,1
-0.394,-0.072,-1.341,1
-0.487,-0.094,-1.054,1
-0.491,-0.1,-0.518,1
-0.327,-0.115,-0.387,1
-0.001,-0.247,-0.399,1
0.197,-0.434,-0.178,1
0.645,-0.611,0.197,0
0.786,-0.619,0.337,0
0.67,-0.694,0.18,0
0.412,-0.756,-0.268,0
0.131,-0.769,-1.096,0
-0.114,-0.705,-1.599,0
-0.292,-0.566,-2.051,0
-0.262,-0.44,-2.4,0
-0.257,-0.367,-2.407,0
-0.399,-0.344,-2.135,0
-0.333,-0.13,-2.11,0
-0.202,0.014,-2.086,0
0.155,0.423,-1.92,0
0.049,0.472,-2.125,0
-0.362,0.358,-2.128,0
-0.598,0.281,-1.665,0
-0.825,0.157,-0.916,0
-0.942,0.056,-0.62,0
-1.091,-0.026,-0.39,0
-1.072,-0.063,-0.191,0
-0.797,0.013,0.649,0
-0.516,0.106,0.907,0
-0.194,0.275,1.031,0
-0.074,0.255,1.14,0
-0.098,0.29,1.15,0
-0.171,0.307,1.187,0
-0.361,0.317,1.591,0
-0.365,0.39,1.763,0
-0.266,0.502,1.651,0
-0.178,0.487,1.457,0
0.242,0.539,1.324,0
0.437,0.625,1.322,0
0.43,0.577,1.337,0
0.122,1.161,0.35,0
0.283,1.116,-0.233,0
0.254,1.016,-0.446,0
-0.05,0.625,-0.262,1
-0.259,0.167,0.527,1
-0.497,-0.604,2.13,1
-0.833,-0.82,2.587,1
-1.036,-1.057,2.516,1
-1.006,-1.023,2.505,1
-0.436,-1.019,2.108,1
-0.13,-0.861,1.87,1
-0.157,-0.741,1.258,1
-0.266,-0.755,0.692,1
-0.435,-0.851,0.369,1
-0.537,-0.916,0.358,1
-0.494,-0.887,0.351,1
-0.872,-1.191,0.065,1
-0.371,-1.07,-0.007,1
0.137,-0.888,-0.19,1
0.632,-0.707,-0.458,1
0.756,-0.67,-0.593,1
0.656,-0.757,-0.357,1
0.509,-0.857,-0.142,1
0.468,-0.883,-0.009,1
0.463,-0.796,-0.072,0
0.25,-0.801,-0.542,0
0.143,-0.683,-1.135,0
0.244,-0.395,-1.546,0
0.37,-0.234,-1.7,0
0.414,-0.094,-1.877,0
0.553,0.07,-1.996,0
0.881,0.361,-1.844,0
1.058,0.529,-1.795,0
0.936,0.586,-1.775,0
0.721,0.461,-1.697,0
0.587,0.426,-1.699,0
0.437,0.378,-1.392,0
0.437,0.367,-1.389,0
0.119,0.299,-1.579,0
0.294,0.457,-1.873,0
0.434,0.544,-1.803,0
0.514,0.535,-1.299,0
0.527,0.509,-0.653,0
0.373,0.349,0.295,0
0.117,0.206,0.923,0
-0.241,-0.031,1.243,0
-0.399,-0.027,0.83,0
-0.246,0.214,0.148,0
0.007,0.353,-0.176,0
0.048,0.417,-0.09,0
0.089,0.4,0.117,0
0.207,0.351,0.943,0
0.316,0.277,1.614,0
0.422,0.243,1.619,0
0.276,0.301,1.423,0
0.28,0.268,1.434,0
-0.48,1.125,0.274,0
-0.237,1.326,-0.632,0
-0.068,1.559,-0.919,0
0.317,1.197,-0.11,1
0.23,0.659,1.856,1
0.186,-0.271,3.78,1
0.116,-0.845,5.246,1
0.236,-1.665,6.733,1
0.107,-1.965,6.899,1
-0.272,-1.887,5.164,1
-0.331,-1.392,2.413,1
-0.188,-0.621,-0.138,1
-0.096,-0.346,-1.677,1
-0.437,-0.171,-2.537,1
-0.617,-0.207,-2.437,1
-0.41,-0.048,-1.781,1
-0.066,-0.03,-1.326,1
0.221,-0.289,-0.819,1
0.316,-0.623,-0.387,1
0.387,-0.994,0.129,1
0.338,-1.174,0.312,1
0.336,-1.354,0.399,1
0.205,-1.385,0.218,1
0.175,-1.251,-0.256,1
0.096,-1.071,-0.636,0
-0.002,-0.784,-1.335,0
-0.063,-0.527,-1.731,0
-0.036,-0.319,-2.016,0
-0.077,-0.164,-2.068,0
-0.072,-0.038,-1.904,0
0.06,0.105,-1.87,0
0.148,0.308,-1.823,0
0.262,0.397,-1.91,0
0.142,0.526,-1.633,0
0.057,0.549,-1.409,0
-0.23,0.51,-1.033,0
-0.485,0.461,-0.857,0
-0.539,0.507,-0.944,0
-0.614,0.553,-0.728,0
-0.627,0.549,-0.727,0
-0.626,0.477,-0.17,0
-0.436,0.616,0,0
-0.315,0.604,0.444,0
-0.463,0.457,0.854,0
-0.693,0.414,0.994,0
-0.729,0.395,1.113,0
-0.688,0.329,1.134,0
-0.636,0.205,1.296,0
-0.462,0.179,1.271,0
0.09,0.374,1.227,0
0.371,0.416,1.322,0
0.465,0.54,1.526,0
0.281,0.879,1.363,0
0.34,1.38,0.495,0
0.57,1.407,0.29,0
0.675,1.369,0.537,1
0.725,1.301,0.779,1
0.394,0.781,1.348,1
-0.122,0.552,1.631,1
-0.114,0.549,1.632,1
-0.046,0.236,1.399,1
0.212,-0.119,2.013,1
0.19,-0.418,2.641,1
-0.316,-0.815,3.028,1
-0.612,-1.113,2.888,1
-0.943,-1.377,2.142,1
-0.9,-1.351,1.157,1
-0.749,-1.228,0.201,1
-0.633,-1.083,-0.362,1
-0.582,-1.069,-0.365,1
-0.215,-0.856,-1.407,1
-0.006,-0.921,-1.197,1
0.01,-0.908,-1.2,1
0.041,-1.263,0.243,1
0.179,-1.321,0.519,1
0.483,-1.132,-0.16,1
0.727,-0.927,-0.768,0
0.889,-0.599,-1.181,0
0.856,-0.534,-1.256,0
0.861,-0.361,-1.669,0
0.911,-0.156,-2.229,0
0.799,-0.022,-2.573,0
0.799,0.047,-2.613,0
0.736,0.083,-1.892,0
0.643,0.066,-1.533,0
0.366,0.053,-1.65,0
0.34,0.053,-1.683,0
0.237,0.103,-1.057,0
0.182,0.109,-0.805,0
0.255,0.269,-0.982,0
0.255,0.378,-1.251,0
0.382,0.514,-1.512,0
0.447,0.558,-1.512,0
0.429,0.541,-1.181,0
0.324,0.474,-0.926,0
0.253,0.398,-0.565,0
0.168,0.365,-0.051,0
0.163,0.356,-0.048,0
-0.435,0.22,0.555,0
-0.478,0.291,0.293,0
-0.35,0.381,0.284,0
-0.196,0.508,0.47,0
-0.124,0.588,0.721,0
-0.205,0.45,1.218,0
-0.231,0.375,1.506,0
-0.181,0.315,1.957,0
-0.067,0.179,2.056,0
-0.186,0.102,2.145,0
-0.615,0.3,1.739,0
-0.605,0.261,1.754,1
-0.914,0.891,-0.083,1
-0.628,1.1,-0.167,1
-0.293,1.163,0.201,1
-0.119,1.062,1.191,1
-0.044,0.902,1.867,1
0.272,0.436,2.36,1
0.516,0.088,2.675,1
0.734,-0.574,3.313,1
0.59,-0.908,3.735,1
0.052,-1.008,2.725,1
-0.283,-0.995,1.145,1
-0.738,-0.837,-0.867,1
-0.874,-0.878,-1.147,1
-0.941,-0.725,-1.201,1
-1.067,-0.685,-0.913,1
-1.103,-0.7,-0.643,1
-0.949,-0.663,-0.513,1
-0.989,-0.645,-0.52,1
-0.478,-1.017,-0.438,1
-0.516,-1.002,-0.443,1
-0.012,-1.122,-0.401,0
-0.075,-1.126,-0.565,0
-0.118,-1.06,-0.804,0
-0.097,-0.876,-1.282,0
-0.098,-0.718,-1.635,0
-0.124,-0.564,-1.835,0
-0.157,-0.437,-1.906,0
-0.177,-0.412,-1.172,0
-0.288,-0.416,-0.817,0
-0.296,-0.226,-1.017,0
-0.026,0.013,-1.178,0
0.045,0.234,-1.233,0
-0.159,0.221,-1.369,0
-0.391,0.24,-1.347,0
-0.441,0.303,-1.173,0
-0.492,0.287,-1.107,0
-0.476,0.319,-1.064,0
-0.357,0.405,-0.793,0
-0.134,0.49,-0.467,0
0.033,0.614,0.04,0
0.172,0.65,0.142,0
0.236,0.599,0.227,0
0.133,0.417,0.549,0
0.127,0.406,0.552,0
-0.061,-0.021,1.202,0
-0.317,-0.237,1.373,0
-0.423,-0.289,1.453,0
-0.215,-0.203,1.679,0
0.02,-0.091,1.869,0
0.443,0.105,1.759,0
0.716,0.434,1.59,0
0.503,1.001,1.073,0
0.301,1.418,0.359,0
0.897,1.615,0.05,0
0.872,1.605,0.149,0
-0.016,0.911,0.634,1
-0.573,0.254,1.626,1
-1.122,-0.044,2.674,1
-1.126,-0.061,2.703,1
-0.518,-0.145,2.317,1
0.071,-0.401,2.423,1
0.219,-0.866,3.565,1
-0.006,-1.309,4.634,1
-0.383,-1.64,4.751,1
-0.393,-1.543,3.749,1
-0.039,-1.199,1.273,1
0.357,-0.844,-0.261,1
0.758,-0.581,-1.235,1
1.032,-0.427,-1.823,1
1.209,-0.312,-2.268,1
1.23,-0.37,-2.146,1
1.178,-0.672,-1.554,1
1.135,-0.831,-1.222,1
0.948,-1.021,-0.777,1
0.72,-1.124,-0.816,1
0.432,-1.242,-0.895,1
0.359,-1.166,-1.007,0
0.374,-0.99,-1.284,0
0.418,-0.836,-1.524,0
0.54,-0.524,-2.1,0
0.631,-0.343,-2.55,0
0.672,-0.161,-2.888,0
0.604,-0.185,-2.906,0
0.511,-0.31,-2.38,0
0.338,-0.441,-1.577,0
0.094,-0.635,-0.702,0
-0.007,-0.62,-0.678,0
0.062,-0.425,-1.017,0
0.122,-0.232,-1.181,0
0.128,-0.233,-1.18,0
0.199,0.054,-1.355,0
0.364,0.467,-1.81,0
0.491,0.562,-1.937,0
0.63,0.722,-1.832,0
0.767,0.683,-1.514,0
0.595,0.431,-0.789,0
0.376,0.382,-0.135,0
0.372,0.385,-0.136,0
0.035,0.402,0.717,0
-0.145,0.577,1.022,0
-0.176,0.698,0.988,0
-0.276,0.804,1.062,0
-0.32,0.823,1.362,0
-0.055,0.914,1.481,0
0.211,0.996,1.423,0
0.485,0.968,1.285,0
0.374,0.902,1.329,0
0.047,1.416,1.435,0
-0.064,1.65,0.726,0
-0.243,1.675,0.133,1
-0.154,1.609,0.044,1
-0.078,1.368,0.058,1
-0.169,0.901,1.177,1
-0.138,-0.1,3.197,1
-0.254,-0.875,4.854,1
-0.069,-1.702,6.552,1
0.113,-1.973,6.673,1
0.432,-1.758,5.055,1
0.625,-1.24,2.938,1
0.853,-0.512,-0.121,1
0.934,-0.197,-1.74,1
0.49,-0.017,-2.806,1
0.07,-0.202,-2.686,1
-0.425,-0.457,-1.593,1
-0.499,-0.516,-0.759,1
-0.301,-0.55,-0.374,1
-0.165,-0.601,-0.508,1
0.221,-0.564,-0.733,1
0.492,-0.623,-0.39,1
0.491,-0.844,0.228,1
0.384,-0.976,0.328,0
0.245,-1.003,0,0
0.357,-0.842,-0.525,0
0.352,-0.625,-1.149,0
0.228,-0.592,-1.378,0
0.167,-0.422,-1.711,0
0.126,-0.391,-1.876,0
0.26,-0.163,-1.982,0
0.435,0.054,-2.014,0
0.759,0.26,-2.131,0
0.836,0.358,-2.058,0
0.715,0.347,-1.778,0
0.522,0.288,-1.392,0
0.398,0.163,-1.02,0
0.315,0.111,-0.833,0
0.285,0.039,-0.667,0
0.348,0.132,-0.749,0
0.382,0.303,-0.727,0
0.253,0.309,-0.51,0
0.181,0.193,-0.334,0
-0.009,0.154,0.112,0
-0.01,0.073,0.358,0
0.063,0.147,0.418,0
-0.041,0.138,0.547,0
-0.115,0.157,0.546,0
-0.188,0.193,0.823,0
-0.264,0.153,0.887,0
-0.18,0.174,0.956,0
0.108,0.299,0.921,0
0.358,0.491,1.038,0
0.383,0.619,0.926,0
0.37,0.592,0.934,0
0.474,1.495,0.188,0
0.774,1.444,0.085,0
0.647,1.335,0.416,1
0.644,1.338,0.415,1
0.094,0.208,2.311,1
-0.123,-0.108,3.509,1
0.039,-0.233,3.764,1
0.563,-0.49,4.174,1
0.848,-0.593,4.512,1
0.755,-0.906,4.458,1
0.532,-1.015,4.069,1
0.295,-1.05,2.511,1
0.241,-0.973,1.129,1
0.353,-0.746,-0.12,1
0.541,-0.648,-0.819,1
0.716,-0.568,-1.718,1
0.715,-0.554,-1.86,1
0.549,-0.89,-1.427,1
0.469,-1.008,-0.976,1
0.373,-1.246,-0.154,1
0.415,-1.197,-0.11,1
0.507,-1.116,-0.329,1
0.634,-0.947,-0.583,1
0.772,-0.646,-1.038,0
0.78,-0.443,-1.516,0
0.688,-0.24,-2.154,0
0.723,-0.114,-2.647,0
0.705,0.094,-2.826,0
0.642,0.118,-2.786,0
0.321,-0.043,-2.803,0
0.064,-0.16,-2.436,0
-0.036,-0.149,-2.184,0
0.04,-0.017,-2.034,0
0.011,0.005,-1.633,0
-0.076,0.038,-1.405,0
-0.075,0.107,-1.145,0
0.03,0.18,-1.025,0
0.269,0.34,-1.075,0
0.337,0.374,-1.045,0
0.325,0.402,-0.99,0
0.323,0.429,-1.052,0
0.383,0.426,-1.155,0
0.422,0.366,-0.814,0
0.279,0.276,-0.088,0
0.218,0.226,0.369,0
0.238,0.286,0.867,0
0.151,0.295,1.228,0
-0.039,0.354,1.265,0
-0.077,0.397,1.359,0
0.016,0.497,1.772,0
0.251,0.639,1.832,0
0.552,0.813,1.6,0
0.387,0.767,1.637,0
-0.457,0.821,1.576,0
-0.922,1.013,1.018,1
-0.9,0.99,1.026,1
-1.048,1.19,-0.033,1
-0.915,1.253,-0.539,1
-0.601,1.285,-0.22,1
-0.026,0.99,1.345,1
0.398,0.413,2.78,1
0.411,-0.337,4.349,1
0.35,-1.086,5.266,1
0.066,-1.47,5.31,1
-0.123,-1.365,4.241,1
-0.426,-1.049,1.172,1
-0.556,-0.703,-0.465,1
-0.544,-0.417,-1.383,1
-0.359,-0.181,-1.886,1
-0.193,0.095,-1.358,1
-0.058,0.086,-0.569,1
0.052,-0.128,-0.527,1
0.007,-0.424,-0.496,1
-0.067,-1.036,0.35,1
0.029,-1.138,0.939,1
0.078,-1.266,1.287,0
-0.094,-1.416,0.912,0
-0.206,-1.323,0.103,0
-0.151,-1.153,-0.582,0
-0.056,-0.809,-1.472,0
0.009,-0.631,-2.132,0
0.073,-0.379,-3.125,0
0.108,-0.257,-3.357,0
0,-0.213,-2.809,0
-0.107,-0.273,-2.259,0
-0.393,-0.322,-1.479,0
-0.466,-0.285,-1.349,0
-0.292,0.022,-1.582,0
-0.262,0.15,-1.621,0
-0.158,0.228,-1.3,0
-0.144,0.276,-0.98,0
-0.199,0.191,-0.459,0
-0.365,0.089,-0.264,0
-0.483,0.007,-0.165,0
-0.665,-0.014,-0.143,0
-0.84,-0.112,-0.121,0
-0.801,-0.07,-0.174,0
-0.54,-0.01,-0.08,0
-0.393,0.023,0.217,0
-0.269,0.208,0.66,0
-0.301,0.277,0.89,0
-0.37,0.316,1.181,0
-0.405,0.303,1.289,0
-0.371,0.304,1.446,0
-0.192,0.23,1.304,0
0.228,0.537,0.969,0
0.136,0.851,0.78,0
0.155,1.555,-0.326,0
0.415,1.594,-0.815,0
0.664,1.48,-0.821,0
0.404,1.209,0.194,0
-0.208,0.227,2.167,1
-0.762,-0.28,3.216,1
-1.194,-0.589,3.924,1
-0.886,-0.731,4.074,1
-0.243,-0.887,3.808,1
0.082,-0.837,3.849,1
-0.05,-1.079,4,1
-0.425,-1.159,3.769,1
-0.76,-1.187,2.428,1
-0.799,-1.14,1.485,1
-0.63,-0.953,0.83,1
-0.406,-0.862,0.623,1
-0.143,-0.676,0.171,1
0.053,-0.512,-0.259,1
0.374,-0.413,-0.906,1
0.693,-0.297,-1.212,1
0.987,-0.225,-1.31,1
0.958,-0.38,-0.979,1
0.891,-0.551,-0.887,1
0.764,-0.674,-0.807,1
0.579,-0.841,-0.493,1
0.491,-0.795,-0.742,0
0.532,-0.538,-1.713,0
0.477,-0.404,-2.434,0
0.396,-0.339,-3.124,0
0.445,-0.174,-3.28,0
0.465,-0.184,-3.277,0
0.479,-0.061,-2.691,0
0.308,-0.198,-2.097,0
0.184,-0.265,-2.074,0
-0.119,-0.387,-1.754,0
-0.32,-0.558,-1.435,0
-0.387,-0.393,-1.675,0
-0.221,-0.233,-2.017,0
0.062,0.128,-2.303,0
0.222,0.232,-2.291,0
0.298,0.322,-2.036,0
0.307,0.274,-1.57,0
0.303,0.281,-1.572,0
0.292,0.089,-0.133,0
0.323,0.051,0.314,0
0.251,0.017,1.028,0
0.168,-0.05,1.754,0
0.15,0.13,1.612,0
0.313,0.352,1.319,0
0.459,0.572,1.233,0
0.432,0.71,1.065,0
0.516,0.625,1.247,0
0.485,0.743,1.345,0
0.508,0.455,1.919,0
0.278,0.279,2.673,0
0.137,0.564,2.48,0
-0.141,1.096,1.265,0
-0.377,1.195,0.608,0
-0.269,1.339,-0.229,1
0.006,1.605,-0.596,1
0.395,1.655,-0.107,1
0.492,1.304,0.967,1
0.072,0.282,2.79,1
-0.52,-0.796,4.635,1
-1.095,-1.924,7.164,1
-1.156,-2.236,7.839,1
-1.31,-2.052,5.952,1
-0.968,-1.276,3.094,1
-0.252,-0.315,0.759,1
-0.027,0.164,-1.002,1
-0.215,0.544,-2.479,1
-0.324,0.567,-2.609,1
-0.336,0.575,-1.942,1
-0.226,0.357,-1.44,1
-0.187,-0.139,-0.943,1
-0.197,-0.513,-0.579,1
-0.257,-1.016,-0.154,1
-0.3,-1.275,0.026,1
-0.306,-1.454,0.087,1
-0.297,-1.457,-0.311,0
-0.173,-1.185,-1.164,0
-0.017,-1.011,-1.842,0
0.005,-0.76,-2.287,0
-0.044,-0.706,-2.64,0
-0.191,-0.564,-3.076,0
-0.231,-0.513,-3.065,0
-0.258,-0.45,-2.609,0
-0.406,-0.475,-2.286,0
-0.461,-0.354,-2.272,0
-0.49,-0.254,-2.545,0
-0.579,-0.098,-2.689,0
-0.635,-0.065,-2.588,0
-0.769,-0.083,-2.095,0
-0.776,-0.1,-1.722,0
-0.768,-0.149,-1.283,0
-0.764,-0.097,-0.653,0
-0.813,-0.152,-0.143,0
-0.937,-0.185,0.097,0
-0.948,-0.179,0.095,0
-0.918,-0.082,0.03,0
-0.484,0.063,-0.039,0
-0.358,0.169,0.287,0
-0.303,0.247,0.882,0
-0.296,0.25,1.359,0
-0.233,0.296,1.933,0
-0.067,0.401,2.143,0
0.361,0.691,1.996,0
0.5,0.868,1.968,0
0.411,1.385,1.81,0
0.435,1.716,1.023,0
0.688,1.907,0.222,0
0.844,2.03,0.292,0
0.356,1.493,0.861,1
-0.248,0.602,2.146,1
-0.24,0.644,2.133,1
-0.941,-0.54,4.334,1
-1.022,-1.14,5.053,1
-0.822,-1.39,5.771,1
-0.749,-1.546,5.832,1
-0.827,-1.591,4.959,1
-0.738,-1.352,3.11,1
-0.394,-1.005,1.555,1
0.069,-0.655,0.149,1
0.39,-0.413,-1.005,1
0.752,-0.21,-2.013,1
0.965,-0.217,-2.361,1
1.277,-0.292,-2.264,1
1.34,-0.468,-1.659,1
1.316,-0.898,-0.777,1
1.167,-1.081,-0.61,1
0.836,-1.336,-0.389,1
0.673,-1.525,-0.08,1
0.526,-1.524,-0.334,1
0.536,-1.386,-0.929,0
0.718,-1.07,-2.075,0
0.957,-0.656,-2.879,0
1.187,-0.224,-3.478,0
1.216,-0.023,-3.911,0
1.144,0.172,-4.355,0
1.31,0.207,-4.591,0
1.104,0.21,-3.441,0
0.811,0.07,-2.506,0
0.224,-0.204,-2.221,0
0.215,-0.197,-2.224,0
0.168,-0.124,-1.917,0
0.361,0.064,-1.368,0
0.338,0.154,-0.683,0
0.244,0.107,-0.581,0
0.265,0.107,-0.25,0
0.341,0.166,0.291,0
0.369,0.2,0.642,0
0.331,0.096,0.662,0
0.185,0.149,1.133,0
0.098,0.155,1.264,0
-0.151,0.14,1.007,0
-0.16,0.141,1.09,0
-0.16,0.237,1.195,0
0.063,0.352,1.037,0
0.421,0.541,0.987,0
0.606,0.566,1.442,0
0.851,0.588,2.09,0
0.559,0.435,2.231,0
-0.266,0.568,2.115,0
-0.584,0.956,1.565,0
-0.546,1.366,0.448,1
-0.389,1.798,-0.522,1
-0.014,1.921,-1.623,1
0.564,1.849,-1.368,1
1.081,1.116,1.411,1
0.991,0.181,3.451,1
0.566,-0.975,6.035,1
0.246,-1.864,7.166,1
-0.209,-2.327,6.591,1
-0.412,-2.186,4.649,1
-0.431,-1.561,1.519,1
-0.203,-1.014,-0.22,1
-0.23,-0.455,-2.39,1
-0.443,-0.309,-3.57,1
-0.531,-0.126,-3.568,1
-0.421,-0.048,-2.82,1
-0.448,-0.032,-2.826,1
0.094,-0.305,-1.067,1
0.136,-0.758,-0.558,1
0.219,-0.95,-0.063,1
0.194,-1.239,0.642,1
0.101,-1.413,0.866,0
0.192,-1.291,0.545,0
0.31,-1.077,-0.153,0
0.318,-1.06,-0.157,0
0.294,-0.666,-1.364,0
0.311,-0.434,-2.425,0
0.302,-0.216,-2.964,0
0.214,-0.059,-2.771,0
0.153,-0.062,-2.577,0
0.144,-0.085,-2.182,0
-0.02,-0.095,-1.732,0
-0.188,-0.059,-1.349,0
-0.265,-0.096,-1.428,0
-0.112,0.125,-1.264,0
-0.102,0.176,-0.906,0
-0.327,0.059,-0.532,0
-0.409,0.104,-0.75,0
-0.289,0.205,-0.471,0
-0.209,0.26,0.047,0
-0.379,0.3,0.456,0
-0.412,0.167,0.414,0
-0.659,0.015,0.87,0
-0.684,-0.031,1.15,0
-0.688,-0.055,1.13,0
-0.562,-0.146,0.757,0
-0.487,0.086,0.85,0
-0.173,0.268,0.69,0
0.271,0.434,0.601,0
0.692,0.532,1.236,0
0.682,0.579,1.826,0
0.376,0.599,1.739,0
0.058,1.235,1.1,0
0.068,1.441,0.771,0
0.243,1.643,-0.212,1
0.321,1.626,-0.467,1
0.43,1.277,0.242,1
0.273,0.764,1.431,1
-0.342,0.02,2.823,1
-0.862,-0.365,3.347,1
-1.002,-0.912,4.28,1
-0.835,-1.158,5.076,1
-0.747,-1.378,5.367,1
-0.766,-1.326,4.695,1
-0.716,-1.163,2.887,1
-0.491,-0.916,1.225,1
0.023,-0.536,-0.29,1
0.192,-0.467,-0.755,1
0.233,-0.488,-1.408,1
0.211,-0.558,-1.829,1
0.246,-0.773,-1.882,1
0.442,-0.89,-1.283,1
0.651,-1.114,0.155,1
0.734,-1.141,0.829,1
0.718,-1.192,1.074,1
0.725,-1.086,0.735,0
0.589,-0.936,-0.049,0
0.396,-0.788,-0.724,0
0.416,-0.806,-0.719,0
0.184,-0.39,-1.949,0
0.334,-0.087,-2.839,0
0.397,0.069,-3.343,0
0.48,0.208,-3.586,0
0.456,0.249,-3.231,0
0.295,0.178,-2.442,0
0.134,0.027,-1.87,0
0.009,-0.005,-1.592,0
-0.062,-0.034,-1.337,0
-0.088,0.027,-1.206,0
-0.104,0.007,-1.216,0
-0.081,0.039,-0.915,0
-0.09,0.068,-0.675,0
0.143,0.133,-0.796,0
0.296,0.259,-0.917,0
0.341,0.158,-0.896,0
0.279,0.034,-0.782,0
0.078,-0.298,-0.089,0
0.115,-0.328,0.458,0
0.296,-0.219,0.641,0
0.246,-0.166,0.607,0
0.373,0.055,0.594,0
0.476,0.214,0.714,0
0.54,0.321,1.091,0
0.523,0.331,1.568,0
0.427,0.166,2.004,0
0.427,0.148,2.317,0
0.168,0.78,2.193,0
-0.132,1.232,1.232,0
-0.311,1.481,-0.081,0
0.086,1.584,-0.792,0
0.58,1.529,-0.785,1
0.735,1.047,0.755,1
0.867,0.189,2.97,1
0.649,-0.404,4.293,1
0.575,-1.343,5.876,1
0.598,-1.711,6.124,1
0.233,-1.669,4.828,1
-0.011,-1.338,2.595,1
-0.299,-0.736,0.105,1
-0.317,-0.524,-1.582,1
-0.4,-0.197,-3.091,1
-0.527,-0.115,-3.077,1
-0.603,-0.15,-2.178,1
-0.503,-0.247,-1.51,1
-0.151,-0.486,-1.097,1
-0.031,-0.635,-0.933,1
0.165,-0.948,-0.666,1
0.296,-1.034,-0.625,1
0.27,-1.172,-0.603,1
0.195,-1.239,-0.676,1
0.011,-1.355,-0.836,1
-0.172,-1.298,-0.93,0
-0.282,-1.239,-1.312,0
-0.307,-1.048,-1.866,0
-0.326,-0.806,-2.105,0
-0.196,-0.662,-2.108,0
0.025,-0.154,-2.253,0
0.036,-0.133,-2.171,0
0.028,0.003,-2.198,0
-0.013,0.131,-1.997,0
-0.004,0.165,-1.506,0
-0.101,0.175,-1.208,0
0.037,0.129,-0.678,0
-0.561,0.2,0.086,0
-0.287,-0.049,0.537,0
-0.676,0.021,0.757,0
-0.548,0.06,0.38,0
-0.223,-0.094,0.293,0
-0.407,-0.056,-0.153,0
-0.507,-0.047,-0.474,0
-0.052,0.129,-0.676,0
0.059,0.22,-0.761,0
0.189,0.293,-0.485,0
0.058,0.28,0.343,0
0.17,0.278,1.311,0
-0.046,0.064,1.948,0
0.055,0.372,2.343,0
0.177,0.599,2.468,0
0.237,0.753,1.978,0
0.568,0.813,1.509,0
1.115,2.446,1.264,0
-0.012,1.363,0.914,0
-0.605,0.255,0.247,1
-0.178,0.525,0.873,1
-0.196,0.197,2.228,1
-0.539,-0.537,3.474,1
-0.405,-1.065,4.064,1
0.019,-0.451,3.68,1
0.068,0.04,3.142,1
0.401,0.749,3.67,1
0.343,0.176,0.272,1
-0.155,-0.712,-0.753,1
-0.834,-1.495,-0.681,1
-0.368,-1.136,-1.134,1
0.372,-0.882,-2.128,1
0.224,-0.33,-1.37,1
0.053,-0.368,0.065,1
-0.13,-0.778,1.404,1
0.064,-0.846,1.466,1
-0.27,-0.852,1.056,1
-0.93,-0.548,1.2,1
0.594,-1.756,-2.822,1
1.333,-2.053,-4.057,1
1.087,-1.226,-0.485,0
0.751,-0.713,0.137,0
0.758,-0.857,-1.462,0
0.765,-0.838,-2.867,0
0.998,-0.504,-2.886,0
0.943,-0.196,-2.2,0
0.812,0.064,-1.5,0
0.709,0.305,-0.887,0
0.534,0.376,-0.803,0
0.613,0.627,-1.249,0
0.567,0.863,-1.808,0
0.446,1.198,-1.536,0
0.19,1.172,-0.959,0
0.16,0.688,-0.141,0
0.175,0.333,0.149,0
0.171,-0.058,0.263,0
0.065,-0.175,0.192,0
0.171,-0.107,-0.234,0
0.201,-0.167,-0.292,0
0.175,-0.21,-0.332,0
0.214,-0.135,-0.331,0
0.229,0.085,-0.563,0
0.069,0.398,-0.291,0
-0.147,0.726,0.257,0
-0.351,0.73,0.322,0
-0.321,0.251,0.741,0
0.101,0.033,1.267,0
0.861,0.017,1.943,0
1.126,-0.031,2.147,0
0.967,0.311,2.114,0
0.641,0.463,2.14,0
0.241,0.616,2.104,1
0.218,0.701,1.858,1
0.477,0.91,1.218,1
0.346,0.742,0.379,1
-0.096,0.645,0.237,1
-0.631,0.833,0.418,1
-1.751,0.614,0.57,1
-1.879,0.276,0.489,1
-0.89,0.202,0.536,1
-0.065,-0.036,1.515,1
1.53,-0.549,3.039,1
2.194,-1.09,3.986,1
2.423,-1.652,4.466,1
2.038,-1.523,3.582,1
0.647,-1.099,2.208,1
-0.366,-0.94,0.689,1
-0.816,-0.906,-1.112,1
-0.919,-0.824,-1.924,1
-0.845,-0.566,-2.221,1
-0.47,-0.3,-1.773,1
-0.069,-0.491,-0.673,1
0.062,-0.907,-0.12,0
-0.042,-1.171,0.082,0
0.121,-1.305,0.143,0
0.405,-1.325,-0.218,0
0.506,-1.092,-0.447,0
0.697,-0.553,-0.849,0
0.642,-0.318,-1.44,0
0.298,-0.26,-2.237,0
-0.248,-0.484,-2.658,0
-0.42,-0.626,-3.084,0
-0.49,-0.574,-3.242,0
-0.38,-0.485,-2.922,0
-0.089,-0.316,-2.548,0
0.111,-0.053,-1.861,0
0.305,0.075,-1.189,0
0.683,0.275,-0.919,0
0.591,0.371,-1.061,0
-0.174,0.296,-1.027,0
-0.514,0.27,-0.783,0
-0.735,0.276,-0.392,0
-0.823,0.269,-0.37,0
-0.661,0.47,-0.689,0
-0.258,0.705,-0.935,0
-0.218,0.725,-0.938,0
0.797,1.164,-0.387,0
0.618,0.782,0.815,0
0.162,0.31,1.881,0
0.17,0.324,1.879,0
-0.935,-0.416,3.112,0
-0.705,-0.284,2.563,0
-0.215,0.141,2.019,0
0.015,0.321,1.013,0
0.109,0.436,0.349,0
0.259,1.141,0.164,0
0.266,1.627,0.139,0
0.887,1.991,-0.562,0
1.375,2.151,-1.053,0
1.637,1.9,-0.704,1
1.57,1.4,-0.082,1
0.662,0.199,2.124,1
0.081,-0.369,3.213,1
-0.317,-0.874,4.47,1
-0.365,-1.122,5.049,1
-0.405,-1.258,4.854,1
-0.614,-1.205,4.163,1
-0.671,-1.158,2.552,1
-0.488,-1.068,1.284,1
-0.453,-1.06,1.285,1
-0.495,-1.024,-0.492,1
-0.961,-1.432,-0.196,1
-0.7,-1.635,-0.034,1
-0.14,-1.482,-0.012,1
0.228,-1.252,-0.024,1
0.883,-0.941,-0.305,1
0.972,-0.887,-0.538,1
0.911,-0.861,-0.722,1
0.7,-0.901,-0.959,1
0.569,-0.834,-1.604,1
0.645,-0.55,-2.077,0
0.759,-0.435,-2.391,0
0.891,-0.314,-2.354,0
1.212,-0.039,-2.053,0
1.218,0.037,-1.784,0
0.945,0.006,-1.712,0
0.581,-0.056,-1.761,0
0.16,-0.212,-1.751,0
-0.043,-0.311,-1.603,0
-0.015,-0.229,-1.197,0
0.22,-0.096,-1,0
0.529,0.107,-0.981,0
0.693,0.175,-1.162,0
0.464,0.362,-1.732,0
0.761,0.517,-2.075,0
0.571,0.477,-1.893,0
0.265,0.269,-0.981,0
0.077,0.023,0.235,0
-0.053,-0.018,1.014,0
-0.007,0.125,1.507,0
0.11,0.28,1.194,0
0.146,0.536,0.153,0
0.245,0.712,-0.588,0
0.517,0.833,-0.806,0
0.749,0.803,-0.258,0
0.74,0.621,0.949,0
0.531,0.398,1.779,0
0.235,0.132,2.281,0
0.308,0.036,2.692,0
0.325,0.082,2.742,0
-0.095,0.442,2.108,0
-0.702,1.135,0.237,0
-0.497,1.229,-1.132,0
-0.161,1.544,-2.639,1
0.279,1.714,-3.137,1
0.407,1.441,-1.503,1
0.64,0.556,0.949,1
0.306,-0.616,4.252,1
0.053,-1.512,6.522,1
-0.091,-2.442,8.741,1
-0.712,-2.515,8.706,1
-1.089,-2.198,6.095,1
-0.714,-1.507,2.847,1
-0.532,-0.683,-0.702,1
-0.289,-0.204,-2.768,1
0.076,0.34,-4.261,1
-0.087,0.681,-4.427,1
-0.053,0.498,-3.169,1
0.026,0.134,-1.92,1
0.185,-0.324,-0.019,1
0.238,-0.599,0.878,1
0.04,-0.941,1.283,1
-0.321,-1.292,0.954,1
-0.42,-1.329,0.061,1
-0.181,-1.109,-0.814,0
0.232,-0.799,-1.666,0
0.299,-0.621,-1.791,0
0.078,-0.533,-1.532,0
0.019,-0.414,-1.353,0
0.03,-0.262,-1.201,0
-0.106,-0.167,-1.399,0
-0.344,-0.183,-1.83,0
-0.457,-0.154,-2.169,0
-0.427,-0.047,-2.379,0
-0.324,-0.018,-2.392,0
-0.138,0.036,-2.082,0
-0.063,0.027,-1.692,0
-0.129,-0.052,-1.288,0
-0.233,-0.09,-0.781,0
-0.358,-0.147,-0.043,0
-0.422,-0.171,0.156,0
-0.35,0.001,-0.037,0
-0.287,0.13,-0.273,0
-0.256,0.167,-0.423,0
-0.078,0.251,-0.372,0
-0.243,0.34,0.071,0
-0.287,0.305,0.554,0
0.062,0.445,0.806,0
-0.022,0.542,1.105,0
-0.216,0.063,1.565,0
-0.057,-0.121,1.629,0
-0.073,-0.148,1.636,0
0.021,-0.228,1.315,0
0.342,0.344,1.395,0
0.256,0.819,1.3,0
-0.05,1.102,0.476,0
0.133,1.138,0.102,0
0.415,1.087,0.068,1
0.663,0.948,0.294,1
1.028,0.545,1.094,1
0.664,0.124,2.145,1
0.023,-0.541,3.231,1
-0.094,-0.787,3.345,1
-0.356,-0.817,2.9,1
-0.423,-0.794,2.455,1
-0.173,-0.518,1.623,1
-0.228,-0.531,1.111,1
-0.307,-0.604,0.74,1
-0.352,-0.676,0.545,1
-0.573,-0.939,0.652,1
-0.588,-1.16,0.939,1
-0.415,-1.448,1.023,1
-0.319,-1.557,0.76,1
-0.123,-1.478,0.112,1
0.132,-1.314,-0.387,1
0.424,-1.068,-0.806,1
0.646,-0.885,-1.033,1
0.705,-0.628,-1.274,1
0.614,-0.516,-1.523,0
0.498,-0.355,-1.935,0
0.444,-0.222,-2.231,0
0.285,-0.127,-2.357,0
0.291,0.024,-2.366,0
0.478,0.164,-2.277,0
0.531,0.303,-1.859,0
0.559,0.448,-1.094,0
0.557,0.465,-0.657,0
0.411,0.465,-0.604,0
0.181,0.374,-0.765,0
0.074,0.317,-1.072,0
0.054,0.293,-1.281,0
0.033,0.277,-1.497,0
0.211,0.28,-1.518,0
0.487,0.371,-1.447,0
0.578,0.386,-1.099,0
0.62,0.385,-0.615,0
0.568,0.406,-0.426,0
0.349,0.439,0.01,0
0.225,0.452,0.373,0
-0.022,0.341,0.393,0
-0.352,0.147,0.28,0
-0.676,0.123,0.232,0
-0.621,0.157,0.177,0
-0.437,0.256,0.361,0
-0.203,0.275,0.64,0
0.135,0.229,0.956,0
0.391,0.225,1.443,0
0.601,0.042,2.671,0
0.252,-0.179,3.138,0
-0.891,0.279,2.485,0
-1.313,0.571,0.92,0
-1.086,0.744,-0.932,0
-0.356,1.067,-2.049,1
0.56,1.952,-2.653,1
1.008,2.092,-2.21,1
0.985,1.355,-0.095,1
1.289,0.325,2.015,1
1.021,-1.169,5.59,1
0.708,-1.978,7.832,1
0.686,-1.856,7.798,1
-0.567,-2.114,7.243,1
-0.529,-1.509,2.808,1
-0.346,-0.982,-0.563,1
-0.531,-0.351,-3.863,1
-0.387,-0.002,-5.069,1
-0.682,0.298,-4.874,1
-0.742,0.139,-3.848,1
-0.464,-0.457,-1.399,1
-0.398,-0.757,0.021,1
-0.491,-1.124,1.336,1
-0.394,-1.332,1.838,1
-0.551,-1.527,1.3,1
-0.452,-1.369,0.052,1
-0.132,-0.975,-1.42,0
-0.009,-0.721,-1.93,0
0.079,-0.46,-2.099,0
0.253,-0.294,-2.18,0
0.282,-0.077,-2.072,0
0.38,0.116,-1.911,0
0.234,0.131,-1.733,0
-0.008,0.083,-1.668,0
-0.255,-0.057,-1.42,0
-0.449,-0.14,-1.091,0
-0.401,0.036,-0.974,0
-0.318,0.126,-1.201,0
-0.213,0.245,-1.309,0
-0.119,0.282,-1.282,0
-0.153,0.31,-1.035,0
-0.242,0.312,-0.637,0
-0.371,0.233,0.079,0
-0.443,0.167,0.196,0
-0.536,0.129,0.249,0
-0.766,-0.027,0.501,0
-0.793,-0.003,0.627,0
-0.899,0.057,0.601,0
-0.933,0.224,0.612,0
-0.565,0.378,0.68,0
-0.565,0.361,0.685,0
-0.147,0.515,1.305,0
0.08,0.304,1.671,0
0.177,0.127,2.227,0
0.177,0.226,2.857,0
-0.139,0.654,2.447,0
-0.6,0.734,1.003,0
-0.059,0.869,0.338,0
-0.061,0.815,0.354,1
1.252,1.413,-0.658,1
1.307,1.043,0.172,1
0.626,0.264,1.806,1
-0.099,-0.641,3.184,1
-0.09,-0.582,3.167,1
-0.518,-1.555,5.018,1
-0.551,-1.764,5.335,1
-0.64,-1.61,4.601,1
-0.601,-1.453,3.063,1
-0.47,-1.192,0.782,1
-0.42,-1.156,-0.609,1
-0.411,-1.111,-1.422,1
-0.44,-1.215,-1.267,1
0.002,-1.347,-0.652,1
0.194,-1.422,-0.165,1
0.479,-1.37,0.075,1
0.647,-1.282,-0.351,1
0.821,-1.018,-1.137,1
0.932,-0.825,-1.507,1
0.996,-0.583,-1.912,1
0.992,-0.392,-2.268,0
0.817,-0.293,-2.542,0
0.561,-0.264,-2.312,0
0.413,-0.171,-2.005,0
0.447,-0.134,-1.953,0
0.281,-0.165,-1.809,0
0.095,-0.139,-1.691,0
0.071,-0.024,-1.744,0
-0.075,-0.048,-1.853,0
0.194,0.104,-2.02,0
0.565,0.384,-1.626,0
0.835,0.488,-0.821,0
0.673,0.459,-0.675,0
0.303,0.419,-0.908,0
0.353,0.392,-1.332,0
0.256,0.388,-1.544,0
0.175,0.316,-1.203,0
0.322,0.231,-0.371,0
0.151,0.164,0.417,0
-0.118,-0.031,1.35,0
-0.285,-0.074,1.395,0
-0.403,0.082,0.919,0
-0.442,0.207,0.145,0
-0.005,0.608,-0.592,0
0.422,0.896,-0.715,0
0.695,0.972,-0.368,0
0.586,0.754,0.307,0
0.124,0.415,1.518,0
-0.174,-0.037,2.884,0
-0.129,-0.311,3.485,0
-0.246,0.206,2.946,0
-1.029,0.915,1.338,0
-1.146,1.016,-0.233,0
-1.112,0.947,-0.21,1
0.331,1.886,-2.997,1
1.034,1.999,-2.735,1
1.153,1.513,-0.702,1
1.305,0.164,2.138,1
0.758,-0.901,4.635,1
0.269,-2.174,7.654,1
-0.296,-2.764,8.214,1
-1.071,-2.777,6.616,1
-1.181,-2.346,3.756,1
-1.011,-1.44,0.513,1
-0.582,-0.814,-1.09,1
0.018,-0.158,-2.577,1
0.287,0.161,-3.189,1
0.221,0.294,-2.713,1
0.148,0.045,-1.778,1
0.102,-0.469,-0.611,1
0.18,-0.842,0.379,1
0.423,-1.174,1.104,1
0.396,-1.331,1.307,1
0.429,-1.42,1.377,1
0.431,-1.38,0.925,0
0.171,-1.285,-0.221,0
0.028,-1.205,-1.186,0
-0.03,-0.981,-1.935,0
0.086,-0.781,-2.07,0
0.34,-0.471,-2.111,0
0.385,-0.313,-2.119,0
0.32,-0.256,-2.016,0
0.329,-0.209,-1.892,0
0.302,-0.22,-1.69,0
0.298,-0.237,-1.549,0
0.211,-0.265,-1.433,0
0.066,-0.371,-1.533,0
0.06,-0.373,-1.533,0
-0.291,-0.52,-1.267,0
-0.297,-0.517,-1.268,0
-0.57,-0.644,-0.595,0
-0.661,-0.577,-0.479,0
-0.722,-0.458,-0.351,0
-0.587,-0.289,-0.114,0
-0.351,-0.112,-0.209,0
-0.409,-0.021,-0.317,0
-0.557,-0.087,-0.16,0
-0.574,-0.111,0.008,0
-0.5,-0.09,-0.113,0
-0.27,-0.041,-0.081,0
0.13,0.059,-0.002,0
0.384,-0.012,0.337,0
0.495,-0.259,0.953,0
0.631,-0.463,2.265,0
0.623,-0.491,2.273,0
-0.408,-0.924,2.584,0
-1.221,-0.194,1.71,0
-1.56,0.09,0.05,0
-0.902,0.077,-0.993,0
-0.88,0.029,-0.977,1
2.043,0.704,0.121,1
3.025,0.14,2.309,1
2.272,-0.495,3.967,1
0.329,-1.384,3.493,1
0.105,-1.553,2.119,1
0.151,-2.017,1.505,1
0.201,-2.316,2.187,1
-0.075,-2.528,3.909,1
-0.185,-2.927,4.909,1
-0.221,-3.233,5.215,1
-0.165,-3.368,4.822,1
0.119,-3.492,4.305,1
0.459,-3.337,3.836,1
0.929,-2.91,3.404,1
1.066,-2.638,3.06,1
1.097,-2.337,2.112,1
1.115,-2.185,1.103,1
1.077,-1.904,-0.258,1
1.149,-1.668,-0.95,1
1.387,-1.336,-1.638,1
1.354,-1.104,-2.047,0
1.264,-1.034,-2.137,0
1.067,-1.107,-1.755,0
0.781,-1.25,-1.204,0
0.66,-1.389,-0.828,0
0.559,-1.461,-0.395,0
0.572,-1.472,-0.516,0
0.667,-1.39,-1.231,0
0.783,-1.277,-1.834,0
0.922,-1.161,-2.136,0
0.861,-1.256,-1.838,0
0.678,-1.413,-1.457,0
0.485,-1.44,-1.133,0
0.203,-1.496,-0.6,0
0.185,-1.47,-0.22,0
0.325,-1.327,-0.155,0
0.26,-1.233,-0.071,0
0.25,-1.192,0.027,0
0.044,-1.295,0.093,0
-0.059,-1.313,-0.006,0
0.021,-1.347,0.21,0
0.119,-1.436,0.609,0
0.133,-1.488,0.474,0
0.12,-1.45,0.309,0
0,-1.497,0.282,0
-0.321,-1.602,0.437,0
-0.389,-1.5,0.647,0
-0.131,-1.02,0.459,0
0.258,-0.548,0.102,0
0.58,-0.127,-0.324,0
0.891,0.163,-0.187,0
1.205,0.365,-0.174,0
1.098,0.215,-0.198,0
-0.057,-0.425,0.04,0
-0.584,-0.785,0.946,0
-0.788,-1.42,2.233,0
-0.352,-1.147,2.443,0
0.209,-0.75,1.957,0
