accelX,accelY,accelZ,label
-0.847,1.053,4.326,1
-1.606,2.246,4.003,0
-1.682,2.246,2.344,0
-1.679,1.967,-0.074,0
-1.307,1.848,-1.368,0
-0.841,1.511,-1.956,0
-0.848,0.823,-0.407,0
-0.73,-0.367,3.663,0
-1.014,-1.078,6.244,0
-1.623,-1.947,9.269,0
-1.896,-1.909,9.729,0
-1.541,-1.367,7.152,0
-1.256,-0.924,3.704,0
-0.99,-0.286,-0.668,0
-0.612,-0.051,-2.615,0
-0.599,0.394,-4.759,0
-0.791,0.453,-5.59,0
-0.961,-0.002,-5.468,0
-0.845,-0.396,-4.8,0
-0.621,-0.771,-2.628,0
-0.641,-1.071,-0.431,0
-0.782,-1.527,2.14,0
-1.088,-1.7,3.431,0
-1.6,-1.692,3.407,0
-1.641,-1.654,3.395,0
-1.829,-1.599,0.39,0
-1.72,-1.389,-0.933,0
-1.707,-0.904,-2.559,0
-1.666,-0.829,-3.146,0
-1.81,-0.793,-3.715,0
-1.925,-0.648,-3.571,0
-1.72,-0.308,-2.444,0
-1.566,-0.144,-1.728,0
-1.314,0.175,-0.525,0
-1.026,0.435,0.061,0
-0.819,0.594,-0.128,0
-0.908,0.566,-0.547,0
-1.307,0.338,-1.135,0
-1.597,0.162,-1.294,0
-1.817,0.065,-1.045,0
-1.833,-0.031,-0.739,0
-1.735,-0.074,-0.229,0
-1.671,-0.078,0.351,0
-1.464,-0.081,1.058,0
-1.258,0.109,1.626,0
-1.086,0.457,2.402,0
-0.961,0.639,2.554,0
-0.822,0.732,2.388,0
-0.829,0.677,1.847,0
-0.871,0.475,1.363,0
-0.888,0.346,1.144,0
-0.873,0.279,1.053,0
-0.755,0.198,1.277,0
-1.183,0.383,1.27,0
-1.424,0.546,0.754,0
-1.196,0.456,-0.21,0
-0.763,0.435,-0.72,1
-0.252,0.582,-0.855,0
0.104,0.57,-0.227,0
0.251,0.31,1.353,0
-0.114,0.294,2.573,0
-0.546,0.043,3.736,0
-0.646,-0.022,3.498,0
-0.974,-0.108,2.087,0
-1.139,-0.21,1.158,0
-1.197,-0.377,0.286,0
-1.264,-0.405,0.255,0
-1.462,-0.807,0.705,0
-1.628,-1.045,0.953,0
-1.739,-1.302,1.094,0
-1.73,-1.502,1.029,0
-1.842,-1.819,0.848,0
-1.852,-1.791,0.659,0
-1.848,-1.773,0.652,0
-1.373,-1.502,-0.09,0
-1.083,-1.315,-0.595,0
-1.016,-1.16,-0.643,0
-0.882,-0.892,-0.576,0
-0.79,-0.652,-0.749,0
-0.685,-0.356,-1.419,0
-0.688,-0.249,-1.706,0
-0.768,-0.177,-1.783,0
-0.757,-0.07,-1.911,0
-0.761,0.042,-2.015,0
-0.771,0.097,-1.842,0
-0.768,0.097,-1.842,0
-1.081,0.212,-1.378,0
-1.352,0.143,-1.382,0
-1.479,0.062,-1.504,0
-1.669,0.074,-1.796,0
-1.62,0.138,-1.952,0
-1.401,0.183,-1.966,0
-1.409,0.165,-1.958,0
-0.887,0.345,-1.022,0
-0.905,0.334,-0.403,0
-0.98,0.309,0.436,0
-0.963,0.221,0.917,0
-1.031,0.265,1.316,0
-1.107,0.354,1.381,0
-1.23,0.284,0.89,0
-1.254,0.258,0.598,0
-1.18,0.372,0.556,0
-1.022,0.432,0.755,0
-1.053,0.422,1.411,0
-1.068,0.396,1.718,0
-0.948,0.435,1.989,0
-0.998,0.563,2.025,0
-1.472,1.195,1.2,0
-1.553,1.402,0.348,0
-1.222,1.375,-1.005,0
-1.128,1.389,-1.803,0
-0.785,1.243,-1.992,1
-0.549,1.026,-1.187,0
-0.426,0.364,1.122,0
-0.415,-0.151,3.184,0
-0.72,-1.065,5.907,0
-0.979,-1.284,7.179,0
-1.18,-1.319,7.742,0
-1.019,-1.06,6.637,0
-0.784,-0.654,2.712,0
-0.761,-0.678,2.719,0
-0.878,-0.19,-2.819,0
-0.894,-0.106,-3.767,0
-1.131,0.014,-4.098,0
-1.345,-0.095,-3.235,0
-1.296,-0.462,-0.88,0
-1.093,-0.584,0.514,0
-0.908,-0.915,2.205,0
-1.049,-1.071,2.44,0
-1.294,-1.068,1.771,0
-1.347,-1.038,0.789,0
-1.535,-1.004,-0.755,0
-1.737,-0.905,-1.942,0
-1.842,-0.751,-3.011,0
-1.916,-0.709,-3.332,0
-2.003,-0.642,-3.002,0
-1.811,-0.553,-2.286,0
-1.479,-0.239,-1.221,0
-1.311,-0.053,-0.758,0
-1.047,0.119,-0.648,0
-0.769,0.211,-0.831,0
-0.517,0.425,-1.68,0
-0.481,0.406,-2.278,0
-1.005,0.084,-2.806,0
-1.352,-0.086,-2.544,0
-1.653,-0.178,-1.417,0
-1.774,-0.214,-0.612,0
-1.964,-0.246,0.307,0
-1.868,-0.182,0.736,0
-1.72,-0.108,0.874,0
-1.618,-0.044,0.751,0
-1.56,0.107,0.534,0
-1.437,0.167,0.307,0
-1.332,0.253,0.072,0
-1.327,0.295,0.23,0
-1.205,0.197,0.682,0
-1.133,0.145,1.06,0
-1.039,0.151,1.6,0
-1.09,0.206,1.848,0
-1.435,0.846,1.603,0
-1.639,1.095,0.717,0
-1.104,1.244,-0.708,0
-0.669,1.441,-1.54,0
0.278,1.668,-2.292,0
0.619,1.383,-1.43,0
0.091,0.572,1.19,1
-0.513,-0.153,3.527,0
-1.665,-0.984,6.278,0
-2.236,-1.453,7.706,0
-2.318,-1.49,7.774,0
-2.053,-1.071,6.319,0
-1.388,-0.652,2.832,0
-1.323,-0.464,0.855,0
-1.141,-0.314,-1.003,0
-0.92,-0.272,-1.596,0
-0.983,-0.24,-1.796,0
-0.993,-0.358,-1.367,0
-0.931,-0.679,-0.264,0
-0.85,-0.728,0.447,0
-0.77,-0.962,1.065,0
-0.815,-1.008,1.045,0
-0.86,-0.988,0.177,0
-0.852,-0.983,-0.636,0
-0.76,-0.806,-1.542,0
-0.736,-0.62,-2.003,0
-0.784,-0.48,-2.491,0
-0.852,-0.391,-2.545,0
-0.922,-0.091,-2.392,0
-0.923,0.017,-2.175,0
-0.958,0.125,-1.504,0
-0.969,0.122,-1.503,0
-1.123,0.27,-1.546,0
-1.195,0.299,-1.833,0
-1.159,0.318,-1.974,0
-1.148,0.324,-2.165,0
-1.153,0.232,-2.244,0
-1.147,0.153,-1.967,0
-1.119,0.05,-1.382,0
-1.08,0.025,-0.741,0
-0.872,0.043,0.314,0
-0.943,0.017,0.895,0
-1.077,0.043,1.328,0
-1.144,0.031,1.372,0
-1.302,0.164,0.937,0
-1.303,0.287,0.486,0
-0.988,0.519,0.238,0
-0.988,0.575,0.007,0
-1.036,0.81,0.041,0
-0.945,0.932,0.433,0
-0.936,0.923,0.976,0
-1.042,0.865,1.229,0
-0.957,0.783,1.396,0
-1.011,0.741,1.673,0
-1.425,1.101,1.796,0
-1.681,1.415,1.256,0
-1.76,1.51,0.146,0
-1.519,1.473,-0.489,0
-0.888,1.613,-1.549,1
-0.343,1.636,-1.648,0
-0.037,1.283,-0.275,0
-0.14,0.701,1.46,0
-0.752,-0.486,3.653,0
-1.279,-0.999,5.2,0
-1.59,-1.387,6.675,0
-1.488,-1.314,6.419,0
-1.169,-0.741,3.345,0
-1.259,-0.459,1.095,0
-1.46,-0.238,-2.164,0
-1.391,-0.085,-3.517,0
-1.484,0.148,-4.105,0
-1.59,0.226,-3.655,0
-1.509,0.119,-1.713,0
-1.28,0.107,-0.531,0
-1.065,-0.192,0.93,0
-1.109,-0.469,1.283,0
-1.235,-0.79,0.951,0
-1.351,-0.917,0.383,0
-1.444,-0.999,-0.305,0
-1.361,-0.997,-0.823,0
-1.338,-0.84,-1.315,0
-1.305,-0.724,-1.634,0
-1.418,-0.618,-2.045,0
-1.455,-0.528,-2.128,0
-1.33,-0.425,-2.092,0
-1.268,-0.261,-1.906,0
-1.091,-0.073,-1.524,0
-1.04,0.042,-1.259,0
-1.113,0.142,-1.504,0
-1.115,0.203,-1.82,0
-1.157,0.168,-2.119,0
-1.219,0.19,-2.081,0
-1.25,0.246,-1.454,0
-1.259,0.275,-0.838,0
-1.247,0.39,0.085,0
-1.182,0.458,0.395,0
-1.266,0.418,0.802,0
-1.346,0.38,1.145,0
-1.307,0.459,1.311,0
-1.242,0.604,1.331,0
-1.23,0.719,1.025,0
-1.126,0.814,0.721,0
-0.942,0.898,0.35,0
-0.806,0.947,0.413,0
-0.622,0.902,0.998,0
-0.79,0.843,1.614,0
-0.684,0.928,2.313,0
-0.634,1.159,2.482,0
-0.913,1.577,1.725,0
-0.904,1.549,1.735,1
-0.906,1.42,-0.44,0
-0.676,1.455,-1.009,0
-0.231,1.403,-1.087,0
0.156,1.192,-0.291,0
0.276,0.857,1.624,0
0.015,0.622,3.185,0
-0.219,0.268,4.288,0
-0.523,0.035,4.318,0
-0.794,-0.013,3.302,0
-0.819,0.041,2.25,0
-0.835,-0.013,0.578,0
-0.904,0.039,-0.078,0
-1.055,-0.059,-0.393,0
-1.167,-0.187,-0.219,0
-1.219,-0.443,0.169,0
-1.133,-0.633,0.397,0
-0.945,-0.808,0.576,0
-0.743,-0.798,0.606,0
-0.733,-0.796,0.605,0
-0.386,-0.727,0.103,0
-0.318,-0.72,-0.536,0
-0.299,-0.734,-1.048,0
-0.409,-0.733,-1.754,0
-0.423,-0.638,-2.234,0
-0.403,-0.434,-2.609,0
-0.393,-0.25,-2.715,0
-0.359,0.03,-2.702,0
-0.294,0.24,-2.687,0
-0.054,0.481,-2.795,0
0.012,0.596,-2.721,0
-0.055,0.655,-2.544,0
-0.301,0.601,-2.336,0
-0.529,0.431,-1.901,0
-0.653,0.363,-1.622,0
-0.884,0.146,-1.047,0
-0.932,0.09,-0.775,0
-0.993,0.123,-0.456,0
-1.023,0.095,-0.332,0
-0.921,0.13,-0.124,0
-0.721,0.291,-0.158,0
-0.455,0.542,-0.266,0
-0.382,0.713,-0.195,0
-0.419,0.829,-0.212,0
-0.623,0.8,-0.164,0
-0.94,0.662,-0.235,0
-1.051,0.586,-0.276,0
-1.059,0.612,0.167,0
-0.897,0.67,0.703,0
-0.692,0.642,1.461,0
-0.62,0.604,1.884,0
-0.438,0.626,2.573,0
-0.359,0.739,2.649,0
-0.698,1.179,2.091,0
-1.026,1.366,1.223,0
-1.152,1.348,-0.587,1
-1.026,1.29,-1.525,0
-0.476,1.298,-1.986,0
0.087,1.302,-1.184,0
0.224,0.837,1.232,0
0.087,0.207,3.17,0
-0.429,-0.606,5.072,0
-0.796,-0.964,5.941,0
-1.203,-1.322,5.653,0
-1.273,-1.194,4.216,0
-0.877,-0.57,1.144,0
-0.763,-0.205,-0.986,0
-0.705,0.043,-2.756,0
-0.861,0.115,-3.143,0
-1.034,0.113,-2.824,0
-0.992,0.122,-2.143,0
-0.712,0.027,-0.753,0
-0.484,-0.091,-0.098,0
-0.149,-0.418,0.669,0
-0.128,-0.622,0.928,0
-0.176,-0.801,0.702,0
-0.208,-0.817,0.288,0
-0.254,-0.903,-0.4,0
-0.31,-0.87,-0.833,0
-0.293,-0.867,-0.835,0
-0.481,-0.727,-1.466,0
-0.481,-0.512,-1.658,0
-0.38,-0.363,-1.738,0
-0.075,-0.087,-1.826,0
0.188,0.139,-1.851,0
0.444,0.351,-1.995,0
0.548,0.474,-2.3,0
0.651,0.59,-2.624,0
0.583,0.559,-2.75,0
0.088,0.44,-2.529,0
-0.216,0.273,-2.183,0
-0.509,0.139,-1.487,0
-0.566,0.116,-1.023,0
-0.695,0.245,-0.315,0
-0.606,0.311,0.134,0
-0.434,0.425,0.349,0
-0.357,0.593,0.435,0
-0.243,0.754,0.46,0
-0.21,0.842,0.415,0
-0.204,0.978,0.282,0
-0.324,1.011,0.349,0
-0.364,0.963,0.575,0
-0.24,1.039,0.845,0
-0.106,1.102,1.176,0
-0.096,1.039,1.488,0
0.075,0.918,1.598,0
0.114,1.061,1.314,0
-0.066,1.474,0.564,0
0.124,1.433,-0.034,0
0.759,1.382,-0.793,0
1.113,1.393,-0.735,0
1.476,1.34,0.471,1
1.517,1.164,1.756,0
1.005,0.715,3.308,0
0.425,0.406,4.102,0
-0.155,0.044,4.378,0
-0.352,-0.07,4.112,0
-0.46,-0.166,3.234,0
-0.307,0.012,2.462,0
0.076,0.482,0.835,0
0.22,0.643,-0.259,0
0.212,0.502,-1.315,0
0.026,0.282,-1.71,0
-0.26,0.036,-1.677,0
-0.277,-0.091,-1.384,0
-0.099,-0.296,-0.794,0
0.067,-0.337,-0.444,0
0.483,-0.334,-0.014,0
0.656,-0.296,-0.082,0
0.673,-0.283,-0.085,0
0.894,-0.359,-1.003,0
0.925,-0.368,-1.439,0
0.866,-0.359,-1.543,0
0.665,-0.238,-1.612,0
0.598,-0.14,-1.583,0
0.46,-0.004,-1.54,0
0.49,0.073,-1.687,0
0.53,0.403,-1.524,0
0.538,0.398,-1.522,0
0.633,0.711,-1.432,0
0.479,0.741,-1.45,0
0.256,0.721,-1.379,0
0.196,0.758,-1.291,0
0.35,0.901,-1.055,0
0.419,0.926,-0.984,0
0.453,0.912,-0.936,0
0.508,0.858,-0.958,0
0.779,0.926,-0.995,0
0.974,0.997,-1.017,0
1.113,1.022,-0.78,0
1.169,0.958,-0.459,0
1.215,0.934,0.067,0
1.208,0.995,0.382,0
0.986,0.946,0.893,0
0.837,0.905,0.912,0
0.463,0.847,0.684,0
0.271,0.793,0.424,0
0.136,0.725,0.874,0
0.039,0.644,1.408,0
-0.081,0.662,1.923,0
-0.208,0.755,1.882,0
-0.61,1.178,1.01,0
-0.791,1.372,0.051,0
-0.707,1.574,-1.685,1
-0.216,1.651,-2.749,0
0.768,1.788,-3.59,0
1.172,1.612,-2.498,0
1.512,0.902,0.948,0
1.536,0.039,3.995,0
0.544,-1.115,8.136,0
-0.046,-1.656,9.597,0
-0.663,-1.916,8.944,0
-0.77,-1.798,6.823,0
-0.367,-1.214,2.444,0
-0.19,-0.774,-0.234,0
0.321,-0.398,-2.995,0
0.485,-0.083,-4.469,0
0.593,0.317,-5.043,0
0.77,0.424,-4.4,0
1.317,0.444,-2.626,0
1.386,0.298,-1.53,0
1.388,-0.089,-0.164,0
1.274,-0.256,0.328,0
0.961,-0.58,0.5,0
0.625,-0.762,0.102,0
0.298,-0.894,-0.605,0
0.234,-0.934,-1.13,0
0.222,-0.79,-1.665,0
0.266,-0.656,-2.012,0
0.369,-0.422,-2.526,0
0.39,-0.232,-2.799,0
0.56,0.131,-2.963,0
0.752,0.329,-2.901,0
0.778,0.525,-2.259,0
0.771,0.605,-1.589,0
0.502,0.574,-0.864,0
0.311,0.541,-0.701,0
0.238,0.472,-0.863,0
0.259,0.494,-1.079,0
0.261,0.484,-1.075,0
0.416,0.668,-1.235,0
0.372,0.755,-0.776,0
0.404,0.819,-0.269,0
0.413,0.848,0.357,0
0.25,0.882,0.741,0
0.288,0.983,1.22,0
0.271,1.063,1.37,0
0.158,0.922,0.924,0
0.164,0.778,0.486,0
0.317,0.663,0.165,0
0.482,0.52,0.503,0
0.697,0.469,1.408,0
0.677,0.542,1.942,0
0.307,1.134,2.065,0
0.185,1.6,1.471,0
0.484,1.771,-0.104,0
1.074,1.779,-0.891,0
1.757,1.73,-1.308,1
2.023,1.573,-0.641,0
1.472,0.88,2.281,0
1.079,0.296,4.008,0
0.69,-0.293,5.112,0
0.471,-0.517,5.38,0
0.507,-0.52,4.881,0
0.515,-0.486,4.869,0
0.756,-0.078,2.184,0
0.909,0.065,1.245,0
1.038,0.254,0.107,0
1.034,0.155,-0.488,0
0.951,-0.038,-1.286,0
0.955,-0.236,-1.683,0
1.106,-0.585,-1.557,0
1.274,-0.658,-1.204,0
1.482,-0.713,-0.215,0
1.508,-0.771,0.21,0
1.631,-0.734,0.31,0
1.597,-0.639,0.08,0
1.446,-0.533,-0.567,0
1.333,-0.42,-1.133,0
1.216,-0.278,-1.824,0
1.107,-0.198,-2.177,0
0.929,-0.026,-2.239,0
0.838,0.075,-2.187,0
0.734,0.224,-2.099,0
0.712,0.324,-2.132,0
0.677,0.429,-2.352,0
0.608,0.485,-2.412,0
0.572,0.624,-2.285,0
0.562,0.617,-2.016,0
0.526,0.594,-1.515,0
0.461,0.491,-1.199,0
0.34,0.378,-0.574,0
0.252,0.319,-0.074,0
0.543,0.4,0.304,0
0.774,0.602,0.308,0
1.249,0.781,0.268,0
1.391,0.918,0.408,0
1.337,1.056,0.777,0
1.083,0.967,1.091,0
1.093,0.963,1.094,0
0.047,0.444,1.676,0
-0.287,0.129,2.044,0
-0.34,0.015,2.311,0
-0.064,0.11,2.649,0
0.106,0.45,2.462,0
-0.016,1.153,1.412,0
-0.259,1.311,0.438,0
-0.333,1.395,-1.698,0
-0.177,1.45,-2.648,0
-0.101,1.347,-3.138,0
-0.341,0.903,-2.596,0
-0.226,-0.159,-0.214,1
-0.104,-0.721,1.633,0
-0.058,-1.207,5.328,0
-0.27,-1.447,7.324,0
-0.243,-1.078,7.937,0
-0.027,-0.617,6.276,0
0.031,-0.437,2.245,0
-0.126,-0.25,0.036,0
-0.049,0.065,-1.925,0
0.003,0.006,-2.3,0
-0.235,-0.269,-1.923,0
-0.299,-0.519,-1.136,0
-0.015,-0.677,-0.073,0
0.288,-0.622,0.255,0
0.621,-0.606,-0.475,0
0.656,-0.567,-1.303,0
0.663,-0.501,-2.554,0
0.48,-0.547,-2.954,0
0.181,-0.684,-3.312,0
-0.162,-0.81,-3.253,0
-0.603,-0.965,-2.912,0
-0.759,-0.887,-2.52,0
-0.491,-0.524,-1.844,0
-0.145,-0.127,-1.415,0
0.209,0.284,-1.443,0
0.314,0.489,-1.833,0
0.679,0.897,-2.02,0
0.607,0.938,-1.764,0
0.187,0.77,-1.044,0
0.034,0.693,-0.606,0
-0.012,0.684,-0.132,0
-0.206,0.575,0.199,0
-0.513,0.308,0.702,0
-0.714,0.183,0.923,0
-0.621,0.261,0.689,0
-0.559,0.407,0.582,0
-0.181,0.691,0.67,0
0.023,0.883,0.743,0
-0.041,1.084,0.805,0
-0.096,1.228,0.849,0
0.058,1.233,0.623,0
0.011,1.185,0.518,0
-0.071,0.934,0.85,0
-0.119,0.646,1.481,0
-0.325,0.453,2.54,0
-0.585,0.513,2.916,0
-1.106,0.801,2.306,0
-0.851,0.9,0.826,0
-0.827,0.872,0.837,1
0.039,1.097,-1.642,0
0.829,1.155,-1.426,0
1.011,0.861,-0.231,0
0.567,0.131,2.219,0
0.259,-0.213,3.584,0
-0.345,-0.887,4.985,0
-0.797,-1.269,5.074,0
-1.143,-1.221,4.229,0
-1.001,-0.933,2.953,0
-0.599,-0.451,1.196,0
-0.189,-0.097,-0.092,0
0.098,0.054,-1.383,0
0.204,0.043,-1.863,0
0.105,-0.097,-2.335,0
0.008,-0.326,-2.395,0
0.035,-0.651,-1.804,0
0.089,-0.717,-1.134,0
0.254,-0.688,-0.462,0
0.467,-0.638,-0.298,0
0.785,-0.405,-0.85,0
0.912,-0.309,-1.388,0
0.817,-0.292,-2.057,0
0.64,-0.275,-2.126,0
0.193,-0.361,-1.706,0
-0.026,-0.42,-1.373,0
-0.208,-0.334,-1.288,0
-0.195,-0.195,-1.315,0
-0.154,-0.016,-1.555,0
-0.08,0.13,-1.846,0
-0.004,0.328,-1.977,0
0.063,0.402,-1.931,0
0.079,0.532,-1.816,0
0.128,0.606,-1.844,0
0.101,0.54,-1.813,0
-0.058,0.543,-1.528,0
-0.112,0.543,-1.136,0
-0.035,0.508,-0.944,0
0.076,0.653,-0.541,0
0.185,0.716,-0.387,0
0.375,0.87,0.003,0
0.48,0.928,0.342,0
0.508,1.04,0.407,0
0.37,1.103,0.378,0
0.313,1.102,0.191,0
0.319,1.115,0.143,0
0.031,1.084,0.385,0
-0.217,1.044,0.666,0
-0.681,0.872,1.698,0
-1.038,0.711,2.363,0
-1.169,0.605,3.015,0
-1.035,0.822,2.907,0
-0.929,1.534,1.567,0
-0.734,1.804,0.362,1
0.012,2.079,-1.09,0
0.526,2.206,-1.837,0
0.962,2.127,-2.081,0
0.991,1.866,-0.948,0
0.917,0.901,2.118,0
0.597,0.258,3.889,0
-0.406,-0.946,6.393,0
-1.223,-1.701,7.541,0
-1.815,-1.939,7.021,0
-1.563,-1.501,4.958,0
-0.557,-0.809,1.783,0
-0.521,-0.85,1.798,0
0.612,0.35,-3.425,0
0.69,0.572,-4.327,0
0.323,0.761,-4.509,0
0.09,0.634,-3.808,0
-0.181,0.121,-2.114,0
-0.361,-0.238,-0.873,0
-0.524,-0.718,0.467,0
-0.618,-0.922,0.89,0
-0.581,-1,0.822,0
-0.42,-0.91,0.388,0
-0.151,-0.703,-0.778,0
-0.002,-0.583,-1.444,0
0.033,-0.397,-2.65,0
-0.1,-0.385,-3.07,0
-0.285,-0.47,-2.842,0
-0.364,-0.481,-2.222,0
-0.44,-0.461,-1.485,0
-0.449,-0.402,-1.246,0
-0.301,-0.304,-0.98,0
-0.135,-0.137,-1.209,0
0.154,0.175,-2.062,0
0.228,0.313,-2.691,0
0.307,0.406,-3.405,0
0.187,0.425,-3.408,0
0.1,0.466,-2.858,0
0.044,0.487,-2.019,0
-0.188,0.459,-0.528,0
-0.411,0.406,0.442,0
-0.772,0.336,1.482,0
-0.924,0.504,1.885,0
-0.76,0.76,2.573,0
-0.488,0.954,2.452,0
-0.372,1.166,1.546,0
-0.353,1.2,0.825,0
-0.266,1.093,0.442,0
-0.269,0.942,0.512,0
-0.211,0.738,1.173,0
-0.2,0.661,1.809,0
-0.58,0.864,2.739,0
-0.762,1.069,2.738,0
-0.763,1.066,2.739,0
-0.154,1.28,1.03,0
0.386,1.301,0.74,1
0.676,1.198,0.954,0
0.689,0.756,1.96,0
0.488,0.545,2.706,0
0.131,0.362,3.361,0
0.138,0.287,2.979,0
0.17,0.311,2.971,0
0.159,0.285,0.432,0
0.1,0.27,-0.757,0
0.028,0.167,-1.109,0
-0.197,-0.09,-1.24,0
-0.397,-0.295,-1.019,0
-0.555,-0.608,-0.389,0
-0.491,-0.741,-0.074,0
-0.315,-0.913,0.278,0
-0.125,-0.994,0.462,0
0.105,-1.009,0.738,0
0.193,-0.964,0.685,0
0.198,-1.02,-0.021,0
0.213,-1.023,-0.804,0
0.306,-0.944,-1.761,0
0.356,-0.842,-2.09,0
0.407,-0.606,-2.339,0
0.447,-0.491,-2.347,0
0.486,-0.233,-2.331,0
0.487,-0.031,-2.321,0
0.439,0.148,-2.244,0
0.351,0.216,-1.87,0
0.083,0.242,-1.363,0
-0.077,0.297,-1.131,0
-0.333,0.34,-0.938,0
-0.418,0.327,-0.973,0
-0.428,0.318,-0.97,0
-0.421,0.536,-1.193,0
-0.434,0.52,-1.188,0
-0.117,0.744,-1.542,0
-0.03,0.726,-1.327,0
-0.018,0.638,-1.011,0
0.117,0.659,-0.52,0
0.035,0.634,0.13,0
0.049,0.574,1.405,0
-0.062,0.547,1.833,0
-0.2,0.653,1.906,0
-0.191,0.74,1.613,0
-0.159,0.848,0.919,0
-0.048,0.9,0.331,0
0.223,0.988,0.096,0
0.29,0.947,0.694,0
0.282,0.913,0.706,0
0.362,0.981,2.419,0
-0.129,1.393,2.587,1
-0.317,1.697,2.046,0
-0.612,1.849,0.139,0
-0.624,1.725,-1.262,0
-0.216,1.548,-2.169,0
0.176,1.24,-2.017,0
0.491,0.593,0.136,0
0.719,0.278,1.831,0
0.659,-0.355,3.889,0
0.22,-0.712,4.59,0
-0.818,-1.222,4.307,0
-1.301,-1.198,2.913,0
-1.472,-1.105,0.838,0
-1.436,-1.103,0.838,0
-1.264,-0.512,-2.53,0
-0.946,-0.276,-3.231,0
-0.454,0.121,-3.321,0
-0.079,0.242,-2.852,0
0.311,0.178,-1.874,0
0.063,-0.077,-1.093,0
-0.335,-0.649,0.01,0
-0.474,-0.847,0.537,0
-0.654,-0.855,0.625,0
-0.608,-0.766,0.274,0
-0.394,-0.522,-0.573,0
-0.185,-0.383,-1.175,0
0.073,-0.176,-1.648,0
0.077,-0.125,-1.562,0
-0.046,-0.142,-1.066,0
-0.155,-0.148,-0.502,0
-0.353,-0.114,-0.076,0
-0.532,-0.056,-0.099,0
-0.626,0.113,-0.704,0
-0.671,0.294,-1.3,0
-0.447,0.439,-1.795,0
-0.28,0.527,-1.684,0
-0.243,0.619,-1.163,0
-0.375,0.578,-0.526,0
-0.641,0.405,0.32,0
-0.754,0.344,0.487,0
-0.712,0.519,0.414,0
-0.348,0.612,0.389,0
-0.141,0.714,0.008,0
-0.214,0.701,-0.142,0
-0.307,0.597,-0.317,0
-0.343,0.518,-0.221,0
-0.165,0.578,0.375,0
0.041,0.59,0.998,0
0.259,0.592,1.845,0
0.499,0.637,2.432,0
0.645,0.602,3.14,0
0.4,0.604,3.088,0
-0.388,0.933,1.862,0
-0.489,1.016,0.872,0
0.045,1.114,-0.621,0
0.367,1.073,-1.063,0
0.598,0.875,-0.515,1
0.627,0.628,0.704,0
0.207,0.234,2.388,0
-0.176,-0.031,3.257,0
-0.028,-0.324,3.693,0
-0.032,-0.294,3.682,0
0.462,-0.15,2.242,0
0.517,-0.043,1.592,0
0.408,-0.043,0.82,0
0.152,-0.114,0.42,0
-0.242,-0.261,0.008,0
-0.366,-0.326,-0.216,0
-0.403,-0.36,-0.543,0
-0.488,-0.436,-0.762,0
-0.463,-0.587,-0.813,0
-0.31,-0.604,-0.769,0
-0.003,-0.586,-0.754,0
0.19,-0.645,-0.703,0
0.442,-0.575,-0.464,0
0.37,-0.631,-0.25,0
0.207,-0.664,-0.037,0
0.02,-0.608,-0.043,0
-0.167,-0.518,-0.637,0
-0.228,-0.476,-1.12,0
-0.213,-0.5,-1.112,0
-0.184,-0.24,-2.388,0
-0.278,-0.086,-2.595,0
-0.198,0.06,-2.566,0
-0.052,0.335,-2.256,0
0.073,0.465,-2.106,0
0.193,0.612,-2.109,0
0.175,0.672,-1.917,0
0.033,0.627,-1.515,0
-0.128,0.462,-1.261,0
-0.366,0.305,-1.116,0
-0.412,0.325,-1.156,0
-0.302,0.314,-1.361,0
-0.229,0.281,-1.494,0
-0.157,0.374,-1.367,0
-0.015,0.471,-1.042,0
-0.097,0.539,-0.32,0
-0.174,0.5,0.078,0
-0.411,0.433,0.506,0
-0.655,0.422,0.765,0
-0.841,0.445,1.193,0
-0.803,0.476,1.41,0
-0.796,0.617,1.444,0
-0.75,0.671,1.517,0
-0.625,0.721,1.458,0
-0.766,0.853,1.329,0
-1.065,1.424,0.604,0
-0.891,1.696,-0.11,0
-0.202,1.76,-1.07,0
-0.051,1.719,-1.221,0
-0.07,1.792,-0.566,1
-0.225,1.551,0.574,0
-0.359,0.85,2.157,0
-0.249,0.275,3.416,0
-0.104,-0.562,5.058,0
-0.405,-1.035,5.88,0
-1.051,-1.422,6.464,0
-1.062,-1.373,6.445,0
-0.821,-0.983,2.753,0
-0.608,-0.795,0.373,0
-0.549,-0.592,-2.227,0
-0.398,-0.494,-3.188,0
-0.42,-0.309,-3.784,0
-0.429,-0.226,-3.715,0
-0.345,-0.407,-2.736,0
-0.248,-0.521,-1.795,0
-0.035,-0.697,-0.395,0
0.032,-0.796,0.373,0
0.064,-0.86,0.738,0
-0.029,-0.814,0.437,0
-0.127,-0.759,-0.401,0
-0.198,-0.743,-1.189,0
-0.396,-0.606,-2.132,0
-0.376,-0.49,-2.452,0
-0.181,-0.273,-2.723,0
-0.05,-0.169,-2.571,0
-0.012,-0.048,-2.089,0
-0.08,0.028,-1.896,0
-0.133,0.096,-1.723,0
-0.173,0.112,-1.518,0
-0.398,0.063,-1.379,0
-0.578,0.009,-1.502,0
-0.733,0.007,-1.765,0
-0.743,0.038,-1.654,0
-0.578,0.267,-1.255,0
-0.383,0.436,-1.143,0
-0.32,0.541,-0.897,0
-0.493,0.545,-0.706,0
-0.572,0.594,-0.589,0
-0.312,0.679,-0.713,0
-0.233,0.839,-0.07,0
-0.307,0.932,0.441,0
-0.126,0.724,1.277,0
-0.214,0.605,1.611,0
-0.502,0.404,2.343,0
-0.397,0.369,2.816,0
-0.257,0.543,3.102,0
-0.183,0.88,3.095,0
-0.01,1.581,2.587,0
0.32,1.734,1.8,0
1.165,1.528,0.512,0
1.344,1.579,-0.173,0
1.097,1.264,-0.074,1
0.807,0.633,0.812,0
-0.224,0.083,2.217,0
-0.778,-0.311,3.125,0
-0.955,-0.857,3.85,0
-0.983,-0.991,4.337,0
-0.732,-0.815,4.455,0
-0.422,-0.577,3.95,0
-0.074,-0.214,2.191,0
-0.012,-0.056,1.075,0
-0.055,0.057,-0.508,0
-0.036,0.087,-1.332,0
0.013,0.135,-1.731,0
0.019,0.067,-1.599,0
-0.145,-0.179,-1.224,0
-0.239,-0.4,-0.771,0
-0.197,-0.674,-0.175,0
-0.225,-0.708,0.169,0
-0.081,-0.734,0.54,0
0.11,-0.622,0.524,0
0.102,-0.624,0.525,0
0.498,-0.235,-0.367,0
0.295,-0.277,-1.15,0
0.149,-0.276,-1.609,0
-0.037,-0.213,-1.983,0
-0.089,-0.204,-2.197,0
-0.191,-0.16,-2.469,0
-0.188,-0.109,-2.395,0
0.007,0.067,-1.869,0
0.068,0.166,-1.619,0
0.213,0.344,-1.464,0
0.315,0.43,-1.571,0
0.155,0.407,-1.84,0
-0.053,0.362,-1.995,0
-0.214,0.258,-2.009,0
-0.197,0.314,-1.767,0
-0.017,0.379,-1.157,0
0.142,0.411,-0.844,0
0.265,0.563,-0.236,0
0.517,0.634,0.305,0
0.783,0.745,0.748,0
0.751,0.862,0.803,0
0.459,0.874,0.386,0
0.305,0.771,-0.28,0
0.333,0.734,-0.265,0
-0.438,0.603,-0.851,0
-0.362,0.605,-0.35,0
-0.335,0.689,0.313,0
-0.317,0.938,1.656,0
-0.018,0.969,2.366,0
0.134,1.279,3.141,0
-0.312,1.587,3.052,0
-0.622,1.798,1.289,0
-0.627,1.593,0.276,1
-0.361,1.569,-1.573,0
-0.053,1.45,-2.256,0
0.024,1.071,-1.858,0
0.136,0.59,0.011,0
0.31,-0.06,2.705,0
0.3,-0.523,4.538,0
-0.143,-0.783,6.214,0
-0.458,-0.766,6.107,0
-0.558,-0.539,3.129,0
-0.42,-0.316,0.992,0
-0.595,0.014,-1.852,0
-0.769,-0.075,-3.104,0
-1.005,0.012,-3.847,0
-1.165,0.079,-3.583,0
-0.974,-0.043,-2.134,0
-0.638,-0.097,-1.196,0
-0.206,-0.289,0.149,0
-0.09,-0.509,0.791,0
-0.052,-0.78,1.128,0
-0.064,-0.83,0.591,0
-0.069,-0.786,-0.592,0
-0.047,-0.794,-1.545,0
-0.014,-0.715,-2.393,0
-0.168,-0.607,-2.592,0
-0.441,-0.643,-2.14,0
-0.599,-0.604,-1.928,0
-0.868,-0.508,-1.551,0
-0.933,-0.455,-1.285,0
-0.827,-0.291,-1.134,0
-0.759,-0.09,-1.216,0
-0.632,0.109,-1.297,0
-0.539,0.211,-1.459,0
-0.574,0.282,-1.719,0
-0.5,0.307,-1.724,0
-0.431,0.292,-1.419,0
-0.541,0.226,-0.847,0
-0.708,0.077,0.337,0
-0.683,0.054,0.933,0
-0.821,0.027,1.542,0
-0.774,-0.08,2.009,0
-0.816,0.008,2.33,0
-0.718,0.187,2.281,0
-0.542,0.286,1.826,0
-0.452,0.4,1.463,0
-0.185,0.506,0.831,0
-0.019,0.496,0.6,0
0.236,0.432,0.427,0
0.321,0.422,0.53,0
0.22,0.736,0.996,0
-0.167,1.119,1.094,0
-0.222,1.389,0.585,0
0.028,1.32,-0.066,0
0.295,1.447,-0.731,1
0.562,1.498,-0.833,0
0.765,1.089,0.263,0
0.436,0.643,1.459,0
0.044,0.177,2.873,0
0.03,-0.154,3.869,0
0.109,-0.33,4.748,0
-0.09,-0.427,4.865,0
-0.485,-0.607,4.067,0
-0.557,-0.639,3.016,0
-0.481,-0.601,1.323,0
-0.406,-0.498,0.467,0
-0.359,-0.475,-0.495,0
-0.303,-0.5,-0.813,0
-0.005,-0.526,-0.888,0
0.277,-0.5,-0.781,0
0.589,-0.451,-0.681,0
0.699,-0.462,-0.737,0
0.735,-0.568,-1.056,0
0.719,-0.619,-1.434,0
0.461,-0.824,-2.077,0
0.189,-1.008,-2.103,0
-0.073,-1.025,-1.972,0
-0.163,-0.929,-1.813,0
-0.045,-0.598,-1.733,0
0.138,-0.306,-1.854,0
0.306,0.117,-2.159,0
0.309,0.254,-2.368,0
0.15,0.356,-2.703,0
0.019,0.328,-2.812,0
-0.158,0.272,-2.652,0
-0.197,0.21,-2.361,0
-0.141,0.232,-1.713,0
-0.065,0.237,-1.229,0
0.017,0.266,-0.76,0
0.026,0.335,-0.726,0
0.075,0.428,-0.671,0
0.046,0.49,-0.575,0
0.098,0.52,-0.268,0
0.061,0.535,0.146,0
-0.032,0.506,0.488,0
-0.17,0.541,0.703,0
-0.462,0.621,0.83,0
-0.535,0.644,0.887,0
-0.582,0.706,0.972,0
-0.582,0.725,1.029,0
-0.481,0.73,1.146,0
-0.396,0.745,1.352,0
-0.212,0.704,1.92,0
-0.272,0.752,2.411,0
-0.57,1.515,2.185,0
-0.587,1.988,1.48,0
-0.156,2.148,-0.162,0
0.282,2.214,-1.246,0
0.545,2.106,-2.192,1
0.63,1.659,-1.681,0
0.476,0.597,0.901,0
0.153,-0.067,2.862,0
-0.248,-0.904,5.251,0
-0.694,-1.322,6.509,0
-1.164,-1.475,6.615,0
-1.205,-1.261,4.839,0
-0.638,-0.685,1.173,0
-0.351,-0.34,-0.931,0
-0.272,-0.182,-3.365,0
-0.267,-0.208,-4.024,0
-0.415,-0.162,-3.48,0
-0.305,-0.217,-2.215,0
0.108,-0.339,-0.442,0
0.201,-0.533,0.507,0
0.157,-0.798,1.655,0
0.102,-0.804,1.661,0
0.027,-0.766,1.076,0
0.07,-0.821,0.415,0
0.041,-0.838,-0.786,0
-0.008,-0.813,-1.501,0
-0.19,-0.839,-2.342,0
-0.199,-0.76,-2.846,0
-0.29,-0.725,-3.092,0
-0.266,-0.661,-3.149,0
-0.223,-0.409,-2.489,0
-0.197,-0.292,-1.836,0
-0.167,-0.116,-0.966,0
-0.185,-0.014,-0.737,0
-0.223,0.068,-1.048,0
-0.214,0.166,-1.556,0
-0.242,0.209,-2.115,0
-0.286,0.188,-2.28,0
-0.311,0.207,-2.157,0
-0.284,0.226,-1.83,0
-0.248,0.261,-0.863,0
-0.23,0.242,-0.357,0
-0.174,0.4,0.418,0
0.001,0.623,1.147,0
0.069,0.691,1.685,0
-0.125,0.761,1.929,0
-0.314,0.692,1.895,0
-0.399,0.511,1.508,0
-0.429,0.547,1.012,0
-0.326,0.56,0.939,0
-0.082,0.65,1.074,0
0.019,0.804,1.097,0
-0.292,1.169,0.774,0
-0.478,1.291,0.276,0
0.113,1.145,-0.524,0
0.637,1.063,-0.857,0
1.139,0.918,-0.511,1
1.185,0.601,0.502,0
0.685,-0.02,2.781,0
0.018,-0.274,3.867,0
-0.496,-0.733,4.367,0
-0.755,-0.874,3.893,0
-0.665,-0.824,2.994,0
-0.345,-0.576,2.193,0
-0.193,-0.266,1.082,0
-0.135,-0.186,0.455,0
-0.204,-0.331,0.281,0
-0.286,-0.432,0.294,0
-0.276,-0.557,0.479,0
-0.175,-0.575,0.584,0
0.065,-0.741,0.519,0
0.27,-0.725,0.229,0
0.289,-0.707,0.223,0
0.757,-0.732,-0.633,0
0.818,-0.69,-0.681,0
0.799,-0.716,-0.537,0
0.788,-0.684,-0.784,0
0.636,-0.62,-1.019,0
0.503,-0.55,-1.316,0
0.405,-0.446,-1.601,0
0.414,-0.455,-1.598,0
0.212,-0.083,-1.788,0
0.222,0.101,-1.642,0
0.179,0.17,-1.682,0
0.303,0.353,-1.935,0
0.323,0.517,-2.133,0
0.32,0.66,-2.396,0
0.314,0.658,-2.398,0
0.177,0.716,-2.117,0
0.063,0.665,-1.51,0
-0.059,0.525,-0.574,0
-0.077,0.552,-0.06,0
-0.009,0.518,0.573,0
0.138,0.55,0.979,0
0.471,0.635,1.578,0
0.687,0.679,1.583,0
0.847,0.868,1.358,0
0.825,0.879,1.019,0
0.435,0.823,0.681,0
0.021,0.693,0.404,0
-0.275,0.596,0.34,0
-0.333,0.602,0.597,0
-0.227,0.698,1.073,0
-0.109,0.708,1.353,0
-0.106,0.743,1.534,0
-0.2,0.952,1.34,0
-0.595,1.58,0.511,0
-0.693,1.789,-0.496,0
-0.192,1.627,-1.631,0
-0.063,1.56,-1.873,1
0.123,1.174,-1.497,0
0.176,0.784,-0.63,0
0.432,-0.009,1.706,0
0.191,-0.661,3.26,0
-0.34,-1.605,5.378,0
-0.907,-1.825,6.547,0
-1.293,-1.745,6.108,0
-1.12,-1.352,3.87,0
-0.578,-0.713,0.679,0
-0.48,-0.29,-1.475,0
-0.493,-0.2,-3.508,0
-0.587,-0.212,-4.171,0
-0.913,-0.287,-4.026,0
-0.937,-0.517,-2.815,0
-0.515,-0.748,-1.06,0
-0.24,-0.825,0.077,0
0.329,-0.835,1.061,0
0.479,-0.742,1.043,0
0.612,-0.564,0.114,0
0.646,-0.495,-0.749,0
0.648,-0.399,-1.63,0
0.489,-0.539,-2.195,0
-0.386,-0.795,-2.575,0
-0.821,-0.99,-2.201,0
-1.243,-1.093,-1.484,0
-1.42,-1.047,-0.97,0
-1.484,-0.872,-0.738,0
-1.338,-0.592,-0.872,0
-0.699,-0.081,-1.154,0
-0.354,0.17,-1.378,0
-0.103,0.488,-1.617,0
-0.085,0.548,-1.593,0
-0.378,0.461,-1.36,0
-0.612,0.318,-1.082,0
-0.816,0.215,-0.335,0
-0.808,0.232,0.143,0
-0.734,0.365,0.681,0
-0.552,0.428,0.884,0
-0.228,0.553,0.782,0
-0.069,0.795,0.755,0
0.2,1.022,1.063,0
0.163,1.033,1.393,0
-0.148,0.984,1.731,0
-0.178,0.838,1.969,0
-0.245,0.676,2.154,0
-0.336,0.66,2.233,0
-0.314,0.732,2.222,0
-0.335,0.901,1.884,0
-0.713,1.416,0.592,0
-0.587,1.459,-0.372,1
0.645,1.496,-1.288,0
1.328,1.713,-1.42,0
1.497,1.586,0.073,0
1.126,1.103,1.43,0
0.205,0.203,3.878,0
-0.309,-0.21,5.137,0
-0.688,-0.714,6.164,0
-0.654,-0.779,5.884,0
-0.375,-0.579,4.453,0
-0.039,-0.295,3.047,0
0.221,0.109,1.272,0
0.167,0.044,0.091,0
-0.047,-0.182,-1.362,0
-0.187,-0.28,-1.981,0
-0.481,-0.553,-2.226,0
-0.471,-0.823,-1.98,0
-0.473,-1.155,-1.173,0
-0.46,-1.229,-0.494,0
-0.001,-1.171,0.091,0
0.335,-1.034,0.123,0
0.691,-0.865,-0.442,0
0.715,-0.91,-1.041,0
0.537,-0.993,-2.087,0
0.486,-0.966,-2.432,0
0.324,-0.992,-2.389,0
0.23,-1.016,-2.164,0
0.088,-0.84,-1.478,0
0.276,-0.583,-1.17,0
0.259,-0.596,-1.165,0
0.608,-0.055,-1.415,0
0.505,0.095,-1.968,0
0.379,0.13,-2.225,0
0.123,0.165,-2.302,0
0.085,0.161,-2.157,0
0.08,0.258,-1.752,0
0.174,0.31,-1.481,0
0.284,0.33,-1.563,0
0.241,0.331,-1.483,0
0.403,0.419,-1.035,0
0.519,0.505,-0.813,0
0.751,0.63,-0.345,0
0.842,0.669,-0.063,0
0.71,0.64,0.035,0
0.673,0.577,0.13,0
0.541,0.566,0.571,0
0.385,0.579,0.729,0
0.147,0.62,0.813,0
-0.171,0.616,0.954,0
-0.339,0.595,1.121,0
-0.319,0.621,1.177,0
-0.348,0.737,1.216,0
-0.502,0.91,1.258,0
-0.828,1.369,0.669,0
-0.547,1.44,-0.226,0
-0.072,1.54,-0.602,1
0.185,1.446,-0.511,0
0.255,1.233,0.099,0
0.177,0.966,0.849,0
0.4,0.248,2.629,0
0.235,-0.19,3.688,0
-0.449,-1.117,4.997,0
-0.683,-1.422,5.248,0
-1.342,-1.746,4.792,0
-1.316,-1.531,3.265,0
-0.764,-0.898,0.972,0
-0.42,-0.547,-0.868,0
-0.067,-0.287,-2.772,0
0.075,-0.125,-3.349,0
0.016,0.09,-3.255,0
-0.204,0.109,-2.469,0
-0.461,-0.207,-0.884,0
-0.583,-0.454,-0.181,0
-0.639,-0.737,0.685,0
-0.515,-0.686,0.812,0
-0.067,-0.492,0.39,0
0.079,-0.415,-0.024,0
0.205,-0.223,-0.975,0
0.232,-0.219,-1.586,0
-0.058,-0.328,-2.08,0
-0.295,-0.339,-1.778,0
-0.5,-0.351,-0.88,0
-0.606,-0.344,-0.349,0
-0.612,-0.335,-0.352,0
-0.671,-0.197,-0.258,0
-0.386,0.079,-0.778,0
-0.185,0.234,-1.225,0
-0.072,0.393,-1.947,0
-0.092,0.357,-2.19,0
-0.171,0.344,-2.381,0
-0.151,0.316,-2.317,0
-0.225,0.219,-1.697,0
-0.267,0.183,-0.92,0
-0.291,0.129,-0.004,0
-0.433,0.139,0.442,0
-0.614,0.117,1.351,0
-0.629,0.231,1.822,0
-0.685,0.362,2.384,0
-0.628,0.434,2.188,0
-0.414,0.59,1.295,0
-0.328,0.563,0.773,0
-0.234,0.416,0.432,0
-0.262,0.297,0.56,0
-0.483,0.569,0.92,0
-0.757,0.997,0.644,0
-0.42,1.054,-0.452,0
0.315,1.096,-0.912,0
1.113,1.419,-1.588,0
1.632,1.28,-1.301,0
1.493,0.727,0.469,0
1.163,0.141,2.122,1
0.564,-0.735,4.212,0
0.067,-1.082,5.512,0
-0.415,-1.419,6.911,0
-0.565,-1.3,6.795,0
-0.617,-0.822,4.75,0
-0.496,-0.606,2.987,0
-0.066,-0.176,0.364,0
0.002,0.058,-0.767,0
0.22,0.007,-1.768,0
0.336,-0.018,-2.161,0
0.472,-0.157,-1.805,0
0.608,-0.227,-0.864,0
0.871,-0.214,0.313,0
0.97,-0.316,0.444,0
0.859,-0.522,0.212,0
0.831,-0.495,-0.407,0
0.846,-0.5,-0.405,0
0.394,-0.752,-1.144,0
0.064,-0.819,-0.999,0
-0.081,-0.844,-0.916,0
-0.068,-0.857,-0.911,0
-0.49,-0.822,-1.375,0
-0.505,-0.641,-1.918,0
-0.352,-0.413,-2.213,0
-0.14,-0.082,-2.623,0
0.031,0.081,-2.871,0
0.245,0.178,-3.03,0
0.25,0.232,-3.033,0
0.163,0.239,-2.609,0
0.026,0.134,-1.944,0
0.013,0.126,-1.941,0
-0.143,0.157,-0.605,0
-0.091,0.204,-0.226,0
0.07,0.279,-0.299,0
0.408,0.413,-0.55,0
0.71,0.545,-0.677,0
0.99,0.704,-0.527,0
0.944,0.793,-0.184,0
0.793,0.857,0.364,0
0.61,0.853,0.586,0
0.119,0.706,1.28,0
-0.144,0.517,1.656,0
-0.298,0.365,2.22,0
-0.185,0.377,2.37,0
-0.016,0.488,2.24,0
0.083,0.571,1.837,0
-0.085,1.214,1.142,0
-0.234,1.681,0.551,0
-0.12,1.789,-0.901,0
0.022,1.68,-1.659,0
0.168,1.349,-1.55,1
0.179,0.833,-0.676,0
-0.043,0.176,1.123,0
-0.274,-0.478,2.724,0
-0.755,-1.235,4.4,0
-0.896,-1.484,5.277,0
-0.917,-1.508,5.665,0
-0.824,-1.207,4.7,0
-0.407,-0.681,1.678,0
-0.118,-0.408,-0.072,0
-0.203,-0.24,-2.224,0
-0.497,-0.376,-3.089,0
-1.118,-0.398,-3.046,0
-1.317,-0.493,-2.112,0
-0.956,-0.581,-0.356,0
-0.665,-0.519,0.37,0
0.013,-0.435,1.084,0
0.372,-0.305,1.151,0
0.692,-0.151,0.679,0
0.785,-0.101,0.075,0
0.677,-0.133,-0.726,0
0.41,-0.212,-1.26,0
0.06,-0.308,-1.784,0
-0.093,-0.325,-2.002,0
-0.279,-0.307,-2.295,0
-0.291,-0.292,-2.58,0
-0.365,-0.231,-2.774,0
-0.317,-0.062,-2.52,0
-0.109,0.236,-1.984,0
0.18,0.447,-1.717,0
0.285,0.626,-1.23,0
0.394,0.791,-0.691,0
0.245,0.843,-0.366,0
0.049,0.749,-0.543,0
-0.198,0.58,-0.943,0
-0.319,0.408,-1.078,0
-0.279,0.272,-1.019,0
-0.153,0.354,-0.408,0
0.051,0.341,0.325,0
0.051,0.344,0.324,0
-0.124,0.154,1.382,0
-0.091,0.164,1.52,0
0.018,0.365,1.376,0
0.104,0.455,1.209,0
0.102,0.426,1.219,0
0.105,0.607,0.895,0
-0.052,0.559,1.069,0
-0.04,0.593,1.375,0
-0.044,0.877,1.443,0
-0.143,1.207,0.923,0
0.179,1.348,-0.276,0
0.58,1.238,-0.929,0
0.939,1.202,-1.444,1
0.965,1.097,-1.099,0
0.553,0.471,0.799,0
0.102,0.129,2.208,0
-0.297,-0.463,3.56,0
-0.546,-0.844,4.223,0
-0.77,-1.217,4.761,0
-0.749,-1.22,4.899,0
-0.555,-0.975,4.272,0
-0.326,-0.778,3.296,0
0.009,-0.435,1.384,0
0.149,-0.37,0.435,0
0.265,-0.269,-0.847,0
0.305,-0.275,-0.845,0
0.339,-0.405,-1.627,0
0.344,-0.421,-1.649,0
0.554,-0.479,-1.331,0
0.657,-0.503,-1.163,0
0.771,-0.589,-1.137,0
0.655,-0.699,-1,0
0.501,-0.843,-0.633,0
0.467,-0.839,-0.412,0
0.534,-0.772,-0.337,0
0.576,-0.629,-0.558,0
0.764,-0.318,-1.184,0
0.771,-0.142,-1.65,0
0.626,-0.062,-2.333,0
0.569,-0.028,-2.505,0
0.37,0.101,-2.612,0
0.227,0.093,-2.635,0
-0.074,0.034,-2.362,0
-0.222,0.027,-1.689,0
-0.221,0.028,-1.69,0
-0.086,0.244,-0.649,0
0.189,0.468,-0.523,0
0.366,0.599,-0.497,0
0.407,0.754,-0.648,0
0.395,0.769,-0.757,0
0.447,0.849,-0.726,0
0.428,0.842,-0.632,0
0.617,0.759,-0.676,0
0.519,0.656,-0.255,0
0.146,0.58,0.758,0
0.09,0.576,0.941,0
-0.136,0.542,1.033,0
-0.291,0.517,1.258,0
-0.249,0.552,1.582,0
-0.202,0.58,1.598,0
-0.294,0.548,1.798,0
-0.092,0.591,1.896,0
-0.109,0.788,1.622,0
-0.446,1.048,1.164,0
-0.917,1.39,0.023,0
-0.804,1.355,-1.3,0
-0.791,1.301,-1.278,1
-0.291,1.263,-3.16,0
0.216,0.832,-2.404,0
0.223,0.341,-0.675,0
0.065,-0.369,2.116,0
0.066,-0.721,3.663,0
0.145,-0.772,4.977,0
0.253,-0.551,4.714,0
0.576,-0.14,2.179,0
0.553,0.008,0.72,0
0.368,0.155,-1.177,0
0.146,0.035,-1.44,0
-0.47,-0.202,-0.666,0
-0.924,-0.365,0.461,0
-1.197,-0.74,1.563,0
-1.182,-0.926,1.943,0
-0.814,-0.907,2.358,0
-0.427,-0.893,2.261,0
0.042,-0.764,1.275,0
0.133,-0.667,0.414,0
0.133,-0.669,0.414,0
0.135,-0.578,-1.665,0
0.102,-0.541,-2.655,0
0.053,-0.622,-3.382,0
-0.412,-0.729,-3.646,0
-0.595,-0.837,-3.159,0
-0.553,-0.866,-1.946,0
-0.591,-0.702,-1.393,0
-0.47,-0.5,-0.703,0
-0.285,-0.317,-0.387,0
-0.185,-0.052,-0.782,0
-0.282,-0.022,-1.57,0
-0.383,-0.015,-2.249,0
-0.376,-0.015,-2.38,0
-0.354,-0.018,-2.042,0
-0.329,0.007,-1.642,0
-0.324,0.037,-0.642,0
-0.368,0.041,-0.117,0
-0.495,0.072,0.434,0
-0.585,0.045,0.782,0
-0.633,0.048,1.254,0
-0.628,0.26,1.231,0
-0.57,0.541,0.354,0
-0.487,0.687,-0.296,0
-0.407,0.857,-0.903,0
-0.309,0.926,-0.98,0
-0.057,0.85,-0.222,0
0.047,0.745,0.724,0
-0.201,0.636,1.685,0
-0.599,0.792,2.329,0
-0.605,1.003,2.083,0
-0.363,1.133,1.161,0
-0.057,1.001,0.602,0
0.182,0.994,0.558,1
0.457,0.757,1.277,0
0.429,0.469,2.32,0
0.145,0.231,3.881,0
-0.137,-0.018,4.427,0
-0.144,-0.441,4.55,0
-0.151,-0.488,4.261,0
-0.232,-0.358,3.447,0
-0.239,-0.308,2.6,0
-0.202,-0.294,2.595,0
-0.09,-0.131,0.378,0
0.161,-0.102,-0.604,0
0.24,-0.223,-0.969,0
0.235,-0.393,-0.776,0
0.255,-0.452,-0.245,0
0.249,-0.445,-0.247,0
0.672,-0.565,0.6,0
0.786,-0.638,0.475,0
0.815,-0.643,0.169,0
0.567,-0.737,-0.54,0
0.529,-0.734,-0.917,0
0.437,-0.703,-1.221,0
0.165,-0.777,-1.476,0
-0.096,-0.802,-1.971,0
-0.269,-0.774,-2.229,0
-0.149,-0.549,-2.49,0
0.046,-0.284,-2.471,0
0.555,0.175,-2.415,0
0.719,0.351,-2.356,0
0.567,0.521,-2.057,0
0.386,0.459,-1.906,0
-0.162,0.277,-1.637,0
-0.476,0.046,-1.448,0
-0.653,-0.034,-1.091,0
-0.636,-0.055,-0.757,0
-0.217,0.136,-0.572,0
0.058,0.346,-0.459,0
0.275,0.538,-0.667,0
0.485,0.651,-0.838,0
0.874,0.881,-0.413,0
0.904,0.882,0.026,0
0.628,0.765,0.566,0
0.325,0.697,0.783,0
-0.317,0.415,0.877,0
-0.646,0.284,0.765,0
-0.746,0.314,0.486,0
-0.554,0.391,0.348,0
-0.298,0.505,0.303,0
-0.096,0.69,0.614,0
0.172,0.827,1.2,0
0.238,0.935,1.329,0
-0.091,1.299,1.157,0
-0.431,1.644,0.447,0
-0.655,1.555,-0.807,0
-0.539,1.425,-1.56,0
0.107,1.471,-1.924,1
0.468,1.326,-1.104,0
0.925,0.865,1.176,0
0.852,0.277,2.807,0
0.743,-0.448,4.936,0
0.336,-0.774,6.272,0
-0.474,-1.273,6.881,0
-0.77,-1.136,5.578,0
-0.953,-1.012,2.078,0
-0.859,-0.826,0.09,0
-0.875,-0.638,-2.447,0
-0.774,-0.599,-3.416,0
-0.821,-0.476,-3.448,0
-0.815,-0.515,-2.586,0
-0.558,-0.664,-0.873,0
-0.412,-0.811,0.104,0
-0.372,-1.215,1.334,0
-0.382,-1.299,1.621,0
-0.326,-1.213,0.796,0
-0.185,-1.128,-0.075,0
0.178,-0.893,-1.449,0
0.232,-0.671,-2.319,0
0.056,-0.605,-2.814,0
-0.152,-0.627,-2.714,0
-0.535,-0.664,-2.211,0
-0.708,-0.739,-2.047,0
-0.714,-0.728,-2.05,0
-0.702,-0.556,-1.249,0
-0.45,-0.338,-1.296,0
-0.295,-0.178,-1.312,0
-0.118,0.105,-1.332,0
0.069,0.327,-1.455,0
0.234,0.493,-1.587,0
0.176,0.543,-1.619,0
-0.055,0.431,-1.497,0
-0.268,0.333,-1.146,0
-0.452,0.143,-0.445,0
-0.406,0.067,-0.054,0
-0.45,0.033,0.743,0
-0.605,0.051,1.459,0
-0.674,0.02,2.064,0
-0.725,0.18,2.012,0
-0.733,0.426,1.648,0
-0.533,0.519,1.218,0
-0.522,0.501,1.223,0
0.082,0.777,0.573,0
0.438,0.887,1.086,0
0.56,1.076,1.413,0
0.301,1.495,1.368,0
0.293,1.641,0.821,0
0.512,1.546,0.039,0
0.466,1.406,-0.347,0
0.503,1.17,-0.232,1
0.408,0.819,0.514,0
-0.02,0.322,2.327,0
-0.026,0.17,3.281,0
-0.191,-0.175,4.197,0
-0.339,-0.59,4.394,0
-0.556,-0.829,4.359,0
-0.627,-0.832,3.99,0
-0.622,-0.737,2.708,0
-0.672,-0.652,1.681,0
-0.762,-0.748,0.06,0
-0.577,-0.785,-0.941,0
-0.096,-0.494,-2.123,0
0.316,-0.266,-2.403,0
0.778,-0.103,-2.027,0
1.057,-0.098,-1.589,0
0.902,-0.241,-0.869,0
0.599,-0.554,-0.258,0
0.018,-1.098,0.642,0
-0.234,-1.252,0.777,0
-0.287,-1.295,0.118,0
-0.127,-1.159,-0.519,0
0.279,-0.822,-1.622,0
0.463,-0.636,-2.164,0
0.338,-0.586,-2.656,0
0.225,-0.504,-2.699,0
0.304,-0.264,-2.827,0
0.361,-0.14,-3.011,0
0.163,-0.033,-2.685,0
0.001,-0.097,-2.302,0
-0.183,-0.206,-2.079,0
-0.197,-0.057,-1.399,0
0.046,0.213,-0.23,0
0.095,0.419,0.431,0
0.141,0.578,0.687,0
0.266,0.777,0.724,0
0.454,0.934,0.426,0
0.544,0.979,-0.01,0
0.405,0.866,-0.685,0
0.382,0.814,-0.613,0
0.587,0.776,-0.226,0
0.63,0.832,0.181,0
0.377,0.674,0.951,0
0.307,0.662,1.119,0
0.295,0.782,1.057,0
0.309,0.778,1.057,0
0.186,0.826,1.142,0
0.119,0.926,1.162,0
0.178,0.919,1.102,0
0.172,0.825,1.067,0
0.241,0.67,1.045,0
0.219,0.573,0.973,1
-0.178,0.751,1.032,0
-0.234,0.944,0.636,0
-0.251,1.029,-0.514,0
-0.181,0.991,-1.045,0
0.21,1.012,-1.267,0
0.441,1.007,-1.04,0
0.885,0.701,-0.336,0
0.985,0.333,0.657,0
1.028,-0.269,2.095,0
0.756,-0.656,3.348,0
0.231,-1.167,4.74,0
-0.14,-1.207,4.774,0
-0.688,-1.119,2.762,0
-0.725,-0.969,1.015,0
-0.603,-0.665,-0.914,0
-0.75,-0.442,-1.772,0
-0.75,-0.247,-2.321,0
-0.791,-0.094,-2.416,0
-0.701,-0.131,-2.174,0
-0.559,-0.215,-1.655,0
-0.356,-0.461,-0.611,0
-0.265,-0.591,-0.046,0
-0.067,-0.805,0.45,0
-0.001,-0.878,0.528,0
-0.03,-0.91,0.168,0
-0.042,-0.833,-0.28,0
-0.038,-0.819,-0.284,0
-0.259,-0.778,-1.115,0
-0.258,-0.599,-1.347,0
-0.229,-0.503,-1.804,0
-0.279,-0.339,-2.322,0
-0.234,-0.276,-2.504,0
0.006,-0.134,-2.603,0
0.018,-0.044,-2.431,0
0.137,0.061,-2.197,0
0.31,0.099,-2.08,0
0.413,0.332,-1.754,0
0.339,0.429,-1.489,0
0.061,0.239,-0.9,0
-0.116,0.147,-0.702,0
-0.125,0.153,-0.704,0
-0.168,0.068,0.212,0
-0.181,0.074,0.21,0
-0.12,-0.108,1.054,0
-0.091,0.053,1.177,0
-0.156,0.141,1.125,0
-0.274,0.272,0.686,0
-0.261,0.353,0.326,0
-0.221,0.445,0.309,0
-0.07,0.509,0.832,0
0.037,0.448,2.017,0
0.08,0.364,2.637,0
0.189,0.551,2.885,0
0.019,0.836,2.619,0
0.155,1.182,1.291,0
0.488,1.34,0.181,0
1.078,1.43,-0.926,1
1.383,1.431,-1.117,0
1.212,0.947,0.589,0
0.863,0.633,2.001,0
0.181,0.077,3.94,0
-0.115,-0.141,4.771,0
-0.239,-0.227,4.534,0
-0.239,-0.268,3.751,0
-0.185,-0.301,1.876,0
-0.102,-0.274,0.832,0
-0.045,-0.262,-0.427,0
-0.109,-0.463,-0.676,0
-0.056,-0.603,-0.538,0
-0.137,-0.701,-0.228,0
-0.12,-0.799,0.112,0
0.002,-0.916,0.159,0
0.035,-0.95,0.056,0
0.148,-0.938,-0.097,0
0.449,-0.886,-0.7,0
0.638,-0.797,-1.195,0
0.885,-0.722,-1.346,0
0.829,-0.722,-1.189,0
0.643,-0.701,-0.806,0
0.388,-0.673,-0.552,0
0.139,-0.638,-0.712,0
0.051,-0.579,-1.1,0
0.012,-0.386,-1.922,0
0.078,-0.247,-2.419,0
0.479,0.124,-3.114,0
0.683,0.329,-3.259,0
1.006,0.565,-3.417,0
1.166,0.73,-3.072,0
0.835,0.709,-2.251,0
0.389,0.4,-1.584,0
-0.01,0.109,-0.972,0
-0.15,0.097,-0.723,0
-0.069,0.072,-0.246,0
0.035,0.124,0.063,0
0.267,0.377,0.136,0
0.362,0.399,-0.008,0
0.376,0.393,-0.006,0
0.809,0.901,0.58,0
0.684,0.923,0.878,0
0.312,0.76,0.806,0
-0.325,0.448,0.538,0
-0.588,0.32,0.558,0
-0.734,0.203,0.818,0
-0.556,0.269,1.144,0
-0.146,0.615,1.702,0
0.119,0.761,2.008,0
0.153,0.888,1.962,0
0.137,1.182,1.713,0
0.45,1.571,0.775,0
0.739,1.706,-0.113,0
0.742,1.67,-0.1,1
1.098,1.56,-1.302,0
1.078,1.136,-0.467,0
0.95,0.637,0.958,0
0.844,-0.076,3.203,0
0.543,-0.502,4.362,0
0.161,-1.169,5.678,0
-0.104,-1.331,5.646,0
-0.203,-1.104,3.682,0
-0.038,-0.749,1.821,0
0.091,-0.42,-1.167,0
-0.004,-0.312,-2.678,0
-0.184,-0.303,-3.741,0
-0.374,-0.335,-3.191,0
-0.575,-0.354,-0.913,0
-0.731,-0.39,0.407,0
-0.489,-0.483,1.348,0
-0.348,-0.558,1.424,0
-0.252,-0.746,0.914,0
-0.156,-0.769,0.553,0
0.032,-0.733,-0.051,0
0.141,-0.632,-0.458,0
0.265,-0.498,-1.302,0
0.358,-0.403,-2.05,0
0.396,-0.265,-2.895,0
0.282,-0.259,-3.134,0
0.292,-0.266,-3.132,0
-0.116,-0.425,-3.163,0
-0.592,-0.564,-2.328,0
-0.491,-0.421,-1.864,0
-0.042,-0.026,-1.581,0
0.242,0.2,-1.129,0
0.319,0.514,-0.965,0
0.303,0.616,-1.25,0
0.305,0.659,-1.588,0
0.338,0.589,-1.676,0
0.244,0.442,-1.315,0
0.155,0.291,-0.83,0
-0.11,0.027,0.371,0
-0.295,-0.127,1.112,0
-0.622,-0.357,1.834,0
-0.814,-0.417,2.019,0
-0.812,-0.143,1.506,0
-0.712,0.084,0.725,0
-0.349,0.381,-0.406,0
-0.027,0.543,-0.651,0
0.358,0.699,-0.202,0
0.535,0.684,0.535,0
0.659,0.658,1.748,0
0.414,0.751,2.355,0
0.27,1.032,1.955,0
0.415,1.186,1.043,0
0.437,1.179,1.045,0
0.674,1.018,-0.364,0
0.496,0.795,0.238,1
0.169,0.418,1.267,0
-0.264,0.028,2.955,0
-0.32,-0.079,3.496,0
-0.46,-0.435,3.891,0
-0.609,-0.737,4.068,0
-0.637,-0.803,4.063,0
-0.551,-0.712,3.804,0
-0.19,-0.536,2.636,0
0.11,-0.348,1.682,0
0.141,-0.358,1.685,0
0.919,-0.118,-0.506,0
1.192,-0.017,-1.309,0
1.278,0.002,-1.612,0
1.55,-0.036,-1.833,0
1.533,-0.121,-1.758,0
1.298,-0.431,-1.23,0
0.995,-0.675,-0.774,0
0.662,-0.933,-0.131,0
0.705,-0.935,-0.016,0
0.757,-0.722,-0.196,0
0.854,-0.572,-0.589,0
0.973,-0.408,-1.511,0
0.92,-0.293,-2.159,0
0.796,-0.152,-2.588,0
0.677,-0.168,-2.603,0
0.411,-0.288,-2.399,0
0.114,-0.284,-2.11,0
-0.032,-0.271,-1.638,0
-0.01,-0.182,-1.423,0
0.155,0.024,-1.454,0
0.342,0.206,-1.731,0
0.591,0.458,-2.16,0
0.804,0.561,-2.243,0
1.012,0.738,-2.006,0
1.06,0.823,-1.538,0
1.047,0.837,-0.792,0
1.096,0.859,-0.451,0
0.903,0.67,0.371,0
0.773,0.493,0.756,0
0.395,0.348,1.134,0
0.286,0.377,1.086,0
0.359,0.548,0.443,0
0.482,0.684,-0.087,0
0.675,0.844,-0.84,0
0.712,0.873,-0.924,0
0.933,1.001,0.03,0
1.014,0.965,0.944,0
0.905,0.83,2.129,0
0.478,0.659,2.819,0
0.09,0.894,2.577,0
0.004,1.139,1.517,0
-0.093,1.222,-0.409,0
0.372,1.269,-1.511,0
0.744,1.188,-0.917,1
0.507,0.705,1.161,0
0.476,0.034,4.487,0
0.416,-0.524,5.957,0
0.136,-1.153,6.754,0
0.016,-1.407,6.745,0
0.111,-1.386,4.766,0
0.206,-1.128,2.797,0
0.252,-0.876,-0.424,0
0.155,-0.793,-2.043,0
0.1,-0.712,-3.256,0
-0.012,-0.657,-3.1,0
-0.128,-0.498,-1.609,0
0.021,-0.433,-0.448,0
0.17,-0.548,0.456,0
0.174,-0.723,0.846,0
0.149,-0.885,0.823,0
0.124,-0.958,0.549,0
0.064,-0.952,-0.161,0
0.083,-0.905,-0.651,0
0.16,-0.826,-1.423,0
0.282,-0.677,-2.058,0
0.441,-0.472,-2.721,0
0.347,-0.462,-3.044,0
0.193,-0.489,-3.079,0
0.097,-0.385,-2.844,0
-0.037,-0.195,-2.251,0
-0.026,-0.044,-1.974,0
-0.071,0.119,-1.807,0
-0.079,0.21,-1.8,0
0.028,0.356,-1.48,0
0.1,0.423,-1.091,0
0.119,0.606,-0.689,0
0.164,0.692,-0.665,0
0.115,0.645,-0.869,0
0.125,0.614,-1.108,0
0.051,0.587,-1.19,0
-0.063,0.516,-0.863,0
-0.028,0.383,-0.228,0
-0.152,0.328,0.202,0
-0.182,0.317,1.018,0
-0.069,0.407,1.618,0
-0.024,0.66,2.347,0
0.018,0.755,2.354,0
0.199,0.833,1.893,0
0.319,0.833,1.475,0
0.335,0.805,1.485,0
0.577,0.68,0.854,0
0.432,0.832,0.94,0
0.149,1.238,0.753,0
0.186,1.339,0.151,0
0.407,1.16,-0.261,0
0.459,0.951,-0.468,1
0.381,0.792,-0.113,0
0.27,0.22,1.457,0
0.044,-0.101,2.59,0
-0.179,-0.391,3.477,0
0.067,-0.502,3.822,0
0.121,-0.588,3.562,0
0.015,-0.535,3.252,0
-0.156,-0.46,2.73,0
-0.212,-0.391,2.073,0
-0.311,-0.38,0.805,0
-0.301,-0.41,0.234,0
-0.399,-0.482,-0.322,0
-0.505,-0.524,-0.524,0
-0.457,-0.644,-0.571,0
-0.229,-0.687,-0.312,0
-0.221,-0.669,-0.318,0
0.787,-0.439,0.258,0
1.134,-0.35,0.034,0
1.265,-0.332,-0.413,0
1.285,-0.337,-1.096,0
1.126,-0.407,-1.486,0
0.636,-0.626,-1.934,0
0.457,-0.698,-2.052,0
0.353,-0.654,-1.926,0
0.213,-0.61,-1.868,0
0.11,-0.526,-1.75,0
0.114,-0.534,-1.747,0
-0.016,-0.479,-1.546,0
-0.056,-0.137,-1.277,0
-0.046,-0.02,-1.611,0
-0.04,0.048,-1.852,0
0.083,0.184,-2.186,0
-0.042,0.163,-2.358,0
-0.243,0.024,-2.29,0
-0.254,0.013,-1.99,0
-0.07,0.05,-1.494,0
0.056,0.142,-1.109,0
-0.024,0.126,-0.636,0
0.042,0.183,-0.456,0
0.3,0.48,-0.033,0
0.279,0.636,0.098,0
0.19,0.696,0.144,0
0.038,0.7,0.066,0
-0.103,0.781,-0.069,0
0.045,0.879,0.001,0
-0.042,1.054,0.577,0
-0.166,0.96,1.131,0
-0.383,0.693,2.217,0
-0.405,0.689,2.7,0
-0.171,0.841,3.2,0
-0.471,1.274,2.81,0
-0.59,1.584,0.988,0
-0.376,1.528,-0.625,0
-0.281,1.516,-1.93,0
-0.25,1.45,-1.927,1
-0.272,1.023,-0.461,0
-0.175,0.689,1.009,0
0.061,-0.044,3.518,0
0.087,-0.656,5.157,0
0.035,-0.577,5.129,0
-0.335,-1.271,7.226,0
-0.087,-0.81,5.296,0
-0.053,-0.619,3.259,0
-0.195,-0.418,-0.171,0
-0.211,-0.319,-1.766,0
-0.31,-0.282,-3.386,0
-0.503,-0.27,-3.747,0
-0.775,-0.439,-3.181,0
-0.69,-0.626,-2.295,0
-0.492,-0.748,-1.156,0
-0.455,-0.846,-0.632,0
-0.407,-1.124,0.017,0
-0.41,-1.123,0.28,0
-0.311,-1.052,0.311,0
-0.212,-0.901,0.139,0
-0.19,-0.716,-0.691,0
-0.181,-0.629,-1.411,0
-0.192,-0.533,-2.336,0
-0.226,-0.415,-2.817,0
-0.169,-0.314,-3.104,0
-0.097,-0.208,-2.977,0
-0.144,-0.011,-2.343,0
-0.138,0.05,-2.074,0
-0.238,0.101,-1.593,0
-0.264,0.085,-1.146,0
-0.393,0.312,-0.81,0
-0.363,0.45,-0.824,0
-0.27,0.555,-0.825,0
-0.269,0.598,-0.658,0
-0.144,0.79,-0.498,0
-0.087,0.868,-0.475,0
-0.028,0.899,-0.323,0
-0.069,0.846,-0.044,0
0.03,0.682,0.487,0
-0.055,0.598,1.205,0
-0.171,0.6,2.031,0
-0.323,0.53,2.364,0
-0.517,0.309,2.595,0
-0.473,0.356,2.731,0
-0.232,0.477,2.466,0
-0.158,0.587,2.068,0
0.126,0.793,1.452,0
0.145,0.985,1.15,0
-0.275,1.396,0.615,0
-0.215,1.304,-0.015,0
-0.206,1.273,-0.005,1
0.236,0.927,-0.448,0
0.806,0.679,0.546,0
1.002,0.333,1.365,0
0.562,0.247,2.794,0
0.334,0.2,3.258,0
0.273,0.207,2.446,0
0.045,0.194,1.364,0
-0.204,0.094,0.384,0
-0.403,-0.027,0.268,0
-0.697,-0.358,0.9,0
-0.745,-0.605,1.379,0
-0.927,-0.891,1.472,0
-1.024,-1.012,1.243,0
-0.785,-1.15,0.619,0
-0.474,-1.139,0.146,0
-0.455,-1.133,0.143,0
0.32,-1.022,-0.907,0
0.657,-1.012,-1.142,0
0.631,-0.994,-1.064,0
0.301,-1.206,-0.552,0
0.103,-1.288,-0.309,0
-0.173,-1.283,-0.403,0
-0.146,-1.162,-0.75,0
0.012,-0.804,-1.501,0
0.33,-0.534,-2.131,0
0.433,-0.205,-2.595,0
0.429,-0.008,-2.568,0
0.831,0.318,-2.53,0
0.839,0.559,-2.657,0
0.442,0.525,-2.364,0
0.192,0.431,-1.817,0
0.208,0.444,-1.822,0
-0.554,0.241,-0.699,0
-0.488,0.27,-0.404,0
-0.436,0.314,-0.496,0
-0.281,0.482,-0.83,0
-0.076,0.587,-0.898,0
0.221,0.828,-0.765,0
0.361,0.881,-0.556,0
0.591,0.987,0.154,0
0.625,0.995,0.645,0
0.467,1.011,1.245,0
0.298,0.993,1.514,0
0.294,0.97,1.522,0
0.154,0.796,1.712,0
-0.355,0.461,1.993,0
-0.325,0.41,2.081,0
0.051,0.582,2.101,0
0.547,0.728,2.071,0
0.757,1.086,1.554,0
0.302,1.399,1.024,0
-0.386,1.582,-0.898,1
-0.564,1.549,-2.584,0
-0.397,1.275,-3.277,0
-0.196,0.911,-2.605,0
0.243,0.579,0.236,0
0.662,0.235,2.405,0
1.003,-0.663,5.411,0
0.735,-0.969,6.817,0
0.149,-1.355,7.968,0
-0.314,-1.454,6.846,0
-0.754,-1.379,3.573,0
-0.585,-1.032,0.959,0
-0.698,-0.765,-2.163,0
-0.721,-0.7,-3.3,0
-0.7,-0.637,-4.051,0
-0.682,-0.598,-3.88,0
-0.488,-0.673,-2.814,0
-0.124,-0.695,-2.034,0
0.27,-0.734,-0.914,0
0.326,-0.853,-0.592,0
0.233,-1.052,-0.412,0
0.096,-1.091,-0.495,0
-0.065,-1.059,-0.809,0
-0.122,-0.98,-1.117,0
-0.197,-0.795,-1.572,0
-0.272,-0.654,-1.692,0
-0.408,-0.533,-1.974,0
-0.53,-0.378,-2.067,0
-0.34,-0.089,-2.038,0
-0.209,0.126,-1.807,0
0.008,0.293,-1.368,0
0.161,0.338,-1.201,0
0.221,0.47,-0.811,0
0.075,0.378,-0.517,0
-0.244,0.085,-0.111,0
-0.394,-0.006,0.058,0
-0.498,0.018,0.349,0
-0.521,0.072,0.504,0
-0.439,0.239,0.48,0
-0.439,0.396,0.357,0
-0.484,0.486,-0.159,0
-0.229,0.658,-0.309,0
0.115,0.934,0.116,0
0.227,1.014,0.419,0
0.311,0.972,0.839,0
0.024,0.79,1.185,0
0.028,0.781,1.188,0
-0.302,0.091,1.878,0
-0.09,-0.083,1.964,0
0.188,0.045,1.581,0
0.175,0.003,1.596,0
0.153,1.191,-0.476,0
1.171,1.469,-1.94,0
1.833,1.618,-2.424,0
2.034,1.466,-1.481,1
1.683,0.883,0.21,0
0.88,0.046,2.578,0
0.116,-0.396,3.908,0
-0.806,-1.192,5.276,0
-0.989,-1.38,5.374,0
-0.712,-1.269,4.53,0
-0.442,-0.965,3.648,0
0.11,-0.48,2.038,0
0.385,-0.323,1.157,0
0.309,-0.478,0.307,0
0.255,-0.634,-0.041,0
0.3,-0.699,-0.332,0
0.434,-0.846,-0.338,0
0.417,-1.06,0.101,0
0.38,-1.155,0.464,0
0.625,-1.166,0.804,0
0.767,-1.111,0.541,0
0.842,-0.915,-0.228,0
0.924,-0.831,-0.694,0
0.739,-0.711,-1.64,0
0.745,-0.588,-2.243,0
0.712,-0.315,-2.785,0
0.717,-0.2,-2.876,0
0.681,0.055,-2.685,0
0.6,0.144,-2.442,0
0.395,0.21,-2.088,0
0.229,0.209,-1.94,0
0.029,0.164,-1.856,0
-0.042,0.175,-1.823,0
0.188,0.392,-1.81,0
0.402,0.578,-1.743,0
0.454,0.688,-1.66,0
0.372,0.705,-1.627,0
0.239,0.675,-1.417,0
0.129,0.644,-1.202,0
0.088,0.564,-0.951,0
0.145,0.554,-0.695,0
0.313,0.605,0.308,0
0.398,0.625,0.685,0
0.271,0.744,0.951,0
0.202,0.835,1.159,0
0.279,0.804,1.31,0
0.09,0.762,1.277,0
-0.075,0.689,1.252,0
0.102,0.531,1.459,0
0.286,0.474,1.978,0
0.336,0.586,2.196,0
-0.061,0.963,2.107,0
-0.462,1.224,1.421,0
-0.68,1.414,-0.395,0
-0.46,1.461,-1.041,0
0.285,1.598,-1.768,0
0.622,1.434,-1.577,1
0.983,0.832,0.608,0
1.248,0.128,2.797,0
1,-0.977,6.061,0
0.641,-1.396,7.579,0
0.572,-1.327,7.555,0
0.119,-1.667,7.669,0
-0.256,-1.399,4.025,0
-0.094,-1.078,1.428,0
-0.319,-0.599,-2.4,0
-0.544,-0.615,-3.867,0
-0.579,-0.394,-4.316,0
-0.632,-0.25,-3.648,0
-0.088,-0.121,-1.744,0
0.432,-0.076,-0.968,0
0.598,-0.29,-0.135,0
0.578,-0.52,-0.009,0
0.54,-0.784,-0.29,0
0.372,-0.961,-0.56,0
0.076,-1.224,-0.754,0
-0.126,-1.272,-0.78,0
-0.361,-1.284,-1.022,0
-0.422,-1.28,-1.422,0
-0.401,-1.046,-2.327,0
-0.392,-0.831,-2.845,0
-0.226,-0.432,-3.352,0
-0.074,-0.191,-3.419,0
0.212,0.12,-3.238,0
0.34,0.228,-2.925,0
0.233,0.273,-2.06,0
0.086,0.206,-1.176,0
0.055,0.21,-1.176,0
-0.174,0.034,0.304,0
-0.415,0.041,0.323,0
-0.502,0.041,-0.206,0
-0.629,0.021,-1.062,0
-0.596,0.166,-1.388,0
-0.597,0.149,-1.381,0
-0.339,0.405,-1.05,0
-0.394,0.427,-0.227,0
-0.437,0.48,0.251,0
-0.374,0.629,1.318,0
-0.484,0.723,1.54,0
-0.592,0.722,1.869,0
-0.534,0.717,1.751,0
-0.364,0.79,1.388,0
-0.27,0.677,1.271,0
-0.183,0.74,1.14,0
-0.428,0.997,1.048,0
-0.501,1.128,0.368,0
-0.02,1.1,-0.332,1
0.499,1.207,-0.622,0
0.689,1.196,0.075,0
0.9,1.059,2.225,0
0.48,0.658,3.989,0
0.426,0.082,5.404,0
0.316,-0.255,6.105,0
-0.109,-0.646,6.311,0
-0.479,-0.783,5.949,0
-0.76,-0.776,4.53,0
-0.52,-0.594,3.273,0
-0.007,-0.314,0.757,0
0.021,-0.266,-0.43,0
0.06,-0.291,-1.885,0
0.221,-0.328,-2.398,0
0.436,-0.355,-2.338,0
0.614,-0.435,-1.704,0
0.793,-0.562,-0.606,0
0.752,-0.688,-0.286,0
0.596,-0.906,-0.108,0
0.469,-0.983,-0.292,0
0.319,-1.034,-1.017,0
0.317,-1.073,-1.6,0
0.45,-0.94,-2.111,0
0.583,-0.81,-2.12,0
0.716,-0.617,-1.778,0
0.693,-0.504,-1.804,0
0.74,-0.316,-1.788,0
0.705,-0.174,-1.895,0
0.655,0.024,-2.205,0
0.567,0.056,-2.456,0
0.269,-0.058,-2.996,0
0.147,-0.048,-3.355,0
0.296,0.097,-3.602,0
0.429,0.159,-3.488,0
0.628,0.375,-3.113,0
0.55,0.349,-2.673,0
0.262,0.149,-1.522,0
0.121,0.103,-0.931,0
-0.135,-0.052,0.031,0
-0.115,-0.044,0.4,0
-0.16,0.085,0.529,0
-0.16,0.143,0.433,0
0.024,0.41,-0.033,0
0.117,0.538,-0.263,0
0.272,0.698,-0.087,0
0.336,0.76,0.302,0
0.335,0.751,0.306,0
-0.089,0.519,2.023,0
-0.412,0.285,2.981,0
-0.509,0.266,3.368,0
-0.733,0.439,3.194,0
-1.083,0.833,2.218,0
-1.258,1.035,0.58,0
-0.913,1.173,-0.729,0
-0.075,1.563,-2.457,1
0.406,1.693,-2.588,0
0.443,1.548,-0.626,0
0.16,0.936,1.157,0
-0.129,-0.281,3.588,0
-0.4,-1.063,5.351,0
-0.71,-1.859,7.077,0
-0.762,-1.89,7.136,0
-0.521,-1.5,4.656,0
-0.321,-1.205,2.478,0
-0.15,-0.631,-0.927,0
-0.14,-0.517,-2.46,0
-0.406,-0.417,-3.802,0
-0.718,-0.333,-3.795,0
-1.017,-0.462,-2.473,0
-1.014,-0.784,-0.971,0
-0.48,-0.83,0.409,0
-0.277,-0.976,1.118,0
0.345,-0.936,1.525,0
0.734,-0.743,1.227,0
1.051,-0.618,0.131,0
0.968,-0.582,-0.79,0
0.695,-0.639,-1.589,0
0.479,-0.663,-2.044,0
0.09,-0.724,-2.492,0
-0.107,-0.726,-2.639,0
-0.177,-0.577,-2.737,0
-0.097,-0.425,-2.598,0
0.067,-0.076,-2.132,0
0.168,0.109,-1.929,0
0.21,0.374,-1.666,0
0.099,0.42,-1.475,0
-0.274,0.273,-1.13,0
-0.526,0.076,-0.788,0
-0.706,-0.001,-0.455,0
-0.728,0.011,-0.401,0
-0.673,0.064,-0.082,0
-0.649,0.073,0.136,0
-0.647,0.053,0.427,0
-0.677,-0.001,0.731,0
-0.652,0.012,0.725,0
-0.629,0.01,1.245,0
-0.74,0.181,1.088,0
-0.821,0.22,0.778,0
-0.83,0.192,0.789,0
-0.675,0.449,0.119,0
-0.499,0.455,0.3,0
-0.381,0.397,0.722,0
-0.331,0.582,1.571,0
-0.555,1.024,1.93,0
-0.563,1.326,1.625,0
-0.101,1.378,0.612,0
0.241,1.364,-0.517,0
0.353,1.293,-0.375,0
0.345,1.303,-0.378,1
0.095,0.467,2.076,0
-0.454,-0.153,3.875,0
-0.712,-0.641,4.621,0
-1.003,-1.048,5.527,0
-1.135,-1.268,5.911,0
-1.254,-1.124,5.187,0
-1.027,-0.862,3.75,0
-0.586,-0.566,0.919,0
-0.273,-0.379,-0.544,0
0.317,-0.083,-2.08,0
0.538,-0.082,-2.478,0
0.574,-0.104,-2.075,0
0.632,-0.198,-1.362,0
0.54,-0.535,-0.34,0
0.381,-0.717,0.093,0
0.214,-0.903,0.268,0
0.091,-1.037,0.092,0
0.009,-1.086,-0.439,0
0.033,-0.981,-0.717,0
0.037,-0.99,-0.714,0
-0.032,-0.736,-1.353,0
-0.144,-0.759,-1.874,0
-0.331,-0.75,-1.968,0
-0.433,-0.573,-1.752,0
-0.395,-0.463,-1.594,0
-0.389,-0.468,-1.593,0
-0.146,-0.192,-1.78,0
0.025,-0.136,-2.298,0
-0.064,-0.179,-2.291,0
-0.226,-0.238,-1.911,0
-0.236,-0.21,-1.723,0
-0.299,-0.259,-1.624,0
-0.218,-0.173,-1.327,0
0.128,0.151,-0.861,0
0.254,0.304,-0.719,0
0.44,0.589,-0.183,0
0.82,0.877,0.367,0
1.089,1.258,0.497,0
0.958,1.228,0.203,0
0.693,1.04,-0.353,0
0.242,0.818,-0.556,0
-0.097,0.487,-0.294,0
-0.262,0.426,0.153,0
-0.366,0.497,1.208,0
-0.494,0.434,1.699,0
-0.483,0.422,1.704,0
0.092,0.779,2.415,0
0.665,0.965,2.62,0
0.664,1.075,2.328,0
0.259,1.394,1.215,0
-0.003,1.542,0.092,1
0.141,1.431,-1.317,0
0.413,1.459,-1.867,0
0.77,1.509,-1.624,0
0.84,1.242,-0.349,0
0.898,0.27,2.301,0
0.7,-0.48,4.048,0
0.263,-1.309,6.039,0
-0.07,-1.698,7.267,0
-0.328,-1.814,7.243,0
-0.334,-1.548,5.322,0
-0.134,-1.009,1.206,0
-0.066,-0.658,-1.084,0
0.032,-0.555,-3.846,0
-0.07,-0.554,-4.843,0
-0.501,-0.39,-4.994,0
-0.618,-0.429,-3.924,0
-0.273,-0.531,-2.063,0
0.058,-0.526,-0.978,0
0.289,-0.732,0.356,0
0.33,-0.859,0.749,0
0.272,-0.932,0.604,0
0.189,-0.992,0.203,0
0.165,-1.007,-0.564,0
0.113,-0.961,-0.943,0
-0.05,-0.889,-1.194,0
-0.142,-0.805,-1.367,0
-0.327,-0.745,-1.653,0
-0.394,-0.682,-1.81,0
-0.4,-0.58,-1.992,0
-0.37,-0.531,-2.01,0
-0.37,-0.526,-2.011,0
-0.392,-0.348,-1.455,0
-0.33,-0.175,-1.496,0
-0.16,-0.067,-1.425,0
0.002,0.143,-1.506,0
-0.093,0.253,-1.676,0
-0.162,0.144,-1.846,0
-0.233,0.098,-1.718,0
-0.22,0.239,-0.906,0
-0.199,0.267,-0.334,0
-0.223,0.091,0.002,0
-0.292,0.101,0.069,0
-0.433,0.002,0.63,0
-0.536,-0.061,1.106,0
-0.443,0.153,1.411,0
-0.266,0.377,2.036,0
0.029,0.425,2.805,0
0.219,0.52,2.923,0
0.452,0.69,2.97,0
0.564,0.826,2.801,0
0.425,1.203,2,0
0.144,1.411,1.133,0
0.303,1.319,-0.194,0
0.753,1.206,-0.747,0
1.05,1.157,-0.292,1
1.107,0.92,0.748,0
0.923,0.199,2.874,0
0.426,-0.055,3.853,0
-0.053,-0.435,4.773,0
-0.005,-0.56,4.586,0
-0.086,-0.653,3.859,0
-0.083,-0.682,3.129,0
-0.147,-0.455,1.914,0
-0.178,-0.404,1.23,0
-0.131,-0.296,-0.041,0
-0.178,-0.367,-0.613,0
-0.337,-0.629,-1.295,0
-0.319,-0.659,-1.519,0
-0.118,-0.747,-1.542,0
0.137,-0.773,-1.113,0
0.515,-0.712,-0.37,0
0.666,-0.82,0.076,0
0.574,-1.015,0.256,0
0.456,-1.076,0.045,0
0.186,-1.207,-0.416,0
0.139,-1.221,-0.754,0
0.067,-1.29,-1.527,0
-0.051,-1.167,-1.878,0
0.029,-0.925,-2.37,0
0.099,-0.713,-2.755,0
0.153,-0.366,-3.023,0
0.28,-0.142,-3.116,0
0.406,0.199,-3.046,0
0.384,0.324,-2.786,0
0.278,0.371,-2.211,0
0.12,0.337,-2.042,0
-0.252,0.255,-1.762,0
-0.447,0.127,-1.577,0
-0.54,-0.056,-1.622,0
-0.649,-0.17,-1.341,0
-0.67,-0.182,-1.337,0
-0.386,0.155,-0.42,0
-0.204,0.286,-0.111,0
-0.015,0.507,0.286,0
0.436,0.844,0.543,0
0.518,0.962,0.43,0
0.395,0.972,0.401,0
0.156,0.863,0.199,0
-0.262,0.623,-0.223,0
-0.486,0.409,0.092,0
-0.747,0.259,1.042,0
-0.703,0.394,1.645,0
-0.438,0.557,2.174,0
-0.275,0.497,2.063,0
0.22,0.7,1.843,0
0.443,1.231,1.835,0
0.111,1.966,1.278,1
-0.051,1.954,0.364,0
0.24,2.031,-0.621,0
0.239,1.923,-0.708,0
0.3,2.006,-1.143,0
0.479,1.74,-0.929,0
0.959,0.7,1.257,0
0.947,0.033,3.212,0
0.323,-1.085,5.705,0
-0.198,-1.702,6.925,0
-0.882,-1.907,6.299,0
-1.066,-1.809,4.497,0
-0.726,-1.43,0.925,0
-0.482,-1.08,-1.008,0
-0.119,-0.775,-3.222,0
-0.015,-0.569,-3.851,0
-0.17,-0.401,-3.111,0
-0.017,-0.52,-1.731,0
0.179,-0.738,-0.202,0
0.234,-1.015,0.789,0
0.383,-1.247,1.779,0
0.419,-1.276,1.989,0
0.353,-1.34,1.387,0
0.37,-1.255,0.607,0
0.389,-1.007,-1.035,0
0.353,-0.789,-1.963,0
0.297,-0.566,-2.939,0
0.225,-0.469,-3.466,0
0.066,-0.35,-3.66,0
0.1,-0.243,-3.417,0
0.051,-0.155,-2.596,0
-0.004,-0.094,-2.123,0
-0.118,0.016,-1.642,0
-0.399,-0.159,-1.275,0
-0.593,-0.13,-1.569,0
-0.718,-0.031,-1.614,0
-0.594,-0.05,-1.427,0
-0.533,0.079,-1.246,0
-0.69,0.115,-0.793,0
-0.774,0.056,-0.403,0
-0.775,0.139,0.016,0
-0.693,0.14,0.28,0
-0.706,0.134,0.283,0
-0.499,0.143,0.905,0
-0.318,0.201,1.325,0
-0.135,0.189,1.628,0
0.037,0.368,1.663,0
0.066,0.35,1.608,0
0.238,0.215,1.851,0
0.32,0.237,2.101,0
0.213,0.308,2.413,0
0.012,0.599,2.394,0
0.01,0.563,2.408,0
-0.016,1.41,0.623,0
0.753,1.493,-0.286,0
1.073,1.616,-0.722,0
1.057,1.299,-0.125,1
0.781,0.763,1.14,0
0.025,-0.018,2.964,0
-0.305,-0.416,3.758,0
-0.698,-1.081,4.662,0
-0.932,-1.438,4.892,0
-1.09,-1.534,4.432,0
-0.966,-1.364,3.728,0
-0.691,-1.227,2.278,0
-0.6,-1.142,1.413,0
-0.472,-1.019,-0.08,0
-0.422,-1.024,-0.744,0
-0.47,-1.095,-1.351,0
-0.306,-1.127,-1.553,0
0.074,-1.12,-1.417,0
0.416,-0.901,-1.126,0
0.943,-0.668,-0.796,0
1.145,-0.553,-0.717,0
1.115,-0.501,-0.906,0
1.04,-0.508,-1.181,0
0.901,-0.494,-1.6,0
0.843,-0.477,-1.898,0
0.805,-0.34,-2.261,0
0.723,-0.329,-2.367,0
0.463,-0.294,-2.589,0
0.308,-0.284,-2.768,0
0.229,-0.144,-2.504,0
0.334,-0.016,-2.222,0
0.558,0.239,-1.888,0
0.638,0.356,-1.613,0
0.713,0.487,-1.445,0
0.661,0.533,-1.44,0
0.458,0.483,-1.421,0
0.29,0.42,-1.34,0
0.066,0.398,-0.927,0
-0.055,0.394,-0.81,0
-0.112,0.399,-0.38,0
-0.044,0.413,-0.175,0
0.198,0.522,0.206,0
0.256,0.54,0.441,0
0.219,0.591,0.854,0
0.186,0.634,1.116,0
-0.062,0.532,1.165,0
-0.235,0.473,0.792,0
-0.254,0.538,0.35,0
-0.137,0.591,0.266,0
0.007,0.693,0.509,0
0.098,0.707,0.924,0
0.227,0.712,1.822,0
0.367,0.656,2.464,0
0.269,0.795,2.911,0
-0.262,1.201,2.659,0
-0.8,1.581,1.122,1
-0.78,1.408,-0.157,0
-0.181,1.583,-1.477,0
0.094,1.701,-1.701,0
0.638,1.446,-0.686,0
0.588,1.005,0.569,0
0.403,0.038,2.63,0
0.508,-0.565,4.015,0
0.342,-1.028,5.466,0
0.166,-1.134,5.828,0
0.28,-1.071,4.011,0
0.229,-0.898,2.062,0
0.192,-0.683,-0.502,0
0.18,-0.52,-1.684,0
-0.034,-0.515,-2.873,0
-0.419,-0.559,-3.236,0
-0.798,-0.802,-2.93,0
-0.708,-1.03,-2.071,0
-0.469,-1.207,-0.854,0
-0.328,-1.233,-0.268,0
-0.021,-1.303,0.501,0
0.234,-1.205,0.723,0
0.357,-1.115,0.788,0
0.358,-1.086,0.444,0
0.283,-0.972,-0.978,0
0.208,-0.845,-2.007,0
0.08,-0.891,-2.698,0
0.136,-0.779,-3.001,0
-0.092,-0.662,-2.522,0
-0.041,-0.558,-2.082,0
0.145,-0.306,-1.579,0
0.24,-0.124,-1.46,0
0.374,0.093,-1.53,0
0.452,0.171,-1.802,0
0.378,0.23,-1.843,0
0.124,0.149,-1.544,0
-0.105,0.01,-0.99,0
-0.146,-0.008,-0.709,0
-0.079,0.095,-0.513,0
0.047,0.173,-0.322,0
0.157,0.236,0.052,0
0.083,0.247,0.343,0
-0.116,0.106,0.738,0
-0.191,0.138,1.199,0
-0.087,0.343,1.524,0
0.015,0.425,1.298,0
0.089,0.471,0.811,0
0.161,0.481,0.602,0
0.296,0.444,0.385,0
0.314,0.485,0.454,0
0.325,0.639,0.708,0
0.193,1.105,0.658,0
-0.225,1.706,-0.149,0
-0.002,1.61,-0.826,0
0.975,1.465,-1.084,0
1.49,1.584,-0.78,0
1.479,1.598,-0.786,1
1.256,0.463,2.941,0
0.079,-0.089,4.76,0
-0.505,-0.509,5.551,0
-0.619,-1.078,5.999,0
-0.662,-1.104,5.66,0
-0.597,-0.897,4.377,0
-0.313,-0.645,3.075,0
-0.001,-0.355,1.306,0
0.084,-0.338,0.386,0
0.115,-0.685,-0.93,0
0.156,-0.767,-1.493,0
0.278,-0.864,-1.726,0
0.475,-0.989,-1.346,0
0.643,-1.163,-0.505,0
0.655,-1.216,0.044,0
0.536,-1.345,0.352,0
0.499,-1.424,0.264,0
0.512,-1.402,0.256,0
0.512,-1.123,-1.202,0
0.572,-0.896,-2.435,0
0.488,-0.835,-3.04,0
0.227,-0.737,-3.208,0
0.211,-0.642,-3.144,0
0.168,-0.428,-2.688,0
0.191,-0.224,-2.251,0
0.232,0.012,-1.794,0
0.136,0.066,-1.787,0
-0.171,0.147,-1.867,0
-0.262,0.242,-1.783,0
-0.366,0.281,-1.682,0
-0.472,0.396,-1.521,0
-0.43,0.453,-1.206,0
-0.261,0.538,-0.848,0
-0.161,0.644,-0.273,0
-0.133,0.615,-0.052,0
-0.102,0.453,0.324,0
0.073,0.549,0.579,0
0.415,0.662,0.95,0
0.423,0.627,1.133,0
0.098,0.625,1.172,0
0.115,0.683,1.016,0
0.107,0.845,0.669,0
-0.055,0.861,0.384,0
0.026,0.874,0.194,0
0.027,0.912,0.294,0
-0.071,0.879,1.057,0
-0.017,0.842,1.778,0
0.075,1.069,2.671,0
-0.297,1.364,3.255,0
-0.665,1.435,2.531,1
-0.581,1.447,0.531,0
-0.38,1.378,-1.177,0
-0.067,1.284,-1.748,0
0.109,1.018,-1.339,0
0.064,0.697,-0.334,0
0.27,0.056,1.853,0
0.201,-0.373,3.144,0
0.101,-1.055,4.549,0
-0.209,-1.202,5.012,0
-0.544,-1.228,3.966,0
-0.574,-0.977,1.988,0
-0.461,-0.578,-0.386,0
-0.495,-0.603,-1.488,0
-0.815,-0.723,-2.984,0
-0.94,-0.667,-3.318,0
-0.832,-0.766,-2.663,0
-0.619,-0.891,-1.784,0
-0.215,-1.039,-0.609,0
-0.154,-1.348,0.408,0
0.006,-1.619,1.151,0
-0.078,-1.71,1.133,0
-0.232,-1.748,0.434,0
-0.211,-1.693,-0.229,0
-0.07,-1.413,-1.431,0
-0.009,-1.249,-2.155,0
-0.052,-1.034,-2.839,0
0.112,-0.85,-3.264,0
0.104,-0.842,-3.267,0
0.022,-0.277,-2.967,0
-0.26,-0.264,-2.215,0
-0.57,-0.228,-1.699,0
-0.836,-0.156,-0.88,0
-0.885,-0.071,-0.726,0
-0.95,0.062,-0.87,0
-0.823,0.226,-0.78,0
-0.578,0.402,-0.682,0
-0.402,0.454,-0.6,0
-0.41,0.519,0.254,0
-0.432,0.547,0.83,0
-0.546,0.405,1.364,0
-0.633,0.37,1.735,0
-0.691,0.408,2.133,0
-0.638,0.487,1.864,0
-0.572,0.611,1.182,0
-0.327,0.724,0.784,0
-0.112,0.892,0.402,0
0.077,0.943,0.252,0
0.205,0.926,0.275,0
0.372,0.962,0.501,0
0.671,1.05,1.32,0
0.514,1.242,1.56,1
-0.215,1.722,0.884,0
-0.297,1.588,-0.092,0
0.177,1.315,-1.084,0
0.583,1.293,-1.52,0
1.034,1.139,-1.18,0
0.959,0.618,0.501,0
0.373,-0.059,3.445,0
0.104,-0.217,4.769,0
-0.531,-0.861,6.276,0
-0.663,-1.069,6.314,0
-0.568,-0.957,4.768,0
-0.319,-0.649,3.009,0
-0.012,-0.51,1.307,0
0.06,-0.577,0.198,0
-0.188,-0.754,-0.856,0
-0.205,-0.846,-1.114,0
-0.205,-0.952,-1.353,0
-0.115,-1.003,-1.191,0
0.117,-1.079,-0.575,0
0.337,-1.072,-0.183,0
0.469,-1.144,0.249,0
0.586,-1.151,0.331,0
0.575,-1.057,0.28,0
0.329,-1.071,-0.057,0
0.026,-1.126,-0.81,0
-0.004,-1.066,-1.075,0
0.079,-0.867,-1.656,0
0.065,-0.736,-1.984,0
0.074,-0.474,-2.392,0
0.106,-0.302,-2.482,0
0.084,-0.069,-2.371,0
-0.008,0.069,-2.315,0
-0.055,0.206,-2.476,0
-0.05,0.229,-2.63,0
-0.079,0.255,-2.531,0
-0.161,0.256,-1.828,0
-0.087,0.237,-0.576,0
-0.213,0.263,-0.065,0
-0.456,0.235,0.017,0
-0.657,0.106,-0.253,0
-0.735,0.092,-0.826,0
-0.621,0.164,-1.104,0
-0.39,0.364,-0.779,0
-0.261,0.366,-0.51,0
-0.539,0.357,-0.048,0
-0.583,0.427,0.3,0
-0.46,0.552,0.296,0
-0.22,0.787,0.551,0
-0.021,0.948,1.389,0
-0.298,0.766,1.9,0
-0.437,0.597,2.369,0
-0.506,0.481,2.515,0
-0.354,0.357,2.37,0
-0.375,0.534,2.104,0
-0.367,0.479,2.125,0
-0.975,1.605,0.052,0
-0.328,1.79,-1.709,1
-0.089,1.853,-2.161,0
0.321,1.687,-1.669,0
0.793,1.277,-0.367,0
1.267,0.169,2.294,0
1.212,-0.531,4.124,0
0.38,-1.357,6.544,0
-0.225,-1.609,7.431,0
-0.926,-1.75,6.184,0
-0.948,-1.442,3.778,0
-0.52,-1.055,0.341,0
-0.808,-0.823,-1.914,0
-0.975,-0.82,-3.25,0
-0.879,-0.696,-3.228,0
-0.884,-0.5,-2.075,0
-0.594,-0.417,-1.216,0
0.094,-0.502,0.003,0
0.255,-0.628,0.68,0
0.361,-0.778,1.167,0
0.354,-0.838,0.957,0
0.419,-0.818,0.084,0
0.341,-0.807,-0.779,0
0.106,-0.835,-1.902,0
0.03,-0.825,-2.346,0
-0.03,-0.689,-2.862,0
-0.087,-0.608,-2.961,0
-0.081,-0.51,-2.866,0
-0.007,-0.328,-2.489,0
0.209,-0.099,-1.994,0
0.268,-0.023,-1.848,0
0.243,0.085,-1.714,0
0.182,0.148,-1.766,0
0.005,0.054,-2.177,0
-0.164,-0.031,-2.228,0
-0.298,-0.083,-1.645,0
-0.278,-0.016,-1.215,0
-0.282,0.059,-0.407,0
-0.348,0.156,-0.092,0
-0.416,0.18,0.489,0
-0.332,0.269,0.683,0
-0.339,0.277,0.681,0
-0.282,0.446,1.128,0
-0.483,0.212,1.294,0
-0.53,0.143,1.301,0
-0.46,0.078,1.524,0
-0.403,-0.053,1.991,0
-0.319,-0.083,2.169,0
-0.067,-0.011,2.221,0
0.676,0.182,2.227,0
0.947,0.41,2.055,0
0.945,0.363,2.072,0
-0.058,1.299,1.181,0
0.309,1.185,0.125,0
0.55,1.245,-0.721,0
0.893,1.335,-0.933,1
1.115,1.046,-0.378,0
0.719,0.631,1.379,0
0.325,0.305,2.438,0
0.117,-0.372,3.209,0
0.186,-0.561,3.339,0
-0.034,-0.68,3.576,0
-0.083,-0.747,3.495,0
-0.207,-0.844,2.394,0
-0.28,-0.815,1.31,0
-0.295,-0.85,0.091,0
-0.282,-0.846,-0.408,0
-0.283,-0.979,-0.694,0
-0.29,-1.13,-0.459,0
-0.145,-1.24,0.246,0
-0.218,-1.267,0.567,0
0.088,-1.263,0.836,0
0.423,-1.047,0.685,0
0.442,-1.035,0.681,0
1.025,-0.627,-0.958,0
1.359,-0.38,-2.072,0
1.381,-0.226,-2.673,0
1.102,-0.228,-3.074,0
0.935,-0.255,-3.187,0
0.461,-0.319,-2.698,0
0.217,-0.332,-2.612,0
-0.009,-0.242,-2.354,0
-0.186,-0.154,-2.029,0
-0.217,-0.088,-1.815,0
-0.174,0.062,-1.52,0
-0.128,0.261,-1.619,0
0.07,0.399,-1.954,0
0.436,0.637,-2.153,0
0.474,0.679,-2.072,0
0.319,0.627,-1.679,0
0.291,0.53,-1.292,0
0.139,0.463,-0.89,0
-0.072,0.354,-0.525,0
-0.151,0.206,0.022,0
0.005,0.295,0.322,0
0.215,0.655,0.509,0
0.26,0.771,0.494,0
0.164,0.908,0.252,0
-0.098,0.84,0.307,0
-0.349,0.676,0.6,0
-0.466,0.534,1.289,0
-0.521,0.413,2.012,0
-0.492,0.389,2.336,0
-0.27,0.525,2.627,0
-0.309,0.763,2.571,0
-0.315,0.726,2.585,0
-0.845,1.717,0.212,1
-0.834,1.674,0.228,0
-0.221,1.706,-2.141,0
0.66,1.557,-2.319,0
0.745,1.109,-1.144,0
0.803,0.084,2.131,0
0.415,-0.73,4.972,0
-0.379,-1.802,7.852,0
-0.757,-1.931,8.502,0
-0.925,-1.753,6.958,0
-0.604,-1.219,3.828,0
-0.013,-0.449,0.017,0
0.311,-0.064,-2.318,0
0.252,0.004,-4.139,0
-0.147,-0.049,-4.154,0
-0.716,-0.346,-2.479,0
-0.571,-0.537,-0.957,0
-0.628,-0.495,-0.971,0
-0.041,-0.991,1.665,0
0.266,-1.159,2.316,0
0.45,-0.999,1.789,0
0.464,-0.975,0.836,0
0.348,-0.992,0.136,0
0.259,-0.979,-1.258,0
0.222,-0.883,-1.905,0
-0.126,-0.865,-2.271,0
-0.169,-0.956,-3.001,0
-0.348,-0.82,-3.381,0
-0.357,-0.636,-2.787,0
-0.212,-0.439,-1.941,0
-0.166,-0.205,-1.364,0
-0.064,0.026,-1.152,0
-0.217,0.103,-1.262,0
-0.164,0.159,-1.434,0
-0.148,0.153,-1.467,0
-0.338,0.135,-1.425,0
-0.395,0.067,-1.432,0
-0.51,-0.05,-1.363,0
-0.497,-0.021,-1.369,0
-0.25,0.051,-0.944,0
-0.061,0.109,-0.813,0
0.019,0.109,-0.496,0
-0.095,0.017,-0.215,0
-0.112,0.018,-0.215,0
-0.146,0.342,1.077,0
-0.166,0.382,1.941,0
-0.201,0.404,1.905,0
-0.043,0.492,1.761,0
0.143,0.514,1.528,0
0.034,0.485,1.413,0
-0.159,0.597,1.572,0
-0.495,1.172,1.431,0
-0.526,1.371,0.808,0
0.294,1.354,-0.009,0
0.774,1.493,-0.276,0
1.266,1.565,-0.048,1
1.284,1.213,0.631,0
0.432,0.466,2.443,0
0.05,0.01,3.062,0
-0.345,-0.618,3.743,0
-0.429,-0.896,4.091,0
-0.396,-0.914,4.22,0
-0.394,-0.773,3.761,0
-0.301,-0.695,2.175,0
-0.259,-0.675,1.066,0
-0.38,-0.9,0.251,0
-0.547,-1.04,-0.028,0
-0.779,-1.125,0.229,0
-0.758,-1.245,0.577,0
-0.426,-1.139,0.911,0
-0.114,-0.999,0.85,0
0.252,-0.838,0.229,0
0.318,-0.815,-0.369,0
0.339,-0.821,-0.367,0
0.167,-0.897,-1.746,0
0.223,-0.785,-2.082,0
0.241,-0.726,-1.95,0
0.274,-0.57,-1.587,0
0.282,-0.474,-1.578,0
0.281,-0.484,-1.575,0
0.107,-0.335,-1.685,0
0.073,-0.163,-1.857,0
0.118,-0.08,-2.125,0
0.128,0.08,-2.341,0
0.175,0.081,-2.479,0
0.327,0.249,-2.716,0
0.312,0.371,-2.634,0
0.254,0.403,-1.979,0
0.256,0.446,-1.51,0
0.181,0.473,-0.847,0
0.093,0.499,-0.414,0
0.049,0.55,0.153,0
-0.011,0.576,0.576,0
0.107,0.657,0.715,0
0.079,0.613,0.498,0
-0.106,0.528,0.094,0
-0.278,0.519,-0.114,0
-0.392,0.498,-0.324,0
-0.489,0.482,-0.298,0
-0.602,0.439,0.009,0
-0.669,0.386,0.26,0
-0.588,0.437,0.548,0
-0.548,0.425,0.971,0
-0.482,0.406,1.613,0
-0.396,0.571,2.176,0
-0.605,1.318,2.192,0
-0.761,1.539,1.138,0
-0.661,1.394,-0.514,0
-0.454,1.394,-1.092,0
-0.468,1.363,-1.079,1
0.094,1.301,-0.668,0
0.336,0.515,1.468,0
0.393,-0.053,2.555,0
0.266,-0.925,4.945,0
0.138,-1.249,6.715,0
-0.298,-1.34,7.369,0
-0.531,-1.223,6.07,0
-0.65,-1.174,2.343,0
-0.649,-0.826,-0.297,0
-0.742,-0.717,-2.886,0
-0.719,-0.737,-4.049,0
-0.86,-0.54,-4.373,0
-0.861,-0.488,-3.809,0
-0.515,-0.607,-1.92,0
-0.273,-0.661,-0.961,0
-0.125,-1.044,0.553,0
-0.118,-1.145,1.022,0
-0.155,-1.172,0.948,0
-0.154,-1.163,0.49,0
-0.031,-1.118,-0.623,0
0.053,-0.984,-1.437,0
0.273,-0.757,-2.257,0
0.333,-0.616,-2.553,0
0.309,-0.483,-2.601,0
0.215,-0.463,-2.529,0
-0.078,-0.427,-1.744,0
-0.314,-0.477,-1.317,0
-0.428,-0.438,-0.905,0
-0.414,-0.327,-0.861,0
-0.352,-0.178,-1.068,0
-0.2,-0.067,-1.446,0
-0.05,0.06,-1.223,0
-0.036,0.171,-1.023,0
-0.158,0.172,-0.656,0
-0.247,0.057,-0.576,0
-0.496,0.07,-0.113,0
-0.509,0.083,0.107,0
-0.507,0.094,0.103,0
-0.507,-0.043,0.73,0
-0.609,-0.111,1.091,0
-0.349,-0.07,1.33,0
-0.241,0.199,1.367,0
-0.019,0.26,1.204,0
0.123,0.392,1.324,0
0.109,0.412,1.504,0
0.295,0.43,1.437,0
0.409,0.532,1.541,0
0.459,0.666,1.412,0
0.293,1.013,0.856,0
0.24,1.417,-0.392,0
0.759,1.465,-0.89,0
1.208,1.512,-1.016,1
1.161,1.455,-0.788,0
0.842,0.93,0.733,0
0.366,0.608,2.083,0
-0.186,0.164,2.711,0
-0.26,-0.246,2.925,0
0.006,-0.671,3.458,0
-0.065,-0.802,4.282,0
-0.56,-0.876,5.121,0
-0.753,-0.885,4.779,0
-1.023,-0.936,2.956,0
-0.971,-0.915,1.413,0
-0.716,-0.938,-0.093,0
-0.722,-0.915,-0.903,0
-0.689,-0.969,-1.304,0
-0.387,-1.021,-1.195,0
0.041,-0.986,-0.986,0
0.211,-0.987,-0.745,0
0.283,-1.077,-0.118,0
0.208,-1.138,0.017,0
0.337,-1.058,-0.406,0
0.347,-1.052,-0.409,0
0.291,-0.767,-0.976,0
0.235,-0.643,-1.228,0
0.235,-0.42,-1.665,0
0.163,-0.324,-2.035,0
-0.021,-0.263,-2.335,0
-0.033,-0.158,-2.439,0
0.007,0.03,-2.546,0
-0.012,0.16,-2.43,0
-0.003,0.155,-2.428,0
0.226,0.329,-1.835,0
0.211,0.312,-1.368,0
0.148,0.292,-1.018,0
0.04,0.301,-0.741,0
0.137,0.283,-0.679,0
0.292,0.345,-0.648,0
0.328,0.323,-0.698,0
0.336,0.225,-0.653,0
0.435,0.268,-0.634,0
0.485,0.361,-0.427,0
0.414,0.425,-0.298,0
0.26,0.514,-0.445,0
0.221,0.6,-0.512,0
0.198,0.711,-0.172,0
0.162,0.683,0.075,0
-0.03,0.569,0.557,0
-0.076,0.563,0.981,0
-0.07,0.643,1.66,0
0.002,0.728,1.809,0
-0.13,0.838,1.733,0
-0.318,1.173,1.344,0
-0.307,1.139,1.357,0
-0.145,1.685,-0.549,0
0.432,1.686,-0.717,0
0.718,1.757,-0.534,0
0.595,1.479,1.006,1
0.654,0.879,2.657,0
0.608,0.09,4.593,0
0.216,-0.438,5.648,0
-0.408,-1.402,7.008,0
-0.812,-1.77,6.88,0
-1.152,-1.716,5.319,0
-0.983,-1.544,3.749,0
-0.537,-0.861,0.426,0
-0.273,-0.602,-1.772,0
0.103,-0.399,-4.039,0
0.005,-0.238,-4.751,0
-0.449,-0.285,-4.352,0
-0.656,-0.422,-3.035,0
-0.567,-0.571,-1.057,0
-0.564,-0.816,0.067,0
-0.314,-0.939,1.437,0
-0.245,-0.927,1.771,0
0.011,-0.865,1.498,0
0.181,-0.814,0.801,0
0.213,-0.76,-0.463,0
0.143,-0.75,-1.115,0
0.002,-0.729,-1.862,0
-0.024,-0.663,-2.239,0
0.042,-0.392,-2.633,0
0.052,-0.264,-2.628,0
-0.108,-0.179,-2.288,0
-0.217,-0.115,-1.862,0
-0.36,-0.023,-1.281,0
-0.449,-0.058,-1.072,0
-0.534,-0.045,-1.022,0
-0.506,-0.012,-1.15,0
-0.25,0.116,-1.339,0
-0.002,0.198,-1.44,0
0.095,0.299,-1.501,0
0.119,0.251,-1.504,0
0.016,0.116,-1.154,0
-0.15,0.02,-0.596,0
-0.327,-0.12,0.326,0
-0.444,-0.225,0.916,0
-0.328,-0.272,1.55,0
-0.571,-0.167,1.54,0
-0.729,-0.029,1.288,0
-0.561,0.087,1.024,0
-0.237,0.516,0.438,0
-0.164,0.687,0.275,0
0.158,0.712,0.517,0
0.3,0.673,0.99,0
0.04,0.814,1.648,0
-0.285,1.132,1.567,0
-0.375,1.082,0.616,0
0.014,0.892,0.158,0
0.033,0.873,0.165,1
0.63,1.065,-0.331,0
0.71,0.794,0.66,0
0.455,0.538,1.847,0
-0.004,0.026,2.906,0
-0.052,-0.332,3.187,0
-0.004,-0.856,3.926,0
-0.138,-1.068,4.366,0
-0.441,-1.259,5.032,0
-0.622,-1.232,4.749,0
-0.491,-0.986,2.446,0
-0.166,-0.679,0.692,0
0.303,-0.285,-1.361,0
0.434,-0.185,-2.465,0
0.569,-0.055,-3.535,0
0.623,-0.097,-3.782,0
0.53,-0.371,-2.646,0
0.534,-0.54,-1.568,0
0.506,-0.772,-0.434,0
0.541,-0.924,0.296,0
0.786,-0.87,0.759,0
0.72,-0.791,0.611,0
0.652,-0.769,-0.102,0
0.642,-0.702,-0.739,0
0.507,-0.557,-1.67,0
0.441,-0.501,-2.087,0
0.487,-0.474,-2.804,0
0.376,-0.432,-2.978,0
0.287,-0.295,-2.242,0
0.301,-0.166,-1.712,0
0.197,-0.088,-1.711,0
0.261,0.062,-1.908,0
0.083,0.054,-1.857,0
-0.058,0.007,-1.757,0
0.048,0.149,-1.599,0
0.127,0.242,-1.441,0
0.285,0.422,-1.118,0
0.33,0.42,-0.843,0
0.508,0.581,-0.668,0
0.732,0.792,-0.365,0
0.882,0.85,-0.085,0
0.748,0.85,0.114,0
0.472,0.725,0.372,0
0.202,0.586,0.45,0
0.234,0.586,0.45,0
-0.341,0.244,0.599,0
-0.474,0.286,0.672,0
-0.445,0.415,0.675,0
-0.287,0.606,0.578,0
-0.192,0.864,0.454,0
-0.063,1.155,0.7,0
0.055,1.223,1.159,0
-0.406,1.71,1.426,0
-0.685,1.9,1.075,0
-0.567,1.852,0.005,1
-0.339,1.78,-0.666,0
0.18,1.675,-1.286,0
0.5,1.567,-1.09,0
0.928,0.826,1.511,0
1.128,0.385,3.084,0
1.06,-0.3,5.684,0
0.795,-0.777,7.354,0
0.612,-1.438,8.933,0
0.392,-1.432,8.146,0
0.002,-1.194,4.231,0
0.062,-0.913,1.354,0
0.042,-0.663,-1.611,0
-0.156,-0.718,-3.195,0
-0.752,-0.687,-4.092,0
-0.937,-0.632,-4.009,0
-0.756,-0.507,-2.733,0
-0.384,-0.439,-1.792,0
-0.032,-0.419,-0.776,0
0.031,-0.588,-0.298,0
-0.044,-0.827,-0.01,0
-0.207,-0.927,-0.157,0
-0.335,-1.143,-0.768,0
-0.317,-1.125,-1.211,0
-0.452,-1.166,-1.483,0
-0.48,-1.149,-1.542,0
-0.477,-1.137,-1.545,0
-0.466,-0.933,-1.956,0
-0.126,-0.56,-2.171,0
0.079,-0.374,-1.994,0
0.247,-0.193,-1.724,0
0.248,-0.067,-1.416,0
0.311,0.105,-1.13,0
0.304,0.188,-1.264,0
0.215,0.202,-1.237,0
0.205,0.233,-1.246,0
0.186,0.225,-1.401,0
0.124,0.232,-1.11,0
0.114,0.234,-1.111,0
0.121,0.277,0.11,0
0.038,0.203,0.725,0
-0.015,0.108,0.834,0
-0.12,0.055,1.183,0
-0.234,0.03,1.701,0
-0.198,0.136,1.93,0
-0.095,0.279,1.715,0
0.072,0.295,0.89,0
0.08,0.343,0.331,0
0.289,0.385,0.281,0
0.614,0.423,0.658,0
0.743,0.416,1.412,0
0.793,0.577,1.457,0
0.904,1.189,1.334,0
0.89,1.158,1.344,0
1.102,1.295,0.899,1
0.912,1.3,-0.864,0
0.576,0.812,-0.95,0
0.144,0.456,-0.174,0
-0.392,0.031,1.801,0
-0.288,-0.015,2.497,0
-0.029,-0.222,2.982,0
0.109,-0.428,3.391,0
0.069,-0.687,4.2,0
-0.028,-0.792,4.722,0
-0.155,-0.971,4.774,0
-0.16,-0.982,3.915,0
0.205,-0.768,1.94,0
0.442,-0.679,0.553,0
0.378,-0.706,-0.77,0
0.547,-0.668,-1.298,0
0.698,-0.51,-1.813,0
0.619,-0.58,-1.74,0
0.576,-0.804,-1.072,0
0.467,-0.955,-0.651,0
0.274,-1.136,-0.333,0
0.318,-1.199,-0.374,0
0.319,-1.205,-0.373,0
0.728,-0.867,-1.586,0
0.853,-0.595,-2.48,0
0.838,-0.517,-2.732,0
0.67,-0.536,-2.803,0
0.624,-0.443,-2.844,0
0.618,-0.265,-2.621,0
0.661,-0.121,-2.479,0
0.638,0.082,-2.558,0
0.619,0.174,-2.415,0
0.576,0.327,-1.988,0
0.515,0.373,-1.743,0
0.549,0.516,-1.551,0
0.491,0.389,-1.294,0
0.667,0.353,-0.722,0
0.834,0.377,-0.177,0
0.916,0.291,0.455,0
0.884,0.282,0.457,0
0.879,0.215,1.34,0
0.812,0.19,1.43,0
0.477,0.188,1.406,0
0.389,0.253,1.22,0
0.463,0.445,0.853,0
0.506,0.555,0.557,0
0.524,0.523,0.567,0
0.523,0.799,0.493,0
0.718,0.863,1.166,0
0.798,0.853,1.775,0
0.56,0.809,2.314,0
0.224,0.989,2.234,0
0.083,1.297,1.133,0
0.256,1.386,0.139,0
0.761,1.706,-1.197,1
1.151,1.821,-1.984,0
1.435,1.575,-2.105,0
1.739,0.994,-0.897,0
1.84,-0.019,2.3,0
1.306,-0.712,4.382,0
0.128,-1.841,7.444,0
-0.441,-2.16,8.432,0
-1.249,-2.51,7.314,0
-0.984,-2.146,4.837,0
-0.404,-1.191,0.615,0
-0.299,-0.862,-2.1,0
-0.146,-0.661,-4.709,0
-0.185,-0.529,-5.438,0
-0.311,-0.584,-4.662,0
-0.202,-0.688,-2.983,0
0.179,-0.68,-0.682,0
0.38,-0.82,0.329,0
0.504,-1.022,1.081,0
0.424,-0.908,0.939,0
0.274,-0.926,0.349,0
0.189,-0.992,-0.384,0
-0.088,-0.915,-1.456,0
-0.341,-0.935,-1.835,0
-0.502,-0.896,-2.181,0
-0.684,-0.926,-2.3,0
-0.828,-0.899,-2.494,0
-0.702,-0.792,-2.463,0
-0.149,-0.274,-2.067,0
0.335,-0.008,-1.613,0
0.543,0.208,-1.153,0
0.72,0.436,-0.902,0
0.935,0.537,-0.681,0
0.727,0.522,-0.783,0
0.227,0.303,-1.263,0
-0.045,0.173,-1.38,0
-0.309,0.099,-1.108,0
-0.336,0.076,-0.9,0
-0.331,0.085,-0.903,0
-0.267,0.205,0.066,0
-0.161,0.306,0.494,0
-0.123,0.38,0.667,0
-0.053,0.468,0.862,0
-0.023,0.567,0.734,0
0.09,0.75,0.381,0
0.149,0.776,0.295,0
0.162,0.767,0.163,0
0.208,0.694,0.199,0
0.156,0.573,0.885,0
0.223,0.51,1.545,0
0.236,0.714,1.995,0
0.213,0.694,2.002,0
0.407,1.336,0.857,0
0.404,1.313,0.864,0
0.825,1.515,-0.463,1
0.748,1.249,-0.27,0
0.212,0.471,0.857,0
-0.186,-0.009,2.213,0
-0.285,-0.364,3.597,0
-0.437,-0.667,4.246,0
-0.605,-1.201,5.473,0
-0.622,-1.226,5.941,0
-0.521,-1.2,5.72,0
-0.262,-1.105,4.673,0
0.31,-0.863,1.943,0
0.596,-0.773,0.434,0
0.862,-0.634,-0.777,0
0.996,-0.576,-1.424,0
0.879,-0.766,-1.846,0
0.879,-0.783,-1.733,0
0.867,-0.891,-1.299,0
0.854,-0.973,-1.048,0
0.764,-1.128,-0.844,0
0.671,-1.195,-0.794,0
0.531,-1.226,-0.939,0
0.495,-1.13,-1.18,0
0.614,-0.879,-1.935,0
0.693,-0.716,-2.296,0
0.551,-0.483,-2.742,0
0.508,-0.432,-2.846,0
0.546,-0.193,-3.092,0
0.553,-0.195,-3.091,0
0.55,0.189,-2.481,0
0.508,0.26,-2.123,0
0.227,0.197,-1.705,0
0.046,0.171,-1.233,0
-0.01,0.231,-0.645,0
0.026,0.319,-0.387,0
0.112,0.475,-0.117,0
0.218,0.603,-0.176,0
0.47,0.783,-0.696,0
0.692,0.911,-0.99,0
0.792,0.936,-0.737,0
0.717,0.884,-0.268,0
0.585,0.65,0.359,0
0.447,0.523,0.793,0
0.153,0.429,1.584,0
0.111,0.427,1.797,0
-0.045,0.4,1.908,0
-0.088,0.393,1.893,0
-0.043,0.496,1.798,0
0.064,0.589,1.518,0
0.22,0.651,1.307,0
0.462,0.729,1.309,0
0.385,0.954,1.443,0
0.122,1.245,1.511,1
0.077,1.514,0.704,0
0.018,1.498,-0.028,0
-0.016,1.381,-0.706,0
0.395,1.325,-0.768,0
0.847,0.885,0.243,0
1.324,0.346,1.688,0
1.55,-0.293,4.214,0
1.372,-0.857,5.543,0
0.601,-1.563,7.164,0
-0.096,-1.891,7.34,0
-0.402,-2.065,4.924,0
-0.218,-1.594,2.695,0
-0.131,-1.198,-1.033,0
-0.004,-0.962,-3.246,0
0.131,-0.787,-5.121,0
0.091,-0.594,-5.567,0
0.187,-0.519,-4.345,0
0.425,-0.455,-2.99,0
0.65,-0.509,-1.318,0
0.52,-0.677,-0.663,0
0.278,-1.047,-0.276,0
0.129,-1.134,-0.524,0
-0.026,-1.15,-1.194,0
-0.065,-1.136,-1.454,0
0.026,-1.001,-1.404,0
-0.05,-0.918,-1.195,0
-0.226,-0.857,-0.912,0
-0.381,-0.792,-0.881,0
-0.582,-0.781,-0.912,0
-0.66,-0.747,-1.073,0
-0.615,-0.58,-1.332,0
-0.451,-0.442,-1.458,0
-0.44,-0.436,-1.46,0
0.029,0.001,-1.496,0
0.363,0.194,-1.687,0
0.539,0.302,-1.706,0
0.809,0.457,-0.994,0
0.792,0.446,-0.548,0
0.625,0.313,-0.037,0
0.275,0.107,0.274,0
0.275,0.115,0.272,0
0.176,0.112,0.54,0
0.372,0.326,0.242,0
0.426,0.343,0.102,0
0.372,0.301,0.233,0
0.303,0.244,0.298,0
0.249,0.379,0.4,0
0.364,0.443,0.308,0
0.365,0.423,0.315,0
0.855,0.35,0.599,0
0.966,0.451,1.546,0
0.952,0.612,2.592,0
0.633,1.22,2.96,0
0.641,1.411,2.209,1
0.782,1.284,0.507,0
0.787,1.05,0.129,0
0.865,0.579,0.213,0
0.646,0.128,1.268,0
0.459,-0.278,3.021,0
0.373,-0.448,3.956,0
0.212,-0.977,4.639,0
0.122,-1.267,5.014,0
0.181,-1.482,5.453,0
0.22,-1.411,5.233,0
0.262,-1.168,3.954,0
0.34,-0.954,2.599,0
0.494,-0.662,0.979,0
0.662,-0.487,-0.16,0
0.821,-0.325,-1.149,0
1.015,-0.303,-1.644,0
1.219,-0.28,-2.078,0
1.21,-0.357,-2.054,0
1.119,-0.623,-1.716,0
0.96,-0.804,-1.359,0
0.557,-1.078,-0.955,0
0.362,-1.189,-0.915,0
0.331,-1.063,-0.945,0
0.396,-0.908,-1.071,0
0.583,-0.592,-1.597,0
0.607,-0.468,-2.067,0
0.623,-0.174,-2.59,0
0.627,-0.072,-2.831,0
0.547,0.054,-2.858,0
0.465,0.032,-2.42,0
0.472,0.031,-2.419,0
0.036,-0.075,-1.411,0
0.025,-0.087,-1.073,0
-0.001,-0.008,-0.56,0
0.186,0.135,-0.073,0
0.333,0.226,-0.018,0
0.581,0.413,-0.243,0
0.568,0.464,-0.505,0
0.639,0.46,-0.771,0
0.688,0.445,-0.526,0
0.88,0.381,-0.018,0
0.899,0.354,0.346,0
0.904,0.342,0.35,0
0.772,0.262,0.793,0
0.572,0.207,0.768,0
0.551,0.222,0.704,0
0.572,0.196,0.714,0
0.972,0.577,0.269,0
0.938,0.599,0.309,0
0.813,0.561,0.606,0
0.691,0.527,1.063,0
0.575,0.492,1.546,0
0.57,0.407,2.389,0
0.508,0.512,2.522,0
0.18,0.967,2.24,1
0.125,1.031,1.305,0
0.078,0.863,-0.254,0
0.264,0.867,-1.222,0
0.441,0.709,-1.697,0
0.692,0.545,-1.278,0
0.693,0.15,0.297,0
0.665,-0.157,1.31,0
0.586,-0.795,2.906,0
0.606,-1.117,3.649,0
0.253,-1.377,4.463,0
0.088,-1.358,3.765,0
0.043,-1.01,1.287,0
0.128,-0.721,-0.354,0
0.335,-0.314,-2.16,0
0.345,-0.311,-2.881,0
0.171,-0.161,-2.979,0
0.072,-0.16,-2.213,0
0.082,-0.405,-0.531,0
0.141,-0.603,0.085,0
0.14,-0.986,1.026,0
0.27,-1.138,1.502,0
0.316,-1.166,1.497,0
0.435,-1.126,0.869,0
0.643,-1.012,-0.429,0
0.709,-0.906,-1.135,0
0.604,-0.787,-1.644,0
0.47,-0.769,-1.491,0
0.16,-0.67,-0.966,0
-0.149,-0.621,-0.793,0
-0.396,-0.548,-0.847,0
-0.495,-0.474,-0.886,0
-0.495,-0.469,-0.888,0
-0.109,-0.193,-1.097,0
0.189,0,-1.21,0
0.26,0.092,-1.275,0
0.282,0.073,-1.449,0
0.135,0.032,-1.59,0
-0.187,-0.11,-1.704,0
-0.377,-0.235,-1.77,0
-0.374,-0.133,-1.696,0
-0.325,-0.058,-1.471,0
-0.119,0.126,-1.102,0
0.006,0.149,-0.824,0
0.294,0.263,-0.377,0
0.458,0.415,-0.179,0
0.41,0.54,-0.106,0
0.414,0.5,-0.125,0
0.406,0.488,-0.266,0
0.368,0.519,-0.243,0
0.588,0.627,0.226,0
0.64,0.625,1.024,0
0.3,0.718,2.168,0
0.058,1.04,2.451,0
-0.093,1.584,2.002,0
0.272,1.525,1.379,0
0.52,1.188,0.774,0
0.307,0.744,1.029,1
-0.019,0.093,1.942,0
-0.266,-0.254,3.068,0
-0.389,-0.441,3.887,0
-0.432,-0.735,4.164,0
0,-1.266,4.879,0
0.113,-1.385,5.371,0
0.147,-1.496,6.142,0
0.098,-1.406,5.984,0
0.057,-0.982,4.135,0
0.198,-0.72,2.152,0
0.633,-0.389,0.088,0
1.135,-0.254,-1.206,0
1.59,0.125,-2.705,0
1.759,0.278,-3.033,0
1.839,0.164,-2.667,0
1.747,-0.057,-2.055,0
1.258,-0.591,-1.014,0
0.882,-0.988,-0.453,0
0.517,-1.408,0.079,0
0.503,-1.473,0.355,0
0.427,-1.423,0.469,0
0.437,-1.347,0.338,0
0.544,-1.122,-0.5,0
0.521,-1.004,-1.366,0
0.466,-0.783,-2.582,0
0.487,-0.648,-3.07,0
0.573,-0.561,-3.442,0
0.654,-0.441,-3.433,0
0.704,-0.274,-3.112,0
0.72,-0.244,-2.939,0
0.674,-0.172,-2.553,0
0.62,-0.15,-2.254,0
0.49,-0.121,-1.937,0
0.48,-0.095,-2,0
0.648,-0.073,-1.696,0
0.673,0.036,-1.192,0
0.658,0.102,-0.623,0
0.678,0.072,-0.364,0
0.657,0.081,-0.368,0
0.887,0.133,0.088,0
0.927,0.029,0.865,0
0.885,0.136,1.081,0
0.486,0.289,1.082,0
0.147,0.249,1.141,0
0.096,0.247,1.349,0
0.18,0.383,1.438,0
0.185,0.362,1.446,0
0.502,0.527,1.289,0
0.639,0.568,1.655,0
0.553,0.652,2.151,0
0.145,1.136,2.553,0
-0.234,1.29,1.938,0
-0.775,1.134,0.17,0
-0.875,1.04,-0.782,0
-0.417,1.044,-1.134,1
0.047,0.92,-0.924,0
0.48,0.841,0.524,0
0.757,0.521,2.013,0
1.022,-0.522,4.148,0
1.166,-0.901,5.392,0
0.873,-1.368,6.83,0
0.286,-1.773,7.111,0
0.073,-1.571,5.01,0
0.062,-1.257,2.618,0
0.135,-0.96,-0.357,0
0.371,-0.836,-2.151,0
0.72,-0.363,-3.819,0
0.785,-0.174,-3.743,0
1.199,-0.06,-2.231,0
1.351,-0.148,-1.224,0
1.143,-0.651,-0.329,0
0.793,-1.16,0.041,0
0.421,-1.471,0.128,0
0.233,-1.528,0.074,0
0.13,-1.498,-0.142,0
0.115,-1.464,-0.447,0
0.116,-1.28,-1.187,0
0.125,-1.15,-1.57,0
0.1,-0.919,-2.122,0
0.014,-0.847,-2.22,0
-0.051,-0.652,-1.928,0
0.003,-0.522,-1.586,0
0.204,-0.362,-1.104,0
0.373,-0.236,-0.892,0
0.51,-0.178,-0.933,0
0.668,-0.118,-1.049,0
0.887,-0.035,-1.264,0
1.046,0.036,-1.333,0
1.194,0.102,-1.121,0
1.032,0.113,-0.89,0
0.661,-0.033,-0.708,0
0.672,-0.025,-0.711,0
-0.048,-0.309,-0.548,0
-0.136,-0.301,-0.654,0
-0.039,-0.227,-0.57,0
-0.012,-0.123,-0.32,0
-0.055,0.064,0.018,0
-0.056,0.178,-0.183,0
-0.02,0.282,-0.427,0
0.05,0.415,-0.384,0
0.375,0.529,0.242,0
0.567,0.564,1.06,0
0.536,0.643,2.111,0
0.371,0.583,2.285,0
-0.068,0.95,1.803,0
-0.379,1.328,0.714,0
-0.568,1.228,-0.933,0
-0.23,1.028,-1.239,0
-0.104,0.76,-0.264,1
0.132,0.406,1.656,0
0.275,-0.144,4.433,0
0.038,-0.545,5.665,0
-0.077,-1.195,6.7,0
-0.128,-1.437,6.943,0
-0.022,-1.746,6.633,0
0.098,-1.531,5.633,0
0.403,-0.923,2.994,0
0.417,-0.941,3,0
0.999,-0.435,-0.344,0
1.269,-0.188,-1.423,0
1.458,-0.136,-2.402,0
1.466,-0.117,-2.466,0
1.48,-0.244,-1.706,0
1.416,-0.49,-1.083,0
1.214,-0.82,-0.278,0
1.049,-1.075,-0.012,0
0.909,-1.264,0.036,0
0.787,-1.221,-0.029,0
0.7,-1.142,-0.533,0
0.6,-1.004,-1.045,0
0.523,-0.78,-1.88,0
0.505,-0.622,-2.315,0
0.526,-0.408,-2.782,0
0.544,-0.424,-2.776,0
0.489,-0.044,-2.658,0
0.485,-0.017,-2.452,0
0.454,0.028,-2.07,0
0.324,0.065,-1.754,0
0.12,0.052,-1.685,0
0.086,0.077,-1.708,0
0.125,0.196,-1.549,0
0.111,0.275,-1.534,0
0.181,0.276,-1.612,0
0.253,0.305,-1.206,0
0.237,0.366,-0.587,0
0.195,0.241,-0.15,0
0.184,0.245,-0.152,0
0.202,0.114,0.665,0
0.254,0.007,1.137,0
0.162,-0.006,1.286,0
0.187,-0.016,1.549,0
0.325,0.085,1.26,0
0.319,0.242,0.684,0
0.33,0.245,0.566,0
0.339,0.236,0.717,0
0.248,0.165,1.357,0
-0.032,0.019,2.411,0
-0.21,0.002,2.722,0
-0.829,0.306,2.408,0
-1.097,0.651,1.552,0
-1.096,0.601,1.571,1
-0.7,1.086,-0.849,0
0.035,1.289,-2.135,0
0.506,1.122,-2.265,0
1.105,0.516,0.163,0
1.266,0.081,2.388,0
0.912,-0.866,5.559,0
0.506,-1.314,6.945,0
-0.029,-1.765,7.508,0
-0.244,-1.744,5.929,0
-0.028,-1.259,2.237,0
0.203,-0.863,0.49,0
0.013,-0.544,-1.099,0
0.06,-0.492,-2.049,0
-0.179,-0.276,-2.774,0
-0.283,-0.261,-2.728,0
-0.131,-0.369,-1.952,0
-0.063,-0.511,-1.335,0
0.038,-0.768,-0.401,0
0.048,-1.043,0.031,0
0.056,-1.145,-0.08,0
-0.07,-1.194,-0.367,0
-0.079,-1.284,-1.031,0
-0.087,-1.216,-1.504,0
-0.175,-1.091,-1.943,0
-0.17,-1.03,-2.071,0
-0.065,-0.81,-2.088,0
-0.065,-0.665,-2.077,0
-0.097,-0.498,-2.139,0
-0.109,-0.404,-2.07,0
-0.169,-0.316,-1.827,0
-0.198,-0.285,-1.621,0
-0.057,-0.238,-1.392,0
-0.014,-0.181,-1.155,0
0.158,-0.133,-0.745,0
0.251,-0.052,-0.539,0
0.351,0.044,-0.314,0
0.231,0.088,-0.288,0
-0.09,-0.03,-0.083,0
-0.249,-0.033,-0.031,0
-0.38,-0.084,-0.04,0
-0.249,-0.035,0.071,0
0.098,0.062,0.145,0
0.331,0.12,0.197,0
0.447,0.172,0.434,0
0.63,0.316,0.621,0
0.581,0.263,0.886,0
0.361,0.259,1.194,0
0.277,0.185,1.392,0
0.161,0.129,1.441,0
-0.162,0.14,1.712,0
-0.345,0.215,1.712,0
-0.801,0.729,1.238,0
-0.99,0.904,0.644,0
-0.434,0.823,-0.319,1
0.141,0.773,-0.533,0
0.893,0.684,0.157,0
1.198,0.506,1.292,0
0.798,0.076,3.442,0
0.562,-0.233,4.314,0
0.375,-0.57,4.579,0
0.118,-0.799,4.469,0
-0.157,-1.145,4.364,0
-0.315,-1.142,4.221,0
-0.47,-1.36,3.368,0
-0.531,-1.439,2.695,0
-0.335,-1.348,1.506,0
-0.235,-1.325,0.595,0
-0.209,-1.143,-0.413,0
0,-1.04,-0.722,0
0.356,-0.953,-0.831,0
0.568,-0.835,-0.951,0
0.716,-0.73,-1.222,0
0.804,-0.7,-1.429,0
0.805,-0.701,-1.663,0
0.767,-0.615,-1.787,0
0.702,-0.513,-2.013,0
0.71,-0.453,-2.27,0
0.525,-0.438,-2.222,0
0.415,-0.387,-2.141,0
0.232,-0.369,-2.345,0
0.161,-0.313,-2.304,0
0.157,-0.115,-2.003,0
0.155,-0.072,-1.897,0
0.199,0.052,-1.949,0
0.293,0.132,-1.888,0
0.288,0.208,-1.828,0
0.234,0.161,-1.967,0
0.063,0.043,-1.853,0
-0.037,-0.05,-1.393,0
-0.132,0.027,-0.853,0
-0.131,0.104,-0.801,0
-0.135,0.148,-0.933,0
-0.146,0.118,-1.04,0
-0.057,0.146,-1.232,0
0.014,0.224,-1.031,0
0.28,0.417,-0.26,0
0.224,0.498,0.007,0
-0.117,0.483,-0.023,0
-0.264,0.277,-0.072,0
-0.303,0.232,0.121,0
-0.257,0.281,0.33,0
-0.416,0.277,0.89,0
-0.448,0.341,1.589,0
-0.206,0.329,2.367,0
-0.004,0.301,2.23,0
0.168,0.292,1.625,0
0.096,0.328,1.451,0
0.092,0.294,1.464,0
-0.417,1.199,-0.014,1
-0.274,1.274,-0.889,0
-0.033,1.469,-1.437,0
-0.033,1.467,-1.436,0
-0.358,1.323,0.441,0
0.097,0.556,3.34,0
0.154,-0.012,4.966,0
-0.063,-0.964,7.634,0
-0.228,-1.489,9.098,0
-0.427,-1.862,8.908,0
-0.545,-1.807,6.918,0
-0.633,-1.401,3.173,0
-0.693,-1.121,0.578,0
-0.33,-0.961,-2.421,0
-0.382,-0.763,-3.886,0
-0.504,-0.526,-5.237,0
-0.524,-0.573,-4.844,0
-0.112,-0.545,-3.081,0
0.21,-0.586,-1.452,0
0.277,-0.861,0.094,0
0.395,-1.062,0.759,0
0.36,-1.158,0.558,0
0.226,-1.195,-0.008,0
0.114,-1.237,-1.016,0
0.096,-1.127,-1.534,0
0.144,-0.909,-2.01,0
-0.011,-0.895,-2.489,0
-0.518,-0.919,-2.833,0
-0.778,-0.983,-2.718,0
-1.056,-1.142,-2.394,0
-1.278,-1.154,-1.894,0
-1.096,-0.945,-1.074,0
-0.662,-0.6,-0.899,0
0.105,0.08,-1.2,0
0.438,0.316,-1.593,0
0.633,0.477,-1.772,0
0.522,0.455,-1.783,0
0.114,0.33,-1.289,0
-0.151,0.199,-0.69,0
-0.373,0.158,0.161,0
-0.477,0.102,0.584,0
-0.672,-0.076,0.819,0
-0.738,-0.079,0.787,0
-0.401,0.138,0.819,0
-0.025,0.413,0.717,0
-0.048,0.393,0.724,0
0.244,0.68,0.503,0
0.2,0.525,0.505,0
0.065,0.294,0.663,0
-0.094,-0.01,1.143,0
-0.267,-0.07,1.481,0
-0.855,0.322,1.896,0
-1.409,0.814,1.283,0
-1.297,0.966,0.042,0
-0.846,0.98,-0.401,0
-0.111,1.123,-0.267,1
0.418,1.045,0.66,0
0.481,0.341,3.294,0
0.49,-0.231,4.711,0
0.191,-0.94,6.608,0
-0.35,-1.519,7.758,0
-0.895,-2.04,8.416,0
-1.314,-1.944,7.478,0
-1.188,-1.479,4.613,0
-0.692,-1.247,2.669,0
-0.161,-0.645,-0.151,0
0,-0.569,-1.005,0
0.456,-0.426,-1.541,0
0.673,-0.295,-1.471,0
1.013,-0.31,-0.89,0
1.109,-0.413,-0.46,0
1.009,-0.595,-0.273,0
0.876,-0.78,-0.369,0
0.573,-1.045,-0.641,0
0.293,-1.181,-0.857,0
0.118,-1.183,-1.227,0
0.085,-1.127,-1.493,0
0.112,-0.916,-1.943,0
0.067,-0.875,-2.142,0
0.033,-0.718,-2.625,0
0.205,-0.609,-3.018,0
0.335,-0.421,-3.042,0
0.38,-0.419,-2.62,0
0.35,-0.416,-2.024,0
0.187,-0.473,-1.821,0
0.097,-0.503,-1.711,0
0.142,-0.396,-1.79,0
0.277,-0.249,-1.971,0
0.368,-0.099,-2.129,0
0.348,0.073,-2.181,0
0.316,0.144,-2.047,0
0.371,0.24,-1.945,0
0.258,0.247,-1.74,0
0.177,0.152,-1.197,0
0.141,0.073,-0.764,0
0.119,0.065,-0.761,0
-0.004,-0.029,0.268,0
-0.116,0.093,1.002,0
-0.375,0.006,1.445,0
-0.52,0.026,1.543,0
-0.679,0.052,1.425,0
-0.903,0.001,1.297,0
-0.686,0.04,1.141,0
-0.42,0.128,1.216,0
-0.376,0.061,1.627,0
-0.211,0.042,2.36,0
-0.545,0.34,2.535,0
-1.12,0.86,1.454,0
-1.246,0.927,-0.025,0
-1.233,0.899,-0.014,1
-1.052,1.041,-1.65,0
-0.484,0.926,-0.655,0
-0.342,0.641,0.812,0
-0.058,-0.036,3.291,0
0.184,-0.432,4.716,0
0.198,-1.099,6.368,0
-0.347,-1.552,6.889,0
-0.654,-1.577,4.871,0
-0.701,-1.268,2.395,0
-0.425,-0.842,-0.929,0
-0.291,-0.396,-2.793,0
-0.346,-0.315,-3.97,0
-0.576,-0.251,-3.73,0
-0.721,-0.406,-2.088,0
-0.614,-0.56,-1.208,0
-0.704,-0.899,-0.129,0
-0.834,-1.219,0.523,0
-1.007,-1.657,1.137,0
-1.119,-1.81,1.199,0
-1.174,-1.746,0.968,0
-1.093,-1.584,0.601,0
-0.707,-1.178,-0.315,0
-0.53,-0.944,-0.924,0
-0.578,-0.802,-1.574,0
-0.765,-0.795,-1.784,0
-0.971,-0.705,-1.995,0
-1.053,-0.676,-2.071,0
-1.059,-0.581,-2.102,0
-0.9,-0.413,-2.069,0
-0.71,-0.061,-2.162,0
-0.577,0.048,-2.187,0
-0.461,0.258,-2.131,0
-0.387,0.366,-1.941,0
-0.513,0.289,-1.488,0
-0.73,0.103,-0.939,0
-1.244,-0.136,-0.131,0
-1.513,-0.299,0.375,0
-1.617,-0.419,0.762,0
-1.553,-0.315,0.765,0
-1.562,-0.316,0.766,0
-0.678,0.16,0.472,0
-0.483,0.414,0.715,0
-0.441,0.692,0.966,0
-0.063,1.087,1.554,0
0.079,1.144,1.67,0
-0.046,1.118,1.789,0
-0.099,0.948,1.82,0
-0.126,0.748,1.531,0
-0.154,0.647,1.228,0
-0.25,0.806,0.901,0
-0.669,1.2,0.61,0
-0.746,1.309,0.091,0
-0.407,1.111,-0.038,0
-0.089,1.097,0.369,1
0.088,0.959,1.088,0
0.146,0.376,2.85,0
-0.084,0.163,3.894,0
-0.283,-0.186,5.233,0
-0.166,-0.317,5.453,0
-0.023,-0.438,4.865,0
-0.098,-0.567,3.843,0
-0.502,-0.601,2.005,0
-0.661,-0.606,1.097,0
-0.623,-0.695,0.151,0
-0.689,-0.806,-0.567,0
-0.907,-1.058,-0.934,0
-0.927,-1.163,-0.919,0
-0.819,-1.188,-1,0
-0.532,-1.259,-1.016,0
-0.243,-1.247,-0.644,0
-0.146,-1.311,-0.306,0
-0.156,-1.518,-0.042,0
-0.205,-1.6,0.176,0
-0.25,-1.572,0.11,0
-0.275,-1.488,-0.274,0
-0.334,-1.33,-1.19,0
-0.359,-1.182,-1.713,0
-0.379,-0.945,-2.405,0
-0.342,-0.804,-2.724,0
-0.17,-0.497,-2.865,0
-0.162,-0.449,-2.784,0
-0.381,-0.421,-2.421,0
-0.441,-0.43,-2.225,0
-0.451,-0.455,-1.878,0
-0.481,-0.356,-1.754,0
-0.665,-0.235,-1.438,0
-0.784,-0.271,-1.232,0
-0.842,-0.276,-1.231,0
-0.809,-0.171,-1.459,0
-0.818,-0.18,-1.456,0
-0.488,0.08,-1.765,0
-0.519,0.088,-1.412,0
-0.509,0.066,-1.181,0
-0.582,0.072,-0.388,0
-0.442,0.196,-0.03,0
-0.431,0.199,0.376,0
-0.507,0.268,0.544,0
-0.344,0.479,0.575,0
-0.365,0.541,0.508,0
-0.638,0.573,0.71,0
-0.688,0.571,0.831,0
-0.927,0.458,1.023,0
-0.943,0.389,1.237,0
-0.769,0.351,1.671,0
-0.769,0.328,1.68,0
-0.373,0.356,1.934,0
-0.435,0.754,1.876,0
-0.527,1.239,0.777,1
-0.329,1.405,-0.452,0
0.281,1.455,-1.386,0
0.623,1.505,-1.439,0
0.328,1.118,0.386,0
0.067,0.391,2.501,0
-0.211,-0.436,4.958,0
-0.388,-1.122,6.435,0
-0.377,-1.852,7.241,0
-0.454,-2.045,6.779,0
-0.495,-1.727,3.958,0
-0.454,-1.331,2.033,0
-0.372,-0.847,-0.675,0
-0.531,-0.787,-2.171,0
-1.157,-0.836,-3.847,0
-1.506,-0.828,-4.085,0
-1.705,-0.823,-3.231,0
-1.583,-0.826,-1.85,0
-1.056,-0.984,-0.24,0
-0.809,-1.16,0.855,0
-0.345,-1.121,1.639,0
-0.173,-1.123,1.874,0
0.087,-1.14,1.685,0
0.13,-1.082,1.21,0
-0.095,-1.153,0.302,0
-0.236,-1.165,-0.401,0
-0.35,-0.966,-1.14,0
-0.362,-0.891,-1.487,0
-0.463,-0.751,-2.168,0
-0.675,-0.775,-2.264,0
-0.795,-0.774,-2.433,0
-0.686,-0.59,-2.56,0
-0.357,-0.188,-2.617,0
-0.157,0.006,-2.354,0
-0.056,0.196,-1.854,0
-0.176,0.27,-1.36,0
-0.191,0.233,-1.065,0
-0.425,0.149,-0.779,0
-0.774,0.075,-0.124,0
-0.909,-0.019,0.112,0
-0.92,-0.014,0.111,0
-0.839,0.007,0.539,0
-0.591,-0.021,0.235,0
-0.598,-0.032,0.24,0
-0.631,-0.005,0.747,0
-0.602,0.132,0.778,0
-0.313,0.436,0.741,0
-0.22,0.512,0.681,0
-0.221,0.645,0.364,0
-0.216,0.627,0.418,0
0.123,0.743,0.993,0
0.339,0.84,1.488,0
0.228,0.933,1.873,0
-0.189,1.24,1.751,0
-0.471,1.35,0.726,0
-0.158,1.12,0.025,0
0.077,1.012,-0.352,1
0.071,0.951,-0.491,0
-0.134,0.431,0.447,0
-0.664,-0.067,1.741,0
-0.97,-0.749,3.112,0
-0.865,-1.181,4.001,0
-0.793,-1.633,5.778,0
-0.748,-1.723,6.576,0
-0.788,-1.524,6.382,0
-0.967,-1.428,5.115,0
-0.829,-1.08,1.668,0
-0.708,-0.885,0.17,0
-0.334,-0.47,-1.925,0
-0.095,-0.379,-2.712,0
0.184,-0.095,-3.147,0
0.393,0.027,-2.925,0
0.391,0.02,-2.922,0
0.522,-0.375,-0.66,0
0.419,-0.705,0.062,0
0.257,-0.862,0.181,0
0.19,-1.005,0.109,0
0.158,-0.959,-0.093,0
-0.026,-0.985,-0.438,0
-0.031,-0.9,-0.764,0
-0.045,-0.688,-1.215,0
-0.034,-0.571,-1.489,0
-0.099,-0.448,-1.825,0
-0.262,-0.436,-1.713,0
-0.327,-0.407,-1.599,0
-0.339,-0.402,-1.503,0
-0.397,-0.405,-1.181,0
-0.398,-0.413,-1.178,0
-0.411,-0.283,-1.468,0
-0.282,-0.18,-1.742,0
-0.107,0.024,-2.053,0
0.055,0.136,-2.255,0
0.221,0.358,-2.428,0
0.233,0.431,-2.282,0
0.135,0.457,-1.845,0
-0.036,0.346,-1.278,0
-0.174,0.229,-0.404,0
-0.163,0.229,0.067,0
-0.284,0.164,0.504,0
-0.458,0.07,0.774,0
-0.34,0.161,0.834,0
-0.342,0.263,0.671,0
-0.357,0.315,0.285,0
-0.157,0.444,0.035,0
-0.096,0.513,0.324,0
-0.082,0.459,0.991,0
-0.15,0.328,1.797,0
-0.151,0.155,2.092,0
-0.176,0.162,1.891,0
-0.398,0.395,1.327,0
-0.647,0.628,-0.181,0
-0.562,0.571,-0.621,0
-0.528,0.564,-0.62,1
-0.249,0.54,-0.37,0
-0.361,0.119,1.692,0
-0.386,-0.151,3.147,0
-0.602,-0.899,4.836,0
-0.506,-1.261,5.81,0
-0.284,-1.63,6.787,0
-0.255,-1.786,6.615,0
-0.207,-1.855,4.966,0
-0.183,-1.624,3.221,0
-0.319,-1.28,0.582,0
-0.238,-0.862,-1.186,0
-0.15,-0.571,-2.758,0
-0.295,-0.367,-3.558,0
-0.262,-0.036,-3.936,0
-0.217,0.166,-3.622,0
-0.111,0.166,-2.43,0
0.016,0.059,-1.767,0
0.119,-0.141,-0.989,0
-0.04,-0.461,-0.392,0
-0.092,-0.644,-0.088,0
-0.155,-0.662,0.078,0
-0.051,-0.559,-0.123,0
-0.054,-0.447,-0.461,0
-0.174,-0.29,-1.219,0
-0.255,-0.248,-1.674,0
-0.544,-0.166,-1.975,0
-0.654,-0.117,-1.998,0
-0.831,-0.054,-1.849,0
-0.904,-0.013,-1.642,0
-0.944,0.066,-1.37,0
-0.937,0.11,-1.262,0
-0.847,0.219,-1.065,0
-0.841,0.238,-0.878,0
-0.666,0.368,-0.534,0
-0.613,0.403,-0.313,0
-0.611,0.361,-0.179,0
-0.705,0.309,-0.258,0
-0.906,0.152,-0.472,0
-1.03,0.04,-0.675,0
-1.143,-0.032,-0.764,0
-1.095,-0.064,-0.623,0
-0.979,0.013,-0.032,0
-0.926,0.1,0.259,0
-0.966,0.317,0.672,0
-0.929,0.427,0.726,0
-0.961,0.571,0.553,0
-0.838,0.768,0.631,0
-0.472,0.784,0.793,0
-0.238,0.762,0.765,0
-0.093,0.887,0.993,0
-0.081,0.958,1.202,0
-0.629,1.385,1.088,0
-0.842,1.447,0.712,0
-0.506,1.204,0.242,1
-0.44,0.97,0.647,0
-0.241,0.445,2.186,0
-0.258,-0.033,3.568,0
-0.803,-0.646,5.217,0
-1.006,-0.873,5.913,0
-1.068,-1.507,6.744,0
-1.059,-1.715,6.398,0
-1.468,-1.813,4.707,0
-1.598,-1.775,3.268,0
-1.393,-1.463,0.973,0
-1.424,-1.282,-0.674,0
-1.329,-1.119,-2.094,0
-1.093,-1.075,-2.451,0
-0.897,-1.095,-1.653,0
-0.624,-1.011,-0.832,0
-0.09,-0.869,0.304,0
0.096,-0.957,0.612,0
0.252,-0.968,0.591,0
0.328,-0.902,0.437,0
0.361,-0.777,0.112,0
0.447,-0.586,-0.358,0
0.429,-0.399,-1.149,0
0.263,-0.379,-1.613,0
-0.093,-0.369,-2.069,0
-0.271,-0.413,-2.219,0
-0.468,-0.443,-2.2,0
-0.454,-0.401,-1.997,0
-0.45,-0.409,-1.995,0
0.024,-0.022,-1.711,0
0.204,0.136,-1.921,0
0.347,0.241,-2.12,0
0.43,0.283,-2.435,0
0.317,0.241,-2.673,0
0.1,0.092,-2.42,0
-0.109,-0.068,-1.987,0
-0.372,-0.245,-1.126,0
-0.403,-0.278,-0.567,0
-0.168,-0.157,-0.057,0
0.015,-0.028,0.086,0
0.184,0.125,-0.021,0
0.218,0.136,-0.198,0
0.262,0.159,-0.459,0
0.227,0.185,-0.447,0
0.016,0.137,-0.251,0
-0.113,0.072,-0.004,0
-0.093,0.059,-0.001,0
-0.271,0.155,0.79,0
-0.113,0.361,0.873,0
0.024,0.458,0.919,0
0.235,0.514,0.829,0
0.481,0.576,0.747,0
0.59,0.603,1.202,0
0.301,0.694,1.472,0
-0.367,0.979,0.838,0
-0.679,1.029,-0.219,0
-0.429,1.011,-1.014,1
0.13,0.986,-1.44,0
1.353,1.06,-0.693,0
1.479,0.775,1.121,0
1.295,0.101,3.926,0
0.816,-0.419,5.587,0
0.036,-1.479,7.007,0
-0.55,-1.918,6.712,0
-1.236,-2.044,4.589,0
-1.12,-1.747,2.47,0
-1.224,-1.088,-0.725,0
-1.426,-0.902,-2.635,0
-1.501,-0.76,-4.239,0
-1.601,-0.541,-4.528,0
-1.586,-0.332,-3.899,0
-1.353,-0.337,-2.838,0
-0.61,-0.216,-0.899,0
-0.454,-0.466,0.305,0
-0.264,-0.723,0.869,0
-0.17,-0.764,0.973,0
-0.083,-0.902,0.77,0
-0.013,-0.863,0.5,0
0.06,-0.722,-0.061,0
-0.07,-0.689,-0.464,0
-0.29,-0.612,-1.047,0
-0.384,-0.534,-1.307,0
-0.473,-0.352,-1.558,0
-0.462,-0.265,-1.54,0
-0.442,-0.117,-1.317,0
-0.397,0.031,-1.224,0
-0.4,0.033,-1.224,0
-0.45,0.038,-1.202,0
-0.332,0.267,-1.34,0
-0.255,0.325,-1.466,0
-0.202,0.296,-1.237,0
-0.298,0.268,-0.743,0
-0.454,0.155,-0.008,0
-0.503,0.154,0.49,0
-0.521,0.234,1.095,0
-0.476,0.251,1.138,0
-0.502,0.222,0.566,0
-0.47,0.123,0.116,0
-0.408,0.108,-0.107,0
-0.395,0.154,0.071,0
-0.35,0.134,0.612,0
-0.304,0.164,0.631,0
-0.435,0.192,0.471,0
-0.345,0.218,0.516,0
-0.17,0.264,0.867,0
-0.159,0.338,1.301,0
-0.123,0.429,1.626,0
-0.266,0.646,1.371,0
-0.691,1.187,0.302,0
-0.464,1.317,-0.57,1
0.189,1.289,-1.218,0
0.488,1.239,-1.055,0
0.511,0.784,0.713,0
0.364,0.352,2.239,0
-0.472,0.002,4.082,0
-0.723,-0.259,4.668,0
-0.79,-0.485,4.155,0
-0.863,-0.615,3.326,0
-0.709,-0.567,1.917,0
-0.673,-0.4,1.177,0
-0.657,-0.36,0.36,0
-0.765,-0.455,0.066,0
-0.816,-0.629,0.414,0
-0.819,-0.828,0.627,0
-1.052,-1.139,0.661,0
-1.061,-1.265,0.512,0
-0.799,-1.337,0.024,0
-0.514,-1.256,-0.381,0
-0.088,-1.047,-0.635,0
0.134,-0.914,-0.611,0
0.195,-0.786,-0.549,0
0.118,-0.738,-0.647,0
-0.047,-0.664,-1.107,0
-0.089,-0.659,-1.479,0
-0.019,-0.516,-2.109,0
-0.001,-0.47,-2.436,0
-0.046,-0.379,-2.577,0
-0.084,-0.374,-2.271,0
-0.027,-0.189,-1.48,0
0.019,-0.048,-1.084,0
-0.132,-0.011,-0.99,0
-0.293,-0.016,-1.057,0
-0.298,-0.017,-1.057,0
-0.372,-0.014,-1.283,0
-0.32,0.071,-0.924,0
-0.333,0.085,-0.735,0
-0.333,0.142,-0.819,0
-0.248,0.171,-0.968,0
-0.025,0.201,-1.064,0
0.097,0.22,-0.948,0
0.124,0.207,-0.53,0
0.077,0.142,-0.299,0
0.073,0.132,-0.296,0
-0.044,0.167,-0.03,0
-0.093,0.178,-0.171,0
-0.213,0.171,0.03,0
-0.269,0.17,0.529,0
-0.294,0.138,0.841,0
-0.297,0.183,1.388,0
-0.204,0.201,1.707,0
-0.023,0.315,1.855,0
-0.16,0.462,1.808,0
-0.18,0.423,1.823,0
-0.924,1.101,0.096,0
-0.903,1.132,-1.151,0
-0.568,1.063,-1.476,0
0.008,0.775,-0.694,1
0.031,0.277,1.213,0
0.003,-0.614,4.382,0
-0.226,-1.075,6.019,0
-0.227,-1.571,7.433,0
-0.41,-1.773,7.071,0
-0.733,-1.922,4.751,0
-0.8,-1.496,2.449,0
-0.875,-0.945,-0.182,0
-1.075,-0.908,-2.048,0
-1.259,-0.662,-3.828,0
-1.369,-0.52,-4.128,0
-1.122,-0.339,-2.854,0
-0.619,-0.147,-1.755,0
0.054,0.077,-0.256,0
0.128,-0.238,0.69,0
0.125,-0.496,0.995,0
-0.117,-0.677,0.942,0
-0.399,-0.955,0.752,0
-0.505,-0.969,0.438,0
-0.606,-0.88,-0.307,0
-0.627,-0.781,-0.812,0
-0.75,-0.585,-1.827,0
-0.839,-0.478,-2.411,0
-0.84,-0.27,-2.995,0
-0.871,-0.103,-2.83,0
-0.786,0.129,-2.296,0
-0.736,0.24,-2.052,0
-0.86,0.322,-1.711,0
-0.921,0.279,-1.526,0
-1.032,0.239,-0.958,0
-1.078,0.215,-0.473,0
-1.083,0.225,-0.475,0
-1.022,0.271,0.515,0
-1.027,0.293,0.667,0
-1.047,0.274,0.566,0
-0.983,0.276,0.017,0
-0.985,0.31,-0.222,0
-0.914,0.398,0.1,0
-0.79,0.475,0.298,0
-0.678,0.609,0.67,0
-0.774,0.515,1.003,0
-0.938,0.524,0.955,0
-0.651,0.604,0.735,0
-0.348,0.785,0.735,0
-0.096,0.725,0.824,0
-0.149,0.543,0.976,0
-0.27,0.46,1.078,0
-0.46,0.563,1.236,0
-0.779,0.864,1.1,0
-1.169,1.232,0.147,0
-1.032,1.286,-0.791,0
-0.628,1.343,-1.273,1
-0.097,1.212,-0.932,0
0.425,0.674,0.885,0
0.302,0.289,2.637,0
-0.052,-0.161,4.785,0
-0.103,-0.416,5.376,0
-0.574,-0.869,5.306,0
-1.149,-1.174,4.408,0
-1.57,-1.185,2.711,0
-1.612,-1.077,1.6,0
-1.696,-1.044,0.302,0
-1.649,-1.051,0.301,0
-1.554,-1.207,-1.007,0
-1.261,-1.204,-1.082,0
-0.648,-1.091,-0.829,0
-0.223,-0.952,-0.324,0
0.228,-1.021,0.496,0
0.368,-0.982,0.791,0
0.336,-0.983,0.794,0
0.241,-1.096,0.767,0
0.063,-1.021,0,0
-0.068,-0.944,-0.566,0
-0.173,-0.783,-1.393,0
-0.243,-0.673,-1.829,0
-0.376,-0.611,-2.587,0
-0.446,-0.48,-2.971,0
-0.48,-0.342,-3.234,0
-0.276,-0.213,-3.145,0
-0.153,-0.011,-2.793,0
-0.058,0.043,-2.419,0
-0.056,0.053,-2.423,0
-0.358,-0.008,-1.478,0
-0.477,0.022,-1.02,0
-0.595,-0.019,-0.699,0
-0.598,-0.009,-0.702,0
-0.849,-0.223,-0.327,0
-0.74,-0.051,-0.587,0
-0.454,0.1,-0.675,0
-0.055,0.32,-0.59,0
0.14,0.406,-0.466,0
0.256,0.366,-0.173,0
0.303,0.445,-0.022,0
0.047,0.333,0.382,0
-0.088,0.289,0.45,0
-0.159,0.305,0.598,0
-0.024,0.425,0.677,0
-0.024,0.392,0.688,0
0.336,0.764,0.303,0
0.473,0.848,0.533,0
0.492,0.866,0.854,0
0.837,0.927,1.412,0
0.9,0.842,2.028,0
0.498,0.883,2.775,0
-0.105,0.957,2.521,0
-0.752,0.92,0.502,1
-0.969,0.74,-0.191,0
-0.904,0.8,-0.759,0
-0.725,0.707,-0.394,0
-0.367,0.512,1.286,0
-0.035,0.285,2.539,0
0.223,-0.516,4.164,0
0.478,-0.872,5.042,0
0.627,-1.035,5.645,0
0.169,-1.157,5.094,0
-0.376,-1.091,2.383,0
-0.556,-0.813,0.059,0
-0.738,-0.386,-2.733,0
-0.883,-0.467,-3.819,0
-1.055,-0.257,-4.477,0
-1.009,-0.171,-3.884,0
-0.59,-0.135,-1.754,0
-0.239,-0.123,-0.533,0
-0.035,-0.639,0.881,0
-0.129,-0.936,1.276,0
-0.368,-1.245,1.246,0
-0.459,-1.416,0.935,0
-0.61,-1.488,0.375,0
-0.613,-1.405,-0.139,0
-0.527,-1.117,-1.143,0
-0.488,-0.911,-1.737,0
-0.601,-0.695,-2.452,0
-0.685,-0.622,-2.743,0
-0.71,-0.481,-2.959,0
-0.693,-0.408,-2.824,0
-0.515,-0.156,-2.386,0
-0.319,0.019,-2.21,0
-0.24,0.184,-1.938,0
-0.19,0.241,-1.756,0
-0.196,0.235,-1.547,0
-0.34,0.151,-1.278,0
-0.473,0.158,-0.612,0
-0.499,0.23,-0.176,0
-0.492,0.308,0.324,0
-0.524,0.335,0.372,0
-0.527,0.339,0.371,0
-0.43,0.426,-0.091,0
-0.045,0.453,-0.067,0
0.078,0.561,0.389,0
0.11,0.662,0.881,0
0.139,0.634,0.838,0
0.323,0.625,0.457,0
0.239,0.595,0.704,0
0.439,0.546,1.25,0
0.427,0.525,1.258,0
0.502,0.581,2.299,0
0.389,0.594,2.619,0
0.088,1.22,2.239,0
-0.365,1.381,1.186,0
-0.174,1.083,-0.179,1
0.074,1.087,-0.91,0
0.148,1.001,-1.073,0
0.373,0.722,-0.7,0
0.17,0.293,1.208,0
-0.172,0.085,2.275,0
-0.501,-0.496,3.68,0
-0.519,-0.654,4.009,0
-0.742,-0.902,3.901,0
-0.711,-0.964,3.51,0
-0.736,-0.892,3.121,0
-0.759,-1.018,2.766,0
-0.806,-1.155,1.97,0
-0.78,-1.182,1.415,0
-0.639,-1.152,0.383,0
-0.484,-1.093,-0.217,0
-0.126,-0.977,-1.016,0
0.148,-0.859,-1.09,0
0.604,-0.67,-0.853,0
0.791,-0.581,-0.696,0
0.705,-0.584,-0.698,0
0.613,-0.609,-0.706,0
0.549,-0.553,-0.789,0
0.458,-0.563,-0.937,0
0.108,-0.523,-1.22,0
-0.109,-0.513,-1.347,0
-0.211,-0.445,-1.677,0
-0.26,-0.318,-1.93,0
-0.151,-0.114,-2.312,0
-0.169,-0.065,-2.438,0
-0.212,0.031,-2.337,0
-0.152,0.075,-2.187,0
0.069,0.233,-1.646,0
0.139,0.279,-1.498,0
0.159,0.301,-1.466,0
0.158,0.293,-1.464,0
0.082,0.267,-1.149,0
0.062,0.28,-0.985,0
-0.113,0.199,-0.671,0
-0.183,0.181,-0.626,0
-0.078,0.259,-0.758,0
0.129,0.365,-0.855,0
0.282,0.504,-0.922,0
0.391,0.631,-0.692,0
0.482,0.742,-0.082,0
0.432,0.736,0.363,0
0.246,0.645,0.966,0
0.14,0.467,1.344,0
0.141,0.434,1.356,0
0.165,0.3,1.709,0
0.281,0.284,1.812,0
0.321,0.284,1.788,0
0.346,0.245,1.802,0
-0.33,0.943,1.318,0
-1.119,1.469,0.03,0
-1.269,1.455,-0.807,1
-1.032,1.388,-1.222,0
-0.496,1.389,-1.056,0
0.882,1.085,0.015,0
1.397,0.831,1.334,0
1.444,0.092,4.467,0
1.639,-0.282,5.689,0
0.978,-0.802,6.356,0
0.425,-1.06,5.568,0
-0.16,-1.087,2.938,0
-0.28,-0.996,1.197,0
-0.253,-0.675,-0.856,0
-0.382,-0.685,-1.631,0
-0.312,-0.748,-2.025,0
-0.216,-0.75,-1.76,0
-0.013,-0.934,-0.622,0
0.186,-1.112,0.281,0
0.402,-1.22,0.918,0
0.242,-1.377,0.925,0
0.088,-1.548,0.619,0
-0.034,-1.577,0.24,0
-0.023,-1.562,0.234,0
-0.355,-1.51,-1.299,0
-0.526,-1.337,-2.245,0
-0.535,-1.204,-2.647,0
-0.208,-0.829,-3.076,0
0.095,-0.519,-2.799,0
0.411,-0.134,-2.09,0
0.518,0.072,-1.626,0
0.281,0.062,-1.207,0
0.056,0.036,-0.994,0
-0.021,0.016,-0.856,0
-0.153,-0.07,-0.784,0
-0.311,-0.11,-1.068,0
-0.276,-0.087,-1.177,0
-0.045,0.039,-1.361,0
0.144,0.207,-1.158,0
0.433,0.455,-0.775,0
0.481,0.473,-0.653,0
0.287,0.343,-0.527,0
0.106,0.221,-0.142,0
-0.107,0.116,0.426,0
-0.298,0.162,0.685,0
-0.259,0.199,0.781,0
-0.175,0.337,0.63,0
0.12,0.48,0.08,0
0.266,0.459,-0.264,0
0.706,0.605,0.256,0
1.014,0.736,0.688,0
1.017,0.957,1.474,0
0.602,1.308,1.624,0
-0.357,1.514,0.317,0
-0.645,1.131,-0.828,0
-0.356,0.885,-1.139,0
0.193,1.049,-0.603,0
1.044,0.818,1.55,1
1.122,0.394,3.184,0
0.717,0.189,5.01,0
0.465,-0.02,5.72,0
-0.111,-0.515,5.51,0
-0.39,-0.557,4.398,0
-0.241,-0.336,2.362,0
0.165,-0.157,1.308,0
0.431,-0.148,0.236,0
0.49,-0.219,-0.363,0
0.456,-0.465,-0.617,0
0.546,-0.703,-0.598,0
0.83,-1.076,-0.092,0
0.886,-1.255,0.588,0
1.048,-1.396,1.11,0
1.04,-1.492,1.389,0
1.127,-1.384,1.368,0
1.025,-1.26,0.949,0
0.761,-1.229,-0.427,0
0.807,-1.042,-1.405,0
0.959,-0.657,-2.657,0
1.027,-0.509,-3.427,0
0.68,-0.389,-3.777,0
0.609,-0.385,-3.775,0
0.563,-0.322,-3.291,0
0.431,-0.288,-2.541,0
0.485,-0.168,-1.809,0
0.468,-0.112,-1.651,0
0.097,-0.112,-1.764,0
-0.006,-0.061,-1.785,0
-0.114,-0.084,-1.63,0
-0.138,-0.067,-1.391,0
-0.102,-0.061,-1.18,0
0.013,-0.1,-1.237,0
0.226,-0.117,-1.155,0
0.322,-0.102,-0.748,0
0.405,-0.077,0.189,0
0.361,-0.016,0.662,0
0.039,0.098,1.586,0
0.001,0.148,1.687,0
-0.107,0.272,0.895,0
-0.007,0.322,-0.051,0
0.239,0.389,-0.921,0
0.417,0.403,-0.756,0
0.791,0.387,0.097,0
0.874,0.385,1.209,0
0.85,0.343,2.736,0
0.626,0.31,3.123,0
-0.208,0.647,3,0
-0.866,1.092,1.411,0
-1.139,1.177,-0.936,0
-0.926,1.333,-2.615,0
-0.091,1.138,-3.528,1
0.759,1.014,-3.025,0
1.292,0.568,0.686,0
1.243,-0.068,3.283,0
1.116,-1.023,7.137,0
0.699,-1.331,8.755,0
-0.006,-1.533,8.6,0
-0.341,-1.393,5.846,0
-0.227,-0.765,1.423,0
-0.275,-0.349,-0.838,0
-0.343,-0.356,-3.147,0
-0.43,-0.404,-3.758,0
-0.417,-0.336,-3.019,0
-0.418,-0.49,-1.67,0
-0.003,-0.744,0.332,0
0.058,-0.902,1.102,0
0.052,-1.174,1.652,0
0.024,-1.138,1.206,0
-0.138,-1.212,-0.001,0
-0.001,-1.129,-0.784,0
0.163,-0.814,-1.893,0
0.157,-0.65,-2.313,0
0.085,-0.538,-2.79,0
-0.095,-0.518,-2.701,0
-0.373,-0.54,-2.155,0
-0.431,-0.453,-1.974,0
-0.325,-0.309,-1.839,0
-0.241,-0.18,-1.835,0
-0.066,0.026,-2.095,0
0.062,0.155,-2.373,0
0.185,0.27,-2.492,0
0.182,0.402,-2.441,0
0.026,0.391,-2.125,0
-0.2,0.277,-1.741,0
-0.432,0.156,-1.055,0
-0.52,0.157,-0.639,0
-0.48,0.209,-0.198,0
-0.345,0.251,0.078,0
-0.105,0.314,0.718,0
0.025,0.335,1.165,0
0.032,0.37,1.663,0
-0.067,0.422,1.694,0
0.023,0.372,1.121,0
0.133,0.462,0.505,0
0.255,0.47,0.249,0
0.324,0.46,0.452,0
0.325,0.439,0.459,0
0.198,0.365,1.716,0
0.308,0.733,2.201,0
0.076,1.124,2.105,0
-0.114,1.484,0.757,0
0.516,1.411,-0.112,0
1.217,1.479,-0.534,1
1.749,1.457,-0.442,0
1.768,0.709,1.824,0
1.26,0.179,3.562,0
0.133,-0.669,5.796,0
-0.338,-1.075,6.412,0
-0.903,-1.388,6.185,0
-1.088,-1.379,5.332,0
-0.912,-1.041,3.068,0
-0.609,-0.738,1.533,0
-0.305,-0.53,-0.017,0
-0.273,-0.538,-0.67,0
-0.463,-0.834,-0.896,0
-0.52,-1.12,-0.783,0
-0.317,-1.311,-0.527,0
-0.012,-1.284,-0.424,0
0.372,-1.261,0.069,0
0.606,-1.12,0.441,0
0.774,-0.942,0.379,0
0.76,-0.758,-0.045,0
0.559,-0.56,-1.144,0
0.534,-0.466,-1.791,0
0.585,-0.144,-2.631,0
0.51,-0.012,-2.883,0
0.284,0.008,-3.288,0
0.254,0.032,-3.336,0
0.114,0.057,-3.251,0
0.125,-0.014,-3.339,0
-0.143,-0.24,-2.713,0
-0.039,-0.204,-2.085,0
-0.055,-0.207,-2.085,0
0.173,0.038,-1.158,0
-0.043,0.004,-1.126,0
-0.188,0.028,-1.129,0
-0.195,0.133,-1.178,0
-0.11,0.252,-1.128,0
0.07,0.417,-1.047,0
0.223,0.479,-1.077,0
0.28,0.518,-0.704,0
0.444,0.531,-0.139,0
0.388,0.464,0.556,0
0.158,0.408,0.871,0
-0.311,0.128,1.462,0
-0.467,0.002,1.662,0
-0.462,-0.016,1.668,0
-0.72,0.099,1.464,0
-0.435,0.315,1.076,0
-0.275,0.442,1.039,0
-0.191,0.437,1.05,0
-0.071,0.495,1.025,0
-0.225,0.96,0.821,0
-0.514,1.232,0.457,0
-0.258,1.518,-0.858,0
0.111,1.609,-1.494,0
0.507,1.617,-1.732,1
0.754,1.46,-0.801,0
0.722,1.483,-0.81,0
0.648,0.07,3.466,0
0.457,-0.897,6.444,0
0.446,-1.213,7.859,0
0.113,-1.607,8.47,0
-0.12,-1.651,7.384,0
-0.296,-1.454,3.41,0
-0.365,-1.16,0.842,0
-0.489,-0.909,-2.102,0
-0.395,-0.972,-3.223,0
-0.433,-0.788,-4.606,0
-0.374,-0.641,-4.667,0
-0.246,-0.667,-3.189,0
-0.01,-0.857,-1.668,0
0.26,-0.9,-0.306,0
0.317,-1.011,0.337,0
0.309,-1.322,0.628,0
0.125,-1.431,0.376,0
-0.263,-1.798,-0.054,0
-0.425,-1.878,-0.22,0
-0.56,-1.793,-0.541,0
-0.478,-1.571,-0.798,0
-0.045,-1.058,-1.274,0
0.265,-0.666,-1.506,0
0.505,-0.313,-1.773,0
0.499,-0.232,-1.992,0
0.371,-0.162,-2.104,0
0.308,-0.151,-1.92,0
0.212,-0.141,-1.457,0
0.263,-0.082,-1.192,0
0.473,0.153,-1.003,0
0.603,0.337,-0.853,0
0.7,0.597,-0.871,0
0.754,0.795,-0.92,0
0.776,0.937,-1.003,0
0.733,0.956,-0.991,0
0.491,0.815,-0.554,0
0.314,0.676,-0.254,0
0.089,0.44,0.305,0
-0.031,0.409,0.632,0
-0.219,0.482,0.761,0
-0.252,0.532,0.619,0
-0.212,0.612,0.394,0
-0.15,0.671,0.356,0
-0.152,0.646,0.365,0
-0.081,0.552,1.435,0
-0.147,0.354,1.589,0
-0.114,0.351,1.35,0
-0.122,0.314,1.362,0
-0.729,0.868,0.074,0
-0.774,0.873,-0.624,0
-0.219,0.832,-1.054,1
0.498,0.968,-0.481,0
0.773,0.864,0.788,0
0.94,0.296,2.99,0
0.834,-0.053,4.135,0
0.097,-0.54,5.349,0
-0.227,-0.684,5.066,0
-0.995,-1.015,3.545,0
-1.036,-0.885,2.113,0
-0.902,-0.601,0.771,0
-0.827,-0.449,-0.021,0
-0.577,-0.313,-0.704,0
-0.396,-0.376,-0.621,0
-0.196,-0.517,-0.319,0
0.06,-0.58,-0.155,0
0.272,-0.825,0.216,0
0.43,-0.91,0.704,0
0.501,-1.048,1.079,0
0.344,-1.103,1.119,0
0.311,-1.117,0.752,0
0.256,-1.043,0.049,0
0.082,-0.911,-1.122,0
0.089,-0.814,-1.735,0
0.048,-0.395,-2.538,0
-0.018,-0.303,-2.911,0
0.313,-0.157,-3.526,0
0.331,0.075,-3.118,0
0.357,0.251,-2.246,0
0.37,0.332,-1.753,0
0.336,0.328,-1.681,0
0.235,0.356,-1.489,0
0.092,0.392,-1.402,0
-0.06,0.369,-1.499,0
-0.42,0.23,-1.594,0
-0.601,0.178,-1.747,0
-0.609,0.161,-1.742,0
-0.582,0.249,-2.19,0
-0.257,0.433,-2.373,0
0.021,0.585,-2.391,0
0.345,0.783,-2.398,0
0.483,0.814,-1.917,0
0.626,0.732,-0.936,0
0.36,0.638,-0.292,0
-0.225,0.319,0.629,0
-0.447,0.157,0.772,0
-0.562,0.064,0.998,0
-0.478,0.177,1.169,0
-0.225,0.254,1.484,0
-0.118,0.27,1.809,0
0.096,0.314,2.428,0
0.235,0.26,2.71,0
0.358,0.386,3.433,0
0.075,0.643,3.616,0
-0.357,0.963,2.289,0
-0.475,0.908,0.704,0
-0.594,0.795,-0.222,1
-0.275,0.834,-0.132,0
0.427,0.624,1.442,0
0.542,0.332,2.932,0
0.31,-0.326,4.781,0
0.407,-0.51,5.448,0
0.321,-0.932,5.86,0
0.207,-0.934,4.788,0
-0.004,-0.694,1.987,0
-0.061,-0.604,0.02,0
-0.112,-0.31,-2.07,0
-0.234,-0.401,-2.73,0
-0.364,-0.478,-2.867,0
-0.381,-0.402,-2.089,0
-0.01,-0.312,-0.111,0
0.236,-0.334,0.828,0
0.4,-0.53,1.524,0
0.414,-0.648,1.647,0
0.37,-0.775,1.444,0
0.261,-0.89,1.002,0
0.248,-0.881,1,0
0.045,-0.855,-0.667,0
0.114,-0.653,-1.739,0
0.1,-0.551,-2.325,0
0.001,-0.465,-2.932,0
0.012,-0.465,-3.1,0
-0.228,-0.341,-2.882,0
-0.386,-0.365,-2.417,0
-0.423,-0.302,-1.681,0
-0.414,-0.21,-1.588,0
-0.588,-0.168,-1.451,0
-0.671,-0.183,-1.506,0
-0.842,-0.176,-1.452,0
-0.864,-0.153,-1.125,0
-0.684,0.008,-0.656,0
-0.46,0.166,-0.373,0
-0.214,0.28,0.04,0
-0.289,0.27,0.213,0
-0.426,0.135,0.291,0
-0.531,0.049,0.257,0
-0.57,-0.105,0.307,0
-0.616,-0.117,0.372,0
-0.687,-0.046,0.47,0
-0.739,-0.023,0.722,0
-0.623,0.048,0.882,0
-0.496,0.18,0.976,0
-0.337,0.228,1.087,0
-0.165,0.273,0.999,0
-0.157,0.245,1.008,0
0.283,0.581,0.847,0
-0.047,1.087,0.424,0
-0.307,1.344,-0.42,0
0.12,1.369,-1.628,0
0.457,1.276,-1.923,0
0.55,1.245,-0.97,1
0.548,0.731,0.716,0
0.394,-0.182,3.197,0
-0.072,-0.439,4.286,0
-0.452,-0.796,6.065,0
-0.413,-0.925,6.436,0
-0.567,-0.981,5.666,0
-0.553,-0.835,4.167,0
-0.439,-0.604,2.055,0
-0.15,-0.448,0.81,0
0.007,-0.482,-0.443,0
0.012,-0.602,-0.957,0
0.161,-0.758,-1.403,0
0.259,-0.893,-1.499,0
0.512,-1.129,-1.198,0
0.841,-1.129,-0.59,0
1.21,-1.052,0.08,0
1.207,-1.077,0.425,0
0.914,-1.316,0.542,0
0.671,-1.296,0.31,0
0.531,-1.144,-0.326,0
0.376,-1.07,-0.962,0
0.201,-0.697,-1.696,0
0.287,-0.457,-2.064,0
0.286,-0.177,-2.401,0
0.397,0.098,-2.833,0
0.374,0.285,-3.097,0
0.488,0.398,-3.208,0
0.795,0.696,-3.262,0
0.864,0.762,-3.001,0
0.711,0.73,-2.154,0
0.503,0.569,-1.506,0
0.256,0.28,-0.852,0
0.193,0.289,-0.693,0
0.268,0.383,-0.405,0
0.323,0.416,-0.194,0
0.235,0.482,-0.009,0
0.145,0.503,-0.11,0
0.228,0.543,-0.308,0
0.309,0.503,-0.42,0
0.352,0.465,-0.472,0
0.303,0.445,-0.343,0
0.133,0.403,0.048,0
-0.037,0.318,0.38,0
-0.028,0.299,0.387,0
-0.323,0.069,1.186,0
-0.213,0.147,1.508,0
0.01,0.259,1.638,0
0.206,0.353,1.646,0
0.299,0.462,1.529,0
0.366,1.123,1.477,0
0.263,1.569,0.987,0
0.597,1.764,-0.373,0
0.754,1.698,-0.905,0
0.794,1.457,-0.754,1
0.94,1.089,0.389,0
0.718,0.367,3.141,0
0.711,-0.02,4.544,0
0.538,-0.498,5.635,0
0.241,-0.965,6.282,0
0.279,-1.208,5.386,0
0.024,-0.985,3.437,0
-0.015,-0.734,0.767,0
0.015,-0.6,-0.995,0
0.059,-0.621,-0.989,0
-1.007,-0.743,-3.106,0
-1.336,-0.894,-2.594,0
-1.374,-0.835,-1.846,0
-1.062,-0.893,-0.307,0
-0.643,-0.852,0.356,0
-0.136,-0.718,0.426,0
0.047,-0.711,0.245,0
0.204,-0.783,-0.14,0
0.213,-0.78,-0.403,0
0.153,-0.759,-0.765,0
0.068,-0.729,-1.027,0
0.072,-0.717,-1.031,0
-0.204,-0.616,-2.045,0
-0.225,-0.506,-2.412,0
-0.262,-0.363,-2.564,0
-0.255,-0.345,-2.693,0
-0.166,-0.183,-2.479,0
-0.026,0.073,-2.074,0
0.128,0.149,-1.957,0
0.296,0.235,-1.581,0
0.098,0.284,-1.354,0
-0.184,0.214,-1.149,0
-0.399,0.094,-1.147,0
-0.671,-0.021,-0.853,0
-0.744,0.014,-0.736,0
-0.786,0.1,-0.556,0
-0.82,0.112,-0.459,0
-0.745,0.115,-0.349,0
-0.511,0.13,-0.309,0
-0.33,0.209,0.068,0
-0.191,0.268,0.641,0
-0.077,0.239,1.432,0
-0.173,0.218,1.979,0
-0.276,0.211,2.164,0
-0.332,0.151,1.97,0
-0.259,0.191,1.297,0
-0.11,0.281,0.955,0
-0.112,0.731,0.919,0
-0.273,1.141,0.671,0
-0.295,1.471,-0.336,0
0.377,1.457,-0.903,0
0.877,1.55,-0.715,1
0.93,1.322,-0.014,0
0.678,0.612,1.67,0
0.264,0.086,2.922,0
-0.32,-0.585,4.012,0
-0.491,-0.992,4.746,0
-0.699,-1.528,6.103,0
-0.793,-1.584,6.413,0
-0.94,-1.386,5.449,0
-0.828,-1.147,3.61,0
-0.504,-0.821,1.222,0
-0.316,-0.753,-0.322,0
-0.235,-0.725,-1.699,0
0.08,-0.71,-2.031,0
0.471,-0.439,-1.769,0
0.868,-0.345,-1.196,0
1.458,-0.251,-0.277,0
1.654,-0.18,0.028,0
1.713,-0.26,-0.067,0
1.644,-0.326,-0.331,0
1.658,-0.323,-0.332,0
1.186,-0.509,-1.262,0
0.833,-0.55,-1.611,0
0.64,-0.523,-1.763,0
0.51,-0.445,-2.113,0
0.378,-0.403,-2.34,0
0.189,-0.304,-2.279,0
0.059,-0.315,-2.156,0
-0.102,-0.369,-1.911,0
-0.008,-0.239,-1.494,0
0.107,-0.123,-1.089,0
0.333,0.02,-1.094,0
0.305,0.033,-1.071,0
0.176,0.032,-1.068,0
-0.003,0.026,-1.104,0
0.017,-0.01,-1.293,0
-0.098,-0.042,-1.427,0
-0.153,-0.004,-1.142,0
-0.059,0.03,-0.595,0
-0.037,0.071,-0.391,0
0.249,0.082,-0.512,0
0.331,-0.017,-0.653,0
0.052,0.055,-0.399,0
0.152,0.168,0.044,0
0.319,0.338,0.39,0
0.257,0.51,0.981,0
0.184,0.534,1.388,0
0.1,0.55,1.027,0
0.027,0.536,0.5,0
0.108,0.547,0.484,0
0.089,0.669,1.104,0
-0.137,0.842,1.475,0
-0.67,1.202,1.124,0
-0.744,1.141,0.234,0
-0.369,1.104,-0.54,0
-0.16,1.134,-0.747,0
0.311,0.999,0.331,1
0.364,0.893,1.685,0
0.293,0.298,3.827,0
0.234,0.346,3.81,0
0.103,-0.774,5.807,0
-0.108,-1.059,5.711,0
-0.344,-1.244,4.42,0
-0.161,-0.924,2.807,0
-0.005,-0.448,0.6,0
0.026,-0.366,-0.548,0
-0.273,-0.233,-2.122,0
-0.584,-0.369,-2.521,0
-0.941,-0.426,-2.083,0
-1.026,-0.443,-1.248,0
-0.895,-0.761,0.146,0
-0.806,-0.82,0.624,0
-0.521,-0.875,1.025,0
-0.324,-0.93,0.953,0
-0.078,-0.804,0.648,0
-0.075,-0.774,0.321,0
-0.14,-0.78,-0.664,0
-0.232,-0.748,-1.382,0
-0.336,-0.726,-2.384,0
-0.41,-0.695,-2.495,0
-0.544,-0.653,-2.31,0
-0.595,-0.596,-2.152,0
-0.627,-0.532,-1.975,0
-0.632,-0.538,-1.973,0
-0.426,-0.08,-1.946,0
-0.352,0.1,-2.212,0
0.004,0.465,-2.618,0
0.294,0.64,-2.674,0
0.447,0.714,-2.697,0
0.216,0.569,-2.355,0
-0.219,0.189,-1.34,0
-0.466,0.012,-0.655,0
-0.84,-0.204,0.131,0
-0.932,-0.167,0.563,0
-0.753,0.034,0.781,0
-0.654,0.161,0.644,0
-0.577,0.408,0.347,0
-0.518,0.578,0.07,0
-0.298,0.824,0.16,0
-0.248,0.869,0.477,0
-0.141,0.806,1.075,0
-0.115,0.583,1.389,0
-0.227,0.44,1.916,0
-0.173,0.447,2.12,0
-0.057,0.548,1.908,0
-0.284,0.812,1.399,0
-0.541,1.023,0.07,0
-0.101,0.95,-0.731,0
0.607,1.067,-1.138,0
0.794,1.004,-0.599,0
0.703,0.507,1.261,1
0.291,0.202,2.361,0
-0.458,-0.432,3.69,0
-0.488,-0.717,3.848,0
-0.901,-1.039,3.736,0
-0.935,-1.064,3.466,0
-0.632,-0.697,2.592,0
-0.417,-0.478,1.81,0
-0.209,-0.288,0.407,0
-0.154,-0.259,-0.168,0
-0.251,-0.39,-0.843,0
-0.379,-0.529,-1.129,0
-0.608,-0.876,-1.346,0
-0.639,-1.1,-1.193,0
-0.593,-1.231,-0.651,0
-0.394,-1.303,-0.298,0
-0.021,-1.175,0.488,0
0.173,-1.009,0.814,0
0.401,-0.807,0.911,0
0.465,-0.635,0.777,0
0.46,-0.627,0.774,0
0.382,-0.285,-0.322,0
0.185,-0.159,-1.505,0
0.214,-0.074,-2.118,0
0.315,0.018,-2.847,0
0.307,0.009,-2.911,0
0.062,-0.018,-2.654,0
0.002,-0.024,-2.319,0
0.017,-0.015,-2.322,0
-0.031,0.142,-1.841,0
0.034,0.266,-1.537,0
0.173,0.382,-1.525,0
-0.157,0.281,-1.222,0
-0.277,0.218,-1.029,0
-0.566,-0.001,-0.387,0
-0.68,-0.073,-0.18,0
-0.761,-0.127,0.486,0
-0.544,0.065,0.86,0
-0.094,0.348,0.876,0
0.149,0.488,0.82,0
0.151,0.472,0.826,0
0.008,0.53,0.809,0
-0.163,0.485,1.677,0
-0.287,0.33,2.318,0
-0.568,-0.014,3.175,0
-0.591,-0.096,3.586,0
-0.263,0.003,3.106,0
-0.017,0.152,2.2,0
-0.052,0.721,0.593,0
-0.279,1.135,-0.564,0
-0.178,1.4,-2.534,0
-0.061,1.266,-2.864,0
-0.305,0.733,-1.582,1
-0.15,0.44,-0.574,0
-0.169,-0.201,1.914,0
-0.079,-0.749,3.008,0
-0.185,-1.455,4.978,0
-0.205,-1.801,5.756,0
-0.523,-1.929,6.105,0
-0.563,-1.689,4.745,0
0.016,-0.851,0.884,0
-0.156,-0.527,-0.874,0
-0.265,-0.284,-2.913,0
-0.315,-0.186,-3.494,0
-0.771,-0.19,-3.286,0
-0.841,-0.262,-2.409,0
-0.535,-0.381,-0.692,0
-0.304,-0.535,-0.033,0
-0.075,-0.595,0.253,0
0.115,-0.64,0.074,0
0.315,-0.67,-0.355,0
0.335,-0.6,-0.581,0
0.318,-0.517,-0.74,0
0.277,-0.465,-0.816,0
0.071,-0.498,-0.975,0
0.062,-0.481,-1.211,0
0.08,-0.456,-1.613,0
0.108,-0.449,-1.761,0
0.11,-0.446,-1.762,0
-0.121,-0.383,-1.783,0
-0.094,-0.261,-1.451,0
-0.146,-0.183,-1.186,0
-0.153,-0.179,-1.188,0
-0.101,-0.068,-0.655,0
-0.098,0.023,-0.698,0
-0.025,0.072,-0.807,0
-0.09,0.094,-0.721,0
-0.16,0.072,-0.488,0
-0.128,0.125,-0.334,0
-0.122,0.136,-0.373,0
-0.204,0.155,-0.249,0
-0.234,0.108,-0.139,0
-0.312,0.207,0.222,0
-0.383,0.325,0.431,0
-0.244,0.453,0.189,0
-0.303,0.41,-0.087,0
-0.289,0.394,-0.082,0
0.144,0.389,-0.001,0
0.142,0.374,0.004,0
0.4,0.234,1.348,0
0.382,0.19,2.448,0
0.368,0.293,2.81,0
-0.066,0.921,2.251,0
-0.093,1.067,0.909,0
