accelX,accelY,accelZ,label
0.348,0.005,3.867,1
0.33,-0.027,3.874,1
0.958,-0.29,1.612,1
1.231,-0.193,1.323,1
1.449,-0.089,1.758,1
1.211,0.093,2.706,1
1.229,0.046,2.851,1
1.74,-0.316,2.606,1
1.932,-0.637,2.461,1
1.791,-1.21,3.133,1
1.57,-1.521,3.731,1
1.059,-1.857,3.914,1
0.633,-1.932,3.332,1
0.521,-1.859,1.42,1
0.638,-1.642,0.203,1
0.945,-1.042,-1.429,1
1.243,-0.722,-2.164,1
1.667,-0.369,-3.2,1
1.894,-0.212,-3.631,1
2.264,-0.138,-3.761,1
2.202,-0.295,-3.127,1
1.928,-0.77,-1.684,0
1.775,-1.18,-0.611,0
1.404,-1.584,0.447,0
1.127,-1.65,0.901,0
1.028,-1.638,1.076,0
1.139,-1.483,0.742,0
1.501,-0.984,-0.433,0
1.743,-0.683,-1.362,0
1.918,-0.323,-2.177,0
1.876,-0.149,-2.501,0
1.647,-0.068,-2.561,0
1.476,-0.076,-2.303,0
1.236,-0.091,-1.602,0
1.139,-0.12,-1.248,0
0.955,-0.156,-0.971,0
0.922,-0.108,-1.006,0
1.185,0.037,-1.25,0
1.444,0.192,-1.511,0
1.629,0.407,-1.514,0
1.797,0.479,-1.341,0
1.706,0.401,-0.829,0
1.544,0.316,-0.387,0
1.323,0.168,0.423,0
1.287,0.166,0.88,0
0.92,0.194,1.26,0
0.694,0.14,1.048,0
0.624,0.083,0.393,0
0.719,0.137,-0.031,0
1.021,0.353,0.172,0
1.284,0.41,0.783,0
1.079,0.268,1.949,0
0.805,0.084,2.496,0
0.622,-0.128,3.154,0
0.498,-0.148,3.643,0
0.47,-0.196,3.652,1
-0.265,0.487,3.159,1
-0.559,0.798,0.92,1
-0.44,0.848,-0.516,1
0.247,1.024,-1.757,1
0.708,1.289,-1.771,1
1.305,1.409,-0.605,1
1.656,0.948,0.663,1
2.026,-0.458,3.249,1
1.772,-1.196,5.592,1
1.311,-1.972,8.156,1
0.755,-2.418,8.662,1
0.135,-2.449,6.144,1
0.069,-2.16,3.629,1
0.155,-1.579,-0.247,1
0.271,-1.38,-1.984,1
0.385,-0.955,-3.689,1
0.35,-0.647,-3.958,1
0.226,-0.419,-3.496,1
0.385,-0.438,-2.713,1
0.755,-0.655,-1.155,1
1.004,-0.804,-0.179,0
1.051,-1.082,0.266,0
0.91,-1.259,0.086,0
0.623,-1.455,-0.438,0
0.592,-1.43,-0.816,0
0.734,-1.301,-1.451,0
0.885,-1.119,-1.77,0
1.13,-0.782,-1.915,0
1.245,-0.513,-1.857,0
1.344,-0.323,-1.848,0
1.186,-0.278,-1.721,0
0.854,-0.346,-1.331,0
0.712,-0.39,-1.202,0
0.499,-0.365,-1.295,0
0.45,-0.302,-1.463,0
0.521,-0.239,-1.7,0
0.587,-0.204,-1.601,0
0.571,-0.145,-1.218,0
0.639,-0.196,-0.899,0
0.603,-0.307,-0.152,0
0.483,-0.417,0.308,0
0.359,-0.54,1.156,0
0.306,-0.597,1.469,0
0.365,-0.638,1.447,0
0.441,-0.606,1.242,0
0.539,-0.415,1.025,0
0.684,-0.328,0.7,0
0.735,-0.107,0.509,0
0.864,-0.011,0.617,0
1.028,-0.166,1.089,0
1.114,-0.367,1.588,0
1.182,-0.763,2.455,0
1.035,-0.781,3.028,0
0.766,-0.637,3.095,0
0.535,-0.313,2.256,0
0.72,0.01,0.718,0
0.96,-0.057,-0.17,0
1.323,0.125,-0.306,1
1.499,0.148,0.224,1
1.405,-0.12,1.385,1
1.058,-0.245,2.122,1
0.769,-0.689,2.577,1
0.91,-1.04,2.288,1
1.08,-1.393,2.009,1
1.154,-1.441,2.378,1
1.141,-1.452,3.071,1
0.974,-1.495,3.172,1
0.643,-1.703,2.707,1
0.538,-1.783,2.12,1
0.476,-1.739,0.939,1
0.655,-1.591,0.247,1
0.988,-1.421,-0.463,1
1.236,-1.281,-0.76,1
1.574,-1.07,-0.908,1
1.901,-0.93,-0.873,1
2.082,-0.821,-0.683,1
2.03,-0.803,-0.471,1
1.939,-0.782,-0.306,1
1.789,-0.793,-0.417,0
1.547,-0.716,-0.749,0
1.518,-0.617,-1.051,0
1.545,-0.515,-1.46,0
1.49,-0.439,-1.589,0
1.364,-0.338,-1.447,0
1.32,-0.305,-1.183,0
1.167,-0.256,-0.976,0
1.031,-0.233,-1.089,0
0.84,-0.164,-1.595,0
0.904,-0.11,-1.882,0
0.894,-0.105,-2.135,0
0.809,-0.11,-2.075,0
0.791,-0.134,-1.79,0
0.82,-0.094,-1.314,0
0.871,-0.136,-0.685,0
0.966,-0.148,-0.412,0
1.008,-0.157,-0.161,0
1.128,-0.144,-0.021,0
1.232,0,0.26,0
1.003,-0.029,0.241,0
0.708,-0.039,-0.004,0
0.601,-0.063,-0.186,0
0.738,-0.025,-0.28,0
0.892,0.043,0.028,0
1,0.051,0.669,0
0.958,-0.075,1.066,0
0.785,-0.323,1.501,0
0.71,-0.435,1.784,0
0.839,-0.593,2.49,0
0.805,-0.774,2.912,0
0.075,-0.398,2.995,0
-0.199,0.043,1.982,0
-0.143,0.282,-0.144,0
0.087,0.355,-0.985,0
0.101,0.32,-0.971,1
0.786,0.618,-0.416,1
0.744,0.185,1.562,1
1.024,-0.497,2.883,1
1.233,-1.377,4.745,1
1.231,-1.829,5.969,1
0.97,-2.025,6.777,1
0.632,-1.972,6.221,1
0.524,-1.646,3.332,1
0.512,-1.363,1.335,1
0.516,-0.772,-1.148,1
0.755,-0.556,-2.108,1
0.754,-0.36,-2.491,1
0.557,-0.366,-2.133,1
0.535,-0.762,-0.977,1
0.905,-1.022,0.354,1
1.312,-1.183,1.995,1
1.328,-1.328,2.456,1
1.236,-1.432,2.159,1
1.215,-1.412,1.453,1
1.186,-1.228,-0.284,1
1.152,-1.067,-1.363,0
1.162,-0.876,-2.232,0
1.336,-0.677,-2.589,0
1.447,-0.425,-2.768,0
1.435,-0.351,-2.721,0
1.292,-0.377,-2.234,0
1.193,-0.402,-1.87,0
1.042,-0.316,-1.518,0
0.907,-0.317,-1.605,0
0.699,-0.304,-2.062,0
0.535,-0.249,-2.333,0
0.522,-0.249,-2.364,0
0.61,-0.252,-2.271,0
0.587,-0.306,-1.749,0
0.601,-0.293,-1.12,0
0.774,-0.388,-0.25,0
0.825,-0.384,0.107,0
0.928,-0.329,0.753,0
1.054,-0.357,0.963,0
1.25,-0.409,0.876,0
1.128,-0.416,0.646,0
0.892,-0.455,0.781,0
0.671,-0.514,1.081,0
0.419,-0.633,1.591,0
0.486,-0.601,1.732,0
0.765,-0.483,1.582,0
0.969,-0.442,1.366,0
1.057,-0.313,1.083,0
1.133,-0.251,0.865,0
1.345,0.222,0.879,0
1.167,0.725,0.913,0
1.22,0.515,0.627,0
1.418,0.228,0.86,0
1.262,0.025,1.538,1
1.203,-0.089,2.051,1
0.814,-0.224,2.513,1
0.488,-0.119,2.03,1
0.68,0.064,0.871,1
1.264,-0.001,0.144,1
1.779,-0.435,0.881,1
1.827,-0.807,2.401,1
1.571,-1.383,4.768,1
0.913,-1.738,5.641,1
0.081,-2.231,5.515,1
-0.006,-2.148,4.03,1
0.325,-1.594,1.353,1
0.542,-1.015,-0.255,1
1.046,-0.533,-1.9,1
1.402,-0.258,-2.829,1
1.518,0.016,-3.083,1
1.512,-0.017,-2.514,1
1.436,-0.386,-1.199,1
1.273,-0.616,-0.61,1
1.111,-0.912,-0.084,1
1.175,-0.971,-0.075,0
1.304,-0.935,-0.477,0
1.46,-0.75,-1.012,0
1.796,-0.462,-1.893,0
1.916,-0.316,-2.262,0
2.052,-0.137,-2.443,0
2.007,-0.066,-2.352,0
1.671,0.064,-1.849,0
1.689,0.081,-1.851,0
1.203,-0.023,-1.056,0
1.04,-0.054,-0.881,0
0.937,-0.007,-1.019,0
0.963,0.06,-1.264,0
1.185,0.25,-1.423,0
1.328,0.295,-1.442,0
1.461,0.393,-1.151,0
1.568,0.448,-0.792,0
1.669,0.495,-0.088,0
1.737,0.481,0.299,0
1.627,0.352,0.535,0
1.301,0.191,0.62,0
0.869,-0.129,0.58,0
0.7,-0.238,0.563,0
0.828,-0.133,0.955,0
1.108,0.033,1.189,0
1.195,0.2,1.682,0
1.107,0.15,1.728,0
1.383,0.259,1.962,0
1.606,0.21,2.173,0
1.604,0.017,2.485,0
1.072,0.022,2.704,0
0.56,0.222,2.042,0
0.604,0.348,1.136,0
0.619,0.324,1.145,1
1.054,0.718,-0.219,1
1.336,0.988,0.404,1
1.577,0.836,0.756,1
1.681,0.081,1.135,1
1.734,-0.744,2.289,1
1.597,-1.689,4.609,1
1.245,-2.116,5.827,1
0.503,-2.665,6.691,1
0.171,-2.607,5.888,1
0.238,-2.066,2.508,1
0.384,-1.528,0.132,1
0.458,-1.017,-2.309,1
0.588,-0.863,-3.599,1
0.461,-0.654,-4.214,1
0.347,-0.613,-3.724,1
0.774,-0.717,-2,1
1.099,-0.664,-0.959,1
1.282,-0.916,0.267,1
1.163,-1.247,0.801,1
0.971,-1.623,1.24,1
0.788,-1.666,0.926,0
0.669,-1.593,0.081,0
0.765,-1.455,-0.728,0
1.047,-1.03,-1.704,0
1.17,-0.703,-2.006,0
1.351,-0.266,-1.949,0
1.376,-0.072,-1.743,0
1.377,0.147,-1.459,0
1.401,0.233,-1.283,0
1.401,0.28,-1.039,0
1.386,0.191,-0.811,0
1.245,0.065,-0.698,0
1.101,-0.074,-0.629,0
0.937,-0.19,-0.576,0
0.834,-0.25,-0.619,0
0.661,-0.335,-0.699,0
0.548,-0.389,-0.686,0
0.53,-0.355,-0.188,0
0.589,-0.326,0.252,0
0.646,-0.215,0.592,0
0.729,-0.164,0.786,0
0.869,-0.106,0.936,0
0.842,-0.073,0.977,0
0.941,-0.064,1.051,0
0.876,-0.08,1.155,0
0.757,-0.092,1.077,0
0.856,-0.089,0.791,0
0.907,-0.102,0.615,0
1.055,-0.144,0.654,0
1.275,-0.115,1.173,0
1.363,-0.079,1.586,0
1.362,0.212,1.579,0
1.556,0.489,1.106,0
1.886,0.73,0.303,1
2.101,0.73,0.093,1
2.232,0.462,0.005,1
2.132,0.15,0.486,1
1.824,-0.316,1.79,1
1.637,-0.487,2.631,1
1.587,-0.54,3.191,1
1.649,-0.541,3.173,1
1.942,-0.7,3.249,1
2.074,-0.79,3.514,1
1.8,-0.955,4.071,1
1.531,-1.014,4.452,1
1.385,-1.17,3.845,1
1.475,-1.023,2.413,1
1.667,-0.645,0.377,1
1.863,-0.403,-0.747,1
2.223,-0.19,-2.002,1
2.392,-0.058,-2.513,1
2.481,0.041,-2.809,1
2.42,-0.043,-2.566,1
2.237,-0.344,-1.736,1
2.077,-0.517,-1.266,0
1.848,-0.733,-1.017,0
1.793,-0.776,-0.94,0
1.571,-0.809,-1.02,0
1.53,-0.779,-1.255,0
1.434,-0.779,-1.745,0
1.424,-0.698,-1.73,0
1.645,-0.41,-1.819,0
1.799,-0.2,-2.11,0
1.635,-0.017,-2.315,0
1.534,0.046,-2.381,0
1.355,0.119,-2.141,0
1.249,0.206,-1.824,0
1.098,0.247,-1.739,0
1.061,0.307,-1.837,0
1.195,0.402,-1.89,0
1.219,0.417,-1.737,0
1.374,0.407,-0.974,0
1.582,0.526,-0.128,0
1.817,0.578,0.726,0
1.755,0.45,1.314,0
1.733,0.289,2.035,0
1.674,0.185,2.304,0
1.49,0.129,2.028,0
1.401,0.122,1.586,0
1.224,0.146,0.967,0
1.187,0.168,0.875,0
1.275,0.15,1.364,0
1.33,0.1,1.799,0
1.326,-0.065,2.373,0
1.345,-0.12,2.475,0
0.922,0.058,2.578,0
0.696,0.153,2.301,0
0.833,0.63,1.105,1
0.929,0.967,0.234,1
1.563,1.263,-0.638,1
1.918,1.356,-0.697,1
2.115,0.999,-0.318,1
2.338,0.293,0.487,1
2.759,-0.944,2.809,1
2.64,-1.566,4.614,1
1.671,-2.724,7.965,1
0.909,-3.166,9.062,1
0.232,-3.084,8.41,1
0.414,-2.534,5.431,1
0.623,-1.478,0.583,1
0.988,-0.99,-1.697,1
1.647,-0.428,-3.929,1
1.924,0.081,-4.582,1
1.889,0.587,-4.133,1
1.862,0.626,-3.167,1
1.966,0.289,-1.256,1
2.082,0.118,-0.409,1
1.963,-0.185,0.158,1
1.818,-0.333,-0.307,0
1.752,-0.431,-1.353,0
1.673,-0.335,-2.252,0
1.384,-0.199,-3.215,0
1.257,-0.186,-3.579,0
1.099,-0.065,-3.803,0
0.989,0.097,-3.624,0
0.867,0.139,-2.759,0
0.786,0.09,-1.875,0
0.719,0.063,-0.796,0
0.71,0.101,-0.286,0
0.6,0.066,0.325,0
0.466,-0.036,0.206,0
0.408,-0.001,-0.713,0
0.487,0.174,-1.144,0
0.792,0.403,-1.22,0
0.941,0.513,-1.074,0
0.952,0.66,-0.664,0
1.029,0.772,-0.217,0
1.15,0.787,0.236,0
1.295,0.725,0.38,0
1.384,0.68,0.66,0
1.32,0.57,1.021,0
1.313,0.306,2.028,0
1.349,0.19,2.105,0
1.293,0.155,1.386,0
1.167,0.135,0.714,0
1.27,0.297,0.136,0
1.532,0.372,0.077,0
1.765,0.356,0.394,0
1.995,0.325,0.995,0
2.055,0.085,1.774,0
1.897,-0.141,2,1
1.883,-0.158,2.002,1
1.602,0.227,2.168,1
1.035,0.636,0.761,1
1.052,0.575,-0.17,1
1.647,0.312,-0.511,1
1.917,0.286,0.086,1
1.858,0.226,1.762,1
1.534,0.225,2.705,1
1.237,0.014,3.093,1
1.298,-0.274,2.794,1
1.57,-0.671,2.445,1
1.79,-0.796,2.608,1
1.806,-0.835,2.957,1
1.744,-0.842,3.004,1
1.796,-0.744,2.388,1
1.736,-0.68,1.49,1
1.61,-0.365,-0.309,1
1.54,-0.179,-1.248,1
1.65,-0.067,-2.291,1
1.772,-0.114,-2.503,1
1.562,-0.141,-2.122,0
1.277,-0.313,-1.374,0
1.053,-0.591,-0.177,0
1.002,-0.648,0.265,0
0.845,-0.568,0.072,0
0.829,-0.565,0.069,0
0.917,-0.179,-1.408,0
1.097,0.141,-1.845,0
1.451,0.671,-2.162,0
1.747,0.835,-2.323,0
1.745,1.019,-2.319,0
1.63,1.063,-2.232,0
1.524,1.068,-2.255,0
1.403,1.087,-2.25,0
1.244,1.124,-1.961,0
1.143,1.026,-1.786,0
0.92,0.898,-1.749,0
0.954,0.926,-1.821,0
1.267,1.096,-1.755,0
1.363,1.178,-1.437,0
1.446,1.089,-0.918,0
1.44,1.002,-0.46,0
1.531,0.993,0.235,0
1.452,0.962,0.654,0
1.343,0.856,0.968,0
1.19,0.764,0.921,0
0.859,0.661,0.636,0
0.743,0.624,0.478,0
0.855,0.578,0.543,0
0.971,0.684,0.878,0
1.264,0.761,1.16,0
1.385,0.698,1.379,0
1.249,0.48,1.858,0
1.395,0.422,2.223,0
1.418,0.648,2.396,0
1.023,0.969,2.022,0
0.52,1.198,0.724,0
0.579,1.192,-0.127,0
0.807,1.416,-0.848,1
0.606,1.779,-1.001,1
0.659,1.898,-1.139,1
1.102,1.373,-1.102,1
1.84,-0.25,0.986,1
2.067,-1.112,3.242,1
1.634,-2.372,7.438,1
0.526,-2.993,9.083,1
-0.918,-3.183,7.704,1
-0.977,-2.625,4.971,1
-0.727,-1.79,0.481,1
-0.345,-1.121,-2.314,1
0.524,-0.075,-4.64,1
0.887,0.5,-5.024,1
1.289,1.099,-4.128,1
1.511,1.122,-2.918,1
1.664,0.69,-0.47,1
1.505,0.346,0.911,1
1.096,-0.273,1.584,1
0.775,-0.656,1.192,1
0.778,-0.594,-0.197,1
0.958,-0.33,-1.149,0
1.166,0.195,-2.325,0
1.213,0.406,-2.657,0
1.391,0.626,-2.693,0
1.484,0.865,-2.424,0
1.335,1.023,-1.942,0
1.182,0.988,-1.647,0
1.083,0.803,-1.453,0
0.973,0.745,-1.366,0
0.773,0.602,-1.29,0
0.679,0.513,-1.306,0
0.728,0.488,-1.458,0
0.837,0.514,-1.583,0
1.104,0.595,-1.669,0
1.263,0.718,-1.452,0
1.3,0.708,-0.856,0
1.245,0.657,-0.271,0
1.205,0.628,0.296,0
1.132,0.681,0.554,0
0.986,0.721,1.069,0
1.107,0.708,1.238,0
1.286,0.765,0.782,0
1.28,0.855,0.299,0
1.256,0.987,0.13,0
1.28,0.93,0.357,0
1.097,0.92,1.034,0
0.823,0.876,1.434,0
0.611,0.767,1.63,0
0.674,0.752,1.674,0
0.708,0.831,1.81,0
0.405,1.146,1.639,0
0.158,1.364,0.58,0
0.63,1.143,-0.043,0
0.628,1.11,-0.036,1
1.158,0.758,0.791,1
0.95,0.159,2.613,1
0.777,-0.15,3.586,1
-0.005,-0.621,4.389,1
0.025,-0.916,4.604,1
0.669,-1.332,5.018,1
1.134,-1.303,5.307,1
1.312,-1.091,5.548,1
1.262,-0.918,5.244,1
1.168,-0.69,3.646,1
1.082,-0.606,1.618,1
1.051,-0.411,-0.869,1
1.161,-0.177,-2.305,1
1.399,0.123,-3.537,1
1.514,0.253,-3.843,1
1.852,0.323,-3.966,1
2.129,0.431,-3.495,1
2.123,0.392,-2.415,1
1.905,0.161,-1.587,1
1.558,-0.221,-1.003,1
1.315,-0.271,-0.902,0
1.004,-0.24,-1.107,0
0.867,-0.277,-1.373,0
0.874,-0.269,-1.373,0
1.145,0.085,-2.053,0
1.051,0.316,-1.928,0
1.105,0.389,-1.714,0
1.131,0.504,-1.494,0
1.024,0.609,-1.257,0
0.938,0.629,-1.099,0
0.792,0.619,-1.229,0
0.557,0.654,-1.565,0
0.605,0.747,-1.897,0
0.782,0.887,-2.174,0
0.853,0.949,-2.037,0
0.937,1.037,-1.495,0
0.849,1.021,-0.915,0
0.749,0.938,-0.137,0
0.819,0.92,0.345,0
1.109,0.93,0.566,0
1.335,1.014,0.624,0
1.518,1.02,0.626,0
1.525,1.03,0.723,0
1.26,0.92,1.072,0
1.008,0.789,1.341,0
0.721,0.691,1.469,0
0.519,0.704,1.649,0
0.581,0.74,1.892,0
0.662,0.769,1.868,0
0.694,0.915,1.536,0
0.778,1.06,1.356,0
0.604,1.429,1.146,0
0.571,1.717,0.653,1
0.605,1.773,-0.049,1
0.66,1.702,-0.338,1
0.782,1.698,-0.34,1
0.771,1.683,-0.339,1
1.046,1.204,0.117,1
1.488,0.58,0.953,1
1.763,-0.315,2.89,1
1.51,-1,4.51,1
0.552,-1.91,6.405,1
-0.135,-2.153,6.618,1
-0.847,-2.042,4.888,1
-0.844,-1.587,2.308,1
-0.622,-0.891,-1.358,1
-0.287,-0.389,-2.956,1
0.335,0.448,-4.464,1
0.666,0.887,-4.775,1
0.809,1.145,-4.125,1
0.942,1.063,-2.828,1
0.891,0.669,-1.122,1
0.832,0.398,-0.115,1
0.588,-0.205,0.384,0
0.399,-0.395,0.136,0
0.224,-0.458,-0.691,0
0.348,-0.264,-1.207,0
0.665,0.099,-1.769,0
0.801,0.393,-2.175,0
0.993,0.642,-2.367,0
1.146,0.828,-2.193,0
1.268,1.04,-1.784,0
1.158,1.072,-1.366,0
0.74,0.822,-0.876,0
0.501,0.68,-0.743,0
0.278,0.552,-0.61,0
0.251,0.553,-0.612,0
0.469,0.621,-0.776,0
0.515,0.719,-0.848,0
0.728,0.836,-0.764,0
0.829,0.895,-0.465,0
0.661,0.791,-0.016,0
0.472,0.661,0.148,0
0.236,0.474,0.403,0
0.184,0.377,0.422,0
0.232,0.357,0.735,0
0.363,0.39,1.331,0
0.52,0.489,1.761,0
0.575,0.617,1.495,0
0.598,0.785,0.775,0
0.616,0.835,0.264,0
0.787,0.786,-0.026,0
0.926,0.708,0.219,0
0.875,0.688,0.852,0
0.834,0.778,1.308,0
0.57,1.06,1.745,0
0.306,1.333,1.348,0
0.372,1.202,0.133,1
0.492,0.972,-0.404,1
0.645,0.736,0.187,1
0.667,0.544,1.166,1
0.39,0.295,2.702,1
0.075,0.15,2.997,1
0.002,0.062,2.288,1
0.376,-0.088,1.399,1
1.047,-0.236,1.222,1
1.312,-0.304,2.058,1
1.266,-0.439,3.38,1
0.777,-0.472,3.761,1
0.056,-0.572,3,1
-0.028,-0.575,1.884,1
0.047,-0.276,-0.106,1
0.155,0.03,-0.935,1
0.517,0.398,-1.357,1
0.883,0.462,-1.622,1
1.276,0.569,-1.858,1
1.391,0.518,-1.872,1
1.111,0.119,-1.535,1
0.94,-0.155,-1.148,0
0.588,-0.484,-0.44,0
0.284,-0.666,-0.138,0
0.133,-0.64,-0.213,0
0.372,-0.421,-0.549,0
0.955,0.054,-1.25,0
1.331,0.422,-1.84,0
1.513,0.721,-2.508,0
1.596,0.821,-2.915,0
1.464,0.957,-3.171,0
1.263,1.016,-2.952,0
0.918,0.834,-2.504,0
0.604,0.676,-2.274,0
0.309,0.604,-2.032,0
0.274,0.606,-1.827,0
0.328,0.715,-1.289,0
0.4,0.686,-0.912,0
0.515,0.744,-0.555,0
0.554,0.799,-0.382,0
0.686,0.819,-0.048,0
0.867,0.92,0.346,0
0.994,0.956,0.776,0
0.945,0.846,0.893,0
0.71,0.685,1.003,0
0.4,0.665,1.252,0
0.147,0.672,1.394,0
0.125,0.656,1.239,0
0.16,0.747,0.942,0
0.42,0.862,1.03,0
0.452,0.859,1.434,0
0.41,0.836,1.786,0
0.402,0.632,2.295,0
0.453,0.529,2.471,0
0.075,0.713,2.207,0
-0.437,0.937,1.14,1
-0.39,1.066,-0.618,1
-0.064,1.015,-1.327,1
0.233,1.107,-1.8,1
-0.085,1.223,-1.25,1
-0.639,1.011,-0.132,1
-0.851,0.578,0.587,1
-0.424,0.017,1.297,1
0.258,-0.305,2.076,1
0.891,-0.551,3.508,1
0.895,-0.558,4.21,1
0.471,-0.507,3.353,1
0.141,-0.541,1.892,1
-0.145,-0.338,-0.746,1
-0.229,-0.02,-1.987,1
-0.182,0.39,-2.703,1
-0.226,0.508,-2.964,1
-0.248,0.638,-2.741,1
0.157,0.636,-2.205,1
0.784,0.56,-0.954,1
0.953,0.533,-0.245,1
0.961,0.303,0.753,0
0.801,0.119,0.996,0
0.527,-0.083,0.437,0
0.27,-0.165,-0.345,0
0.223,-0.1,-1.041,0
0.402,0.025,-1.375,0
0.625,0.319,-1.679,0
0.761,0.561,-1.789,0
0.949,0.743,-1.969,0
0.996,0.737,-2.097,0
0.793,0.683,-2.087,0
0.686,0.593,-2.113,0
0.721,0.429,-2.201,0
0.632,0.478,-1.817,0
0.468,0.529,-1.17,0
0.367,0.47,-1.086,0
0.077,0.46,-1.456,0
-0.155,0.458,-1.607,0
-0.178,0.483,-1.478,0
0.097,0.629,-1.289,0
0.301,0.804,-1.001,0
0.345,0.87,-0.547,0
0.391,0.821,-0.03,0
0.39,0.705,0.333,0
0.428,0.633,0.695,0
0.202,0.565,1.024,0
0.008,0.347,1.298,0
-0.121,0.306,1.379,0
-0.061,0.434,1.681,0
0.11,0.491,1.622,0
0.155,0.578,1.064,0
0.253,0.715,0.711,0
0.346,0.916,0.817,0
0.157,1.248,0.909,0
0.073,1.466,0.495,0
0.359,1.402,0.174,1
0.522,1.12,0.273,1
0.378,0.814,0.794,1
0.204,0.232,1.981,1
-0.1,-0.195,2.928,1
-0.659,-0.365,3.603,1
-0.649,-0.253,3.48,1
0.068,-0.07,2.771,1
0.673,0.137,2.464,1
1.081,0.32,2.929,1
0.948,0.264,3.37,1
0.95,0.308,3.364,1
0.163,0.004,2.601,1
0.141,-0.001,1.156,1
0.339,0.085,0.067,1
0.671,0.272,-0.838,1
1.01,0.328,-1.056,1
1.272,0.478,-0.844,1
1.218,0.492,-0.721,1
0.91,0.212,-0.847,1
0.74,0.058,-1.038,1
0.768,-0.022,-1.203,0
0.639,-0.07,-1.195,0
0.416,-0.188,-1.181,0
0.246,-0.216,-1.183,0
0.131,-0.16,-1.233,0
0.138,-0.063,-1.401,0
0.245,0.097,-1.739,0
0.287,0.272,-1.745,0
0.334,0.556,-1.649,0
0.454,0.72,-1.792,0
0.518,0.805,-2.186,0
0.458,0.973,-2.136,0
0.47,1.116,-1.724,0
0.368,1.05,-1.618,0
0.09,0.928,-1.679,0
-0.005,0.872,-1.454,0
0.022,0.711,-0.776,0
0.079,0.65,-0.362,0
0.086,0.697,0.238,0
0.127,0.646,0.877,0
0.312,0.581,1.253,0
0.405,0.622,1.147,0
0.382,0.558,0.687,0
0.39,0.517,0.305,0
0.659,0.644,0.085,0
0.623,0.749,0.245,0
0.306,0.606,0.456,0
0.152,0.474,0.583,0
0.071,0.468,0.865,0
0.193,0.541,1.091,0
0.242,0.421,1.769,0
0.195,0.339,2.257,0
-0.055,0.7,2.287,0
-0.117,0.921,1.662,0
0.004,1.065,0.129,0
0.205,1.03,-0.522,0
0.201,0.978,-0.511,1
0.277,1.188,-0.456,1
0.45,0.704,0.115,1
0.552,0.04,0.808,1
0.87,-0.651,2.271,1
0.845,-1.067,3.763,1
0.284,-1.741,5.546,1
-0.152,-1.759,5.912,1
-1.173,-1.794,5.047,1
-1.232,-1.63,2.691,1
-1.121,-0.952,-0.576,1
-0.995,-0.511,-2.28,1
-0.491,-0.232,-3.773,1
-0.263,0.048,-4.096,1
-0.255,0.374,-3.337,1
0.005,0.364,-2.524,1
0.265,0.195,-0.976,1
0.231,-0.001,-0.192,1
0.105,-0.297,0.113,1
-0.062,-0.455,0.009,1
-0.092,-0.425,-0.585,1
0.025,-0.268,-1.2,0
0.289,0.103,-2.056,0
0.309,0.401,-2.575,0
0.235,0.55,-2.854,0
0.277,0.577,-2.958,0
0.188,0.657,-2.594,0
0.011,0.714,-1.814,0
-0.035,0.735,-0.801,0
-0.056,0.789,-0.526,0
-0.138,0.844,-0.857,0
-0.185,0.789,-1.191,0
-0.147,0.759,-1.088,0
-0.175,0.784,-1.025,0
-0.131,0.77,-0.904,0
-0.17,0.742,-0.568,0
-0.301,0.665,-0.073,0
-0.304,0.564,0.229,0
-0.391,0.583,0.443,0
-0.423,0.601,0.467,0
-0.394,0.558,0.633,0
-0.233,0.523,1.188,0
-0.039,0.462,1.587,0
-0.006,0.471,1.529,0
-0.008,0.441,1.534,0
0.204,0.412,0.679,0
0.446,0.685,0.238,0
0.487,0.739,-0.125,0
0.497,0.7,-0.162,0
0.313,0.762,0.225,0
-0.211,1.065,0.746,0
-0.513,1.284,0.917,0
-0.441,1.314,0.073,1
-0.354,1.278,-0.761,1
-0.267,1.171,-1.475,1
-0.021,0.928,-1.27,1
-0.072,0.598,0.41,1
-0.305,0.284,2.03,1
-0.273,0.017,3.309,1
-0.107,-0.043,3.664,1
0.059,-0.31,3.663,1
0.073,-0.237,3.651,1
0.035,-0.664,4.294,1
-0.139,-0.695,4.418,1
-0.229,-0.65,3.709,1
0.014,-0.447,2.375,1
0.413,0.057,0.286,1
0.841,0.381,-0.929,1
1.342,0.718,-1.942,1
1.513,0.836,-2.365,1
1.481,0.846,-2.827,1
1.215,0.628,-2.799,1
0.771,0.152,-2.382,1
0.51,-0.228,-1.713,0
0.244,-0.591,-0.716,0
-0.048,-0.763,-0.16,0
-0.248,-0.829,0.264,0
-0.283,-0.786,0.338,0
-0.207,-0.576,-0.226,0
-0.081,-0.346,-1.01,0
0.256,-0.037,-2.011,0
0.345,0.222,-2.428,0
0.349,0.364,-2.528,0
0.346,0.393,-2.516,0
0.394,0.352,-2.349,0
0.271,0.296,-1.941,0
0.205,0.288,-1.115,0
0.247,0.315,-0.771,0
0.33,0.343,-0.6,0
0.369,0.43,-0.349,0
0.437,0.463,0.315,0
0.508,0.509,0.749,0
0.49,0.491,0.751,0
0.71,0.671,0.529,0
0.762,0.614,0.325,0
0.765,0.586,0.33,0
0.717,0.557,0.84,0
0.534,0.394,0.816,0
0.249,0.222,0.765,0
0.084,0.087,0.992,0
0.151,0.037,1.585,0
0.377,0.101,2.269,0
0.253,0.029,2.698,0
0.374,0.176,2.588,0
0.745,0.501,2.196,0
0.797,0.678,1.679,0
0.598,1.065,0.569,0
0.551,1.214,-0.167,0
0.361,1.228,-0.868,1
0.068,1.148,-0.712,1
-0.357,1.067,0.078,1
-0.335,0.841,0.582,1
-0.151,0.439,1.075,1
0.182,0.107,1.569,1
0.977,-0.298,2.933,1
1.213,-0.502,3.946,1
0.957,-0.862,4.722,1
0.237,-1.277,4.932,1
-0.161,-1.285,3.635,1
-0.143,-0.963,1.328,1
-0.334,-0.536,-1.339,1
-0.303,-0.2,-2.67,1
0.011,0.067,-3.669,1
-0.071,0.202,-3.861,1
-0.162,0.276,-3.228,1
0.148,0.163,-2.278,1
0.569,0.099,-1.191,1
0.61,-0.079,-0.66,1
0.392,-0.523,-0.568,1
0.085,-0.917,-0.97,0
-0.253,-1.108,-1.56,0
-0.278,-1.11,-1.561,0
-0.373,-1.059,-1.768,0
-0.425,-0.988,-1.898,0
-0.294,-0.669,-2.003,0
-0.003,-0.331,-2.035,0
0.162,0.015,-1.768,0
0.307,0.24,-1.516,0
0.369,0.354,-1.495,0
0.254,0.437,-1.383,0
0.181,0.349,-1.313,0
0.098,0.306,-1.392,0
-0.07,0.253,-1.216,0
-0.104,0.27,-0.986,0
0.014,0.307,-0.782,0
-0.001,0.351,-0.746,0
-0.067,0.389,-0.604,0
-0.093,0.373,-0.436,0
-0.146,0.374,-0.356,0
-0.086,0.307,-0.227,0
-0.092,0.283,0.33,0
-0.231,0.262,0.744,0
-0.447,0.067,0.916,0
-0.597,-0.026,0.946,0
-0.362,0.061,0.936,0
0.024,0.206,0.854,0
0.251,0.36,0.748,0
0.326,0.313,0.781,0
0.517,0.38,1.42,0
0.636,0.463,1.918,0
0.197,0.756,1.942,0
-0.137,1.003,1.209,0
-0.14,0.967,1.216,1
0.046,0.926,-0.687,1
0.132,0.766,-0.663,1
0.049,0.443,0.293,1
-0.409,-0.19,2.272,1
-0.514,-0.51,3.639,1
-0.393,-0.608,4.329,1
-0.199,-0.626,4.054,1
0.171,-0.781,3.85,1
0.159,-0.736,3.842,1
0.426,-0.931,4.003,1
0.347,-0.94,3.793,1
0.252,-0.892,2.832,1
0.289,-0.665,1.46,1
0.448,-0.19,-0.585,1
0.799,0.052,-1.662,1
1.42,0.597,-2.911,1
1.767,0.917,-3.522,1
2.102,1.057,-3.857,1
2.104,0.964,-3.361,1
1.689,0.488,-2.138,1
1.409,-0.035,-1.26,0
0.97,-0.56,-0.541,0
0.485,-0.891,0.213,0
0.146,-1.041,0.7,0
-0.072,-1.109,0.456,0
-0.358,-1.133,-0.182,0
-0.296,-1.04,-0.916,0
0.112,-0.596,-1.887,0
0.386,-0.17,-2.319,0
0.618,0.239,-2.401,0
0.838,0.407,-2.447,0
0.839,0.633,-2.469,0
0.787,0.71,-2.222,0
0.74,0.538,-1.8,0
0.47,0.314,-1.455,0
0.149,0.174,-0.934,0
0.056,0.133,-0.453,0
0.227,0.164,0.34,0
0.426,0.225,0.762,0
0.752,0.295,0.868,0
1.036,0.416,0.77,0
1.098,0.501,0.795,0
1.162,0.493,0.99,0
1.272,0.461,1.463,0
1.074,0.411,1.721,0
0.642,0.313,1.725,0
0.402,0.184,1.584,0
0.273,0.224,1.203,0
0.273,0.339,0.834,0
0.274,0.342,0.5,0
0.158,0.277,0.452,0
0.244,0.225,0.553,0
0.361,0.333,0.718,0
0.483,0.805,0.857,0
0.719,1.041,0.658,1
0.717,0.995,0.668,1
0.556,1.188,-0.852,1
0.178,0.972,-1.1,1
-0.136,0.677,-0.794,1
-0.22,0.053,0.23,1
0.16,-0.346,1.372,1
0.495,-0.838,3.389,1
0.52,-1.193,4.946,1
-0.077,-1.901,6.419,1
-0.534,-2.289,6.488,1
-1.058,-2.342,5.189,1
-0.897,-1.824,2.883,1
-0.732,-1.061,-0.705,1
-0.487,-0.76,-2.364,1
0.055,-0.207,-3.825,1
0.241,0.177,-3.931,1
0.37,0.426,-2.957,1
0.561,0.448,-1.914,1
0.767,0.251,-0.608,1
0.764,-0.067,-0.001,1
0.685,-0.496,0.36,0
0.564,-0.759,0.382,0
0.343,-0.899,-0.12,0
0.247,-0.895,-0.608,0
0.135,-0.888,-1.182,0
0.018,-0.893,-1.329,0
0.033,-0.885,-1.33,0
-0.107,-0.77,-0.974,0
-0.224,-0.774,-0.662,0
-0.245,-0.66,-0.603,0
0.001,-0.469,-0.641,0
0.166,-0.367,-0.882,0
0.211,-0.213,-1.391,0
0.235,-0.177,-1.656,0
0.236,-0.194,-1.652,0
0.27,-0.042,-1.927,0
0.322,0.082,-1.579,0
0.345,0.117,-1.278,0
0.285,0.156,-0.925,0
0.181,0.149,-0.622,0
0.011,0.089,-0.19,0
-0.175,0.148,-0.236,0
-0.237,0.241,-0.22,0
-0.085,0.299,-0.063,0
0.304,0.466,-0.05,0
0.375,0.564,-0.116,0
0.346,0.652,0.116,0
0.244,0.557,0.341,0
0.073,0.495,0.672,0
0.124,0.366,0.606,0
0.303,0.27,0.548,0
0.495,0.243,0.758,0
0.632,0.118,1.233,0
0.393,-0.009,1.752,0
-0.182,0.133,2.227,0
-0.486,0.491,1.985,0
-0.324,0.675,0.886,0
0.058,0.505,0.476,1
0.696,0.249,0.91,1
1.095,0.037,1.632,1
0.755,-0.219,2.623,1
0.221,-0.453,2.868,1
0.097,-0.773,2.467,1
0.337,-0.968,2.047,1
0.856,-1.108,2.059,1
1.168,-1.188,2.707,1
1.363,-1.23,3.275,1
1.348,-1.205,3.269,1
0.638,-1.05,1.806,1
0.56,-0.899,0.286,1
0.665,-0.504,-1.517,1
0.937,-0.263,-2.358,1
1.396,0.138,-2.626,1
1.644,0.41,-2.468,1
1.533,0.458,-2.026,1
1.268,0.238,-1.681,1
0.894,-0.322,-1.095,1
0.755,-0.608,-0.774,1
0.576,-0.881,-0.349,0
0.368,-1.034,0.129,0
0.269,-1.115,0.732,0
0.289,-1.087,0.919,0
0.434,-0.908,0.743,0
0.636,-0.698,0.167,0
0.771,-0.407,-0.962,0
0.72,-0.326,-1.562,0
0.748,-0.344,-1.556,0
0.557,-0.219,-1.739,0
0.586,-0.012,-1.484,0
0.555,0.114,-1.315,0
0.541,0.221,-1.391,0
0.549,0.304,-1.574,0
0.468,0.283,-1.885,0
0.442,0.229,-1.962,0
0.325,0.179,-1.589,0
0.261,0.072,-1.182,0
0.273,0.046,-0.672,0
0.231,0.069,-0.318,0
0.368,0.113,0.073,0
0.476,0.135,0.382,0
0.705,0.266,0.708,0
0.833,0.351,1.122,0
0.651,0.386,1.409,0
0.324,0.293,1.524,0
0.072,0.079,1.377,0
-0.028,0.046,1.443,0
-0.066,0.102,1.443,0
-0.072,0.149,1.42,0
-0.152,0.124,1.487,0
-0.182,0.199,1.638,0
-0.264,0.678,1.969,0
-0.316,1.108,1.827,0
-0.328,1.307,0.842,1
-0.382,1.216,0.086,1
-0.153,1.096,-0.577,1
-0.128,1.004,-0.86,1
0.004,0.768,-0.734,1
0.364,0.227,0.128,1
0.323,0.263,0.115,1
1.002,-1.221,4.026,1
0.442,-2.058,5.845,1
-0.184,-2.534,6.556,1
-0.861,-2.71,5.549,1
-0.945,-2.338,3.151,1
-0.79,-1.737,0.079,1
-0.465,-1.367,-1.965,1
0.181,-0.687,-4.128,1
0.426,-0.286,-4.658,1
0.53,0.109,-4.27,1
0.665,0.102,-3.134,1
0.597,-0.286,-0.821,1
0.58,-0.622,0.41,1
0.218,-1.111,1.22,1
-0.023,-1.383,1.243,0
-0.054,-1.406,0.641,0
-0.015,-1.272,0.11,0
0.064,-1.098,-0.679,0
0.124,-0.916,-1.246,0
0.187,-0.601,-1.788,0
0.17,-0.463,-1.739,0
0.223,-0.384,-1.654,0
0.232,-0.337,-1.504,0
0.238,-0.293,-1.087,0
0.252,-0.282,-0.927,0
0.352,-0.2,-0.929,0
0.425,-0.115,-1.13,0
0.344,-0.045,-1.533,0
0.376,0.061,-1.842,0
0.572,0.271,-2.106,0
0.569,0.376,-2.048,0
0.482,0.4,-1.746,0
0.492,0.41,-1.748,0
0.028,0.234,-0.569,0
-0.11,0.097,-0.186,0
-0.196,0.006,0.247,0
-0.273,0.051,0.621,0
-0.275,0.039,0.932,0
-0.318,0.036,1.018,0
-0.408,0.215,1.109,0
-0.332,0.26,1.016,0
-0.43,0.315,0.956,0
-0.401,0.324,1.035,0
-0.393,0.182,1.424,0
-0.452,0.018,1.747,0
-0.343,-0.108,1.984,0
-0.332,-0.037,1.985,0
-0.624,0.257,1.544,0
-0.615,0.47,0.71,1
-0.14,0.181,0.143,1
0.437,-0.063,0.342,1
0.798,-0.123,0.961,1
0.759,-0.287,1.726,1
0.571,-0.801,2.943,1
0.37,-1.123,3.419,1
0.231,-1.435,3.352,1
0.201,-1.658,3.251,1
0.139,-1.822,3.287,1
0.076,-1.684,3.062,1
-0.033,-1.38,2.023,1
0.044,-1.129,0.74,1
0.164,-0.783,-0.673,1
0.307,-0.52,-1.393,1
0.691,-0.323,-1.898,1
0.9,-0.195,-2.139,1
0.879,-0.037,-2.047,1
0.974,-0.066,-1.634,1
1.063,-0.251,-0.96,1
1.003,-0.407,-0.39,1
0.804,-0.673,-0.151,0
0.707,-0.837,-0.305,0
0.489,-0.904,-0.528,0
0.376,-0.942,-0.476,0
0.326,-0.938,-0.264,0
0.329,-0.919,-0.268,0
0.334,-0.799,0.095,0
0.281,-0.654,0.338,0
0.314,-0.509,0.341,0
0.279,-0.439,0,0
0.203,-0.333,-0.873,0
0.117,-0.244,-1.528,0
0.167,-0.062,-2.007,0
0.395,0.027,-2.121,0
0.827,0.307,-2.08,0
1.014,0.491,-1.875,0
0.931,0.496,-1.364,0
0.8,0.41,-0.924,0
0.521,0.239,-0.386,0
0.342,0.072,-0.12,0
0.336,-0.026,0.116,0
0.426,-0.003,0.148,0
0.756,0.094,0.074,0
0.973,0.126,-0.016,0
0.976,0.108,0.196,0
0.762,0.001,0.402,0
0.541,-0.146,0.652,0
0.255,-0.271,1.12,0
-0.003,-0.489,1.718,0
-0.035,-0.591,2.17,0
-0.091,-0.71,2.736,0
-0.104,-0.706,2.74,0
0.262,-0.767,2.298,0
0.432,-0.514,1.799,0
0.229,0.074,0.941,0
0.136,0.33,0.059,0
0.386,0.422,-1.113,1
0.601,0.558,-1.507,1
0.738,0.836,-1.385,1
0.67,0.797,-0.896,1
0.518,0.272,-0.067,1
0.526,-0.297,0.507,1
0.75,-1.209,1.863,1
0.55,-1.699,2.926,1
-0.028,-2.175,4.349,1
-0.417,-2.131,4.715,1
-0.442,-1.689,3.165,1
-0.367,-1.368,0.793,1
-0.417,-0.961,-1.642,1
-0.16,-0.519,-2.575,1
-0.011,-0.241,-2.718,1
-0.272,-0.368,-2.557,1
-0.485,-0.594,-1.869,1
-0.329,-0.808,-1.01,1
-0.039,-1.08,0.15,1
-0.065,-1.032,0.136,1
0.221,-1.203,0.809,1
0.205,-1.13,0.285,0
0.242,-1.02,-0.77,0
0.286,-0.883,-1.321,0
0.407,-0.675,-1.891,0
0.451,-0.594,-2.026,0
0.528,-0.538,-2.068,0
0.373,-0.557,-1.779,0
-0.014,-0.682,-0.994,0
-0.186,-0.741,-0.493,0
-0.302,-0.701,-0.236,0
-0.219,-0.528,-0.185,0
0.057,-0.323,-0.413,0
0.151,-0.163,-0.8,0
0.137,-0.036,-0.949,0
0.201,-0.008,-0.689,0
0.064,-0.019,-0.33,0
-0.084,-0.004,-0.163,0
-0.157,-0.066,-0.133,0
-0.157,-0.066,-0.133,0
-0.065,-0.034,-0.259,0
-0.039,-0.05,0.028,0
0.065,-0.086,0.957,0
0.139,-0.033,1.411,0
0.344,-0.018,2.34,0
0.399,-0.007,2.606,0
0.416,0.074,2.226,0
0.396,-0.05,1.816,0
0.472,-0.226,1.254,0
0.465,-0.292,1.358,0
0.47,-0.35,1.953,0
0.353,-0.339,2.352,1
0.362,-0.372,2.361,1
-0.322,0.24,1.326,1
-0.031,0.257,-0.071,1
0.439,0.182,-0.655,1
0.897,0.193,-0.882,1
1.239,0.099,-0.53,1
1.19,-0.321,0.953,1
0.775,-0.593,2.038,1
0.555,-0.912,3.025,1
0.549,-0.872,3.014,1
0.801,-1.298,3.201,1
0.866,-1.3,3.298,1
0.772,-1.181,3.318,1
0.456,-1.221,2.586,1
0.082,-1.333,1.027,1
-0.034,-1.39,-0.123,1
-0.019,-1.245,-1.215,1
0.257,-1.095,-1.581,1
0.497,-0.975,-1.406,1
0.605,-1.001,-0.896,1
0.684,-1.072,-0.36,0
0.754,-1.113,-0.215,0
0.739,-1.116,-0.369,0
0.574,-1.167,-0.786,0
0.452,-1.198,-1.412,0
0.481,-1.082,-1.566,0
0.492,-0.874,-1.807,0
0.524,-0.756,-2.115,0
0.498,-0.582,-2.068,0
0.511,-0.438,-1.606,0
0.585,-0.354,-1.182,0
0.476,-0.293,-1.109,0
0.072,-0.256,-0.891,0
-0.072,-0.305,-0.821,0
-0.343,-0.355,-1.144,0
-0.349,-0.377,-1.139,0
-0.142,-0.128,-1.372,0
0.147,0.089,-1.181,0
0.493,0.406,-0.744,0
0.661,0.491,-0.581,0
0.569,0.439,-0.456,0
0.408,0.329,-0.37,0
0.42,0.164,-0.012,0
0.339,0.108,0.469,0
0.052,-0.033,1.069,0
-0.122,-0.226,1.213,0
-0.399,-0.297,1.385,0
-0.43,-0.326,1.326,0
-0.412,-0.206,0.923,0
-0.307,-0.091,0.718,0
-0.009,-0.055,0.759,0
0.105,-0.017,1.046,0
0.086,-0.036,1.403,0
0.162,0.006,1.619,0
0.161,-0.039,1.632,0
-0.015,-0.073,1.909,0
-0.384,0.033,1.465,1
-0.458,0.122,0.652,1
-0.361,0.219,-0.286,1
-0.064,0.218,-0.666,1
0.538,0.433,-0.696,1
0.681,0.516,-0.632,1
0.664,0.515,-0.633,1
0.949,-0.212,0.351,1
1.169,-0.875,1.601,1
1.176,-1.243,2.595,1
0.606,-1.707,3.938,1
0.255,-1.937,4.331,1
-0.187,-2.039,2.681,1
-0.609,-1.991,0.786,1
-0.63,-1.683,-0.907,1
-0.471,-1.428,-1.683,1
-0.342,-1.088,-2.127,1
-0.119,-0.73,-2.218,1
0.584,-0.359,-1.898,1
1.083,-0.243,-1.291,1
1.118,-0.314,0.012,1
0.941,-0.56,0.929,0
0.639,-1.028,1.316,0
0.167,-1.319,1.28,0
-0.231,-1.502,0.903,0
-0.333,-1.445,0.602,0
-0.195,-1.152,0.213,0
0.068,-0.843,-0.32,0
0.088,-0.825,-0.323,0
0.454,-0.215,-1.307,0
0.763,-0.032,-1.572,0
0.803,0.163,-1.481,0
0.774,0.175,-1.289,0
0.67,0.126,-0.965,0
0.422,0.027,-0.549,0
0.194,-0.076,-0.448,0
-0.009,-0.13,-0.782,0
-0.051,-0.145,-1.167,0
0.072,-0.039,-1.327,0
0.278,0.02,-1.173,0
0.332,0.063,-0.354,0
0.214,0.02,0.169,0
0.021,-0.118,0.911,0
-0.246,-0.183,0.985,0
-0.462,-0.314,0.577,0
-0.419,-0.329,0.14,0
-0.222,-0.233,-0.241,0
0.09,-0.121,-0.334,0
0.292,-0.087,0.101,0
0.307,-0.115,0.621,0
0.348,-0.259,0.774,0
0.223,-0.295,0.76,0
0.145,-0.385,0.862,0
0.114,-0.407,0.984,0
-0.151,-0.195,1.095,0
-0.326,0.212,0.823,0
0.109,0.448,0.377,0
0.823,0.448,0.287,0
1.475,0.576,0.349,0
1.684,0.681,0.797,0
1.656,0.505,1.924,1
1.202,0.372,2.356,1
0.651,0.098,2.149,1
0.527,-0.182,1.452,1
0.539,-0.552,0.766,1
0.571,-0.61,0.626,1
0.638,-0.48,0.979,1
0.683,-0.576,1.252,1
0.375,-0.87,1.53,1
0.245,-0.989,1.367,1
-0.142,-1.104,0.897,1
-0.389,-1.195,0.583,1
-0.281,-1.233,0.388,1
-0.338,-1.319,0.351,1
-0.402,-1.373,0.216,1
-0.293,-1.196,0.101,1
0.017,-0.932,-0.011,1
0.264,-0.777,-0.083,1
0.511,-0.681,-0.579,1
0.557,-0.61,-0.967,1
0.518,-0.554,-1.058,1
0.439,-0.567,-1.161,0
0.354,-0.418,-1.597,0
0.332,-0.309,-2.032,0
0.317,-0.212,-2.568,0
0.256,-0.075,-2.698,0
0.224,0.108,-2.5,0
0.186,0.157,-2.163,0
0.053,0.092,-1.631,0
-0.032,0.037,-0.943,0
-0.087,-0.04,-0.13,0
-0.237,-0.076,0.135,0
-0.364,-0.19,-0.158,0
-0.25,-0.173,-0.753,0
-0.052,-0.091,-1.597,0
0.16,-0.019,-1.736,0
0.448,0.155,-1.187,0
0.427,0.185,-0.437,0
0.192,0.195,0.396,0
-0.006,0.126,0.645,0
-0.384,0.114,0.494,0
-0.595,0.06,0.202,0
-0.481,-0.017,-0.318,0
-0.299,0.072,-0.422,0
-0.096,0.366,0.226,0
0.112,0.393,1.008,0
0.252,0.222,1.41,0
0.26,0.254,1.412,0
0.328,0.314,1.404,0
0.026,0.408,1.375,0
0.003,0.739,0.895,0
0.142,0.764,0.361,0
0.386,0.65,0.223,0
0.498,0.404,0.687,1
0.47,0.403,0.685,1
0.387,-0.523,3.311,1
0.492,-0.896,3.852,1
0.321,-1.324,4.138,1
0.241,-1.816,4.256,1
0.237,-1.917,3.79,1
0.22,-1.745,2.131,1
0.242,-1.462,0.773,1
0.256,-1.242,-0.108,1
0.162,-1.24,-0.232,1
-0.113,-1.212,-0.022,1
-0.117,-1.036,0.097,1
0.099,-0.879,-0.034,1
0.454,-0.761,-0.247,1
0.848,-0.689,-0.44,1
1.091,-0.687,-0.434,1
1.061,-0.775,-0.425,1
0.927,-0.801,-0.478,1
0.738,-0.878,-1.049,1
0.602,-0.897,-1.594,1
0.387,-0.892,-2.03,0
0.3,-0.862,-2.237,0
0.324,-0.789,-2.338,0
0.422,-0.727,-2.406,0
0.572,-0.526,-2.327,0
0.722,-0.274,-2.158,0
1.115,0.148,-1.975,0
1.189,0.382,-2.004,0
0.822,0.447,-1.946,0
0.618,0.371,-1.799,0
0.635,0.353,-1.45,0
0.647,0.425,-1.285,0
0.613,0.478,-1.135,0
0.538,0.464,-1.029,0
0.644,0.389,-1.049,0
0.511,0.341,-0.954,0
0.219,0.245,-0.429,0
0.111,0.115,0.1,0
-0.137,-0.027,0.703,0
-0.165,-0.145,1.004,0
-0.169,-0.195,1.184,0
-0.343,-0.177,1.401,0
-0.245,-0.04,1.545,0
-0.083,0.08,1.286,0
-0.138,0.26,0.927,0
-0.061,0.242,0.912,0
0.003,0.12,1.168,0
-0.221,0.187,1.589,0
-0.31,0.474,1.597,0
0.042,0.575,1.002,0
0.055,0.742,0.27,0
-0.037,0.772,0.162,0
-0.157,0.391,1.004,1
-0.444,0.071,1.852,1
-0.595,-0.388,2.917,1
-0.4,-0.658,3.477,1
0.059,-1.138,4.02,1
-0.018,-1.568,5,1
-0.315,-2.027,5.951,1
-0.604,-2.178,5.894,1
-0.759,-2.143,4.795,1
-0.399,-1.87,3.05,1
0.11,-1.377,0.614,1
0.644,-1.011,-1.037,1
1.134,-0.539,-2.24,1
1.363,-0.221,-2.47,1
1.415,-0.055,-1.862,1
1.218,-0.105,-0.917,1
0.716,-0.488,0.02,1
0.339,-0.816,0.272,1
0.222,-1.058,0.108,1
0.305,-1.006,-0.151,1
0.55,-0.748,-0.654,1
0.727,-0.586,-1.095,0
0.926,-0.338,-1.707,0
1.016,-0.206,-2.271,0
1.052,-0.076,-2.75,0
1.084,0.057,-2.88,0
1.14,0.056,-2.729,0
0.884,-0.015,-2.345,0
0.398,-0.296,-1.721,0
0.247,-0.537,-1.555,0
-0.033,-0.579,-1.622,0
-0.026,-0.507,-1.619,0
0.334,-0.384,-1.636,0
0.4,-0.113,-1.593,0
0.619,0.182,-1.601,0
0.76,0.304,-1.669,0
0.857,0.472,-1.75,0
0.932,0.442,-1.744,0
0.836,0.217,-1.223,0
0.695,0.056,-0.683,0
0.346,-0.221,0.345,0
-0.006,-0.477,1.106,0
-0.171,-0.663,1.765,0
-0.4,-0.756,2.015,0
-0.257,-0.716,1.541,0
0.001,-0.583,0.954,0
-0.026,-0.396,0.769,0
0.155,-0.272,1.046,0
0.176,-0.281,1.051,0
-0.179,-0.072,2.548,0
-0.504,0.303,2.256,0
-0.571,0.558,1.11,0
-0.311,0.757,-0.406,0
0.4,0.766,-1.244,0
1.51,0.769,-0.885,1
1.472,0.533,0.438,1
1.11,-0.562,3.474,1
0.722,-1.232,5.165,1
-0.123,-1.882,6.548,1
-0.654,-2.277,6.47,1
-0.852,-2.208,4.029,1
-0.619,-1.803,1.957,1
-0.367,-1.024,-0.631,1
-0.161,-0.637,-2.223,1
-0.072,-0.214,-3.103,1
-0.045,-0.183,-3.109,1
0.051,-0.1,-1.8,1
0.372,-0.313,-0.431,1
0.493,-0.604,1.073,1
0.427,-1.03,1.641,1
0.332,-1.324,1.754,1
0.406,-1.304,1.317,1
0.353,-1.309,1.316,1
0.506,-1.215,-1.031,1
0.611,-1.028,-2.04,1
0.675,-0.887,-2.165,0
0.72,-0.688,-1.782,0
0.816,-0.485,-1.478,0
0.84,-0.262,-1.379,0
0.646,-0.109,-1.413,0
0.431,0.039,-1.572,0
0.294,0.074,-1.992,0
0.041,0.18,-2.247,0
-0.007,0.266,-2.289,0
0.176,0.31,-2.504,0
0.127,0.324,-2.311,0
-0.089,0.377,-1.421,0
-0.135,0.275,-0.881,0
-0.448,0.13,-0.445,0
-0.88,-0.061,-0.015,0
-0.865,-0.197,0.177,0
-0.536,-0.078,0.168,0
-0.301,-0.01,0.203,0
-0.36,-0.097,0.299,0
-0.307,-0.067,0.907,0
-0.378,0.022,1.513,0
-0.24,0.077,1.916,0
-0.102,0.123,1.68,0
-0.169,0.176,1.207,0
-0.134,-0.053,1.183,0
-0.136,-0.068,1.186,0
0.205,0.148,1.848,0
-0.224,0.505,2.16,0
-0.219,0.645,1.801,0
-0.029,0.781,0.903,0
0.061,0.814,0.398,0
0.492,0.827,0.411,1
0.541,0.663,1.003,1
0.495,-0.039,2.829,1
0.584,-0.71,4.003,1
0.024,-1.45,5.436,1
-0.635,-2.032,6.189,1
-1.178,-2.403,6.292,1
-1.429,-2.326,5.209,1
-1.213,-1.969,2.52,1
-0.835,-1.707,0.481,1
-0.59,-1.257,-1.246,1
-0.295,-0.999,-1.717,1
-0.09,-0.664,-1.393,1
-0.118,-0.575,-0.942,1
-0.136,-0.658,-0.556,1
-0.016,-0.714,-0.496,1
0.019,-0.736,-0.642,1
0.008,-0.873,-0.837,1
0.018,-1.001,-0.785,1
0.034,-0.867,-0.69,1
0.128,-0.751,-0.69,1
0.048,-0.763,-0.855,0
-0.272,-0.835,-1.178,0
-0.329,-0.8,-1.256,0
-0.471,-0.675,-1.222,0
-0.419,-0.508,-1.453,0
-0.306,-0.284,-1.95,0
-0.363,-0.15,-2.216,0
-0.26,-0.084,-2.504,0
-0.01,0.042,-2.521,0
0.202,0.258,-2.234,0
0.401,0.323,-2.068,0
0.675,0.434,-1.804,0
0.53,0.369,-1.537,0
0.346,0.137,-1.345,0
0.198,-0.052,-1.166,0
-0.012,-0.181,-0.857,0
-0.008,-0.227,-0.605,0
0.052,-0.318,-0.275,0
0.055,-0.335,-0.148,0
0.127,-0.328,-0.171,0
0.229,-0.285,-0.185,0
0.19,-0.209,-0.093,0
0.169,-0.184,0.041,0
-0.014,-0.215,0.463,0
-0.151,-0.205,0.933,0
-0.069,-0.317,1.342,0
0.107,-0.314,1.707,0
0.34,-0.235,2.135,0
0.371,-0.22,2.428,0
0.068,0.099,2.701,0
-0.171,0.564,2.374,0
-0.351,0.957,1.315,0
-0.297,0.96,1.008,0
0.151,0.955,1.084,1
0.219,0.922,1.406,1
0.386,0.458,2.117,1
0.476,-0.056,3.099,1
0.682,-0.615,4.863,1
0.38,-1.128,5.821,1
-0.112,-1.733,5.94,1
-0.642,-2.091,4.964,1
-0.821,-1.897,2.126,1
-0.706,-1.624,0.253,1
-0.766,-1.545,-1.795,1
-0.797,-1.343,-2.48,1
-0.775,-1.085,-2.438,1
-0.622,-0.787,-1.855,1
-0.308,-0.486,-0.97,1
-0.034,-0.432,-0.642,1
0.075,-0.627,-0.724,1
-0.035,-0.838,-0.906,1
-0.23,-1.17,-1.022,1
-0.3,-1.258,-1.073,1
-0.21,-1.044,-1.429,1
-0.072,-0.915,-1.692,0
0.116,-0.73,-2.191,0
0.248,-0.616,-2.363,0
0.278,-0.516,-2.007,0
0.159,-0.59,-1.45,0
0.016,-0.779,-0.815,0
-0.158,-0.884,-0.505,0
-0.321,-1.001,-0.611,0
-0.353,-0.942,-1.027,0
-0.357,-0.725,-1.588,0
-0.197,-0.491,-2.038,0
0.225,-0.062,-2.377,0
0.308,0.183,-2.212,0
0.346,0.226,-1.621,0
0.258,0.131,-1.078,0
-0.055,-0.019,-0.293,0
-0.132,-0.211,0.286,0
-0.342,-0.381,0.619,0
-0.539,-0.476,0.67,0
-0.401,-0.505,0.586,0
-0.376,-0.454,0.559,0
-0.539,-0.305,0.749,0
-0.36,-0.12,0.74,0
-0.134,0.233,0.366,0
-0.088,0.318,0.219,0
0.131,0.262,0.503,0
0.395,0.214,1.176,0
0.194,0.05,2.272,0
0.044,0.15,2.965,0
-0.297,0.478,3.031,0
-0.424,0.657,2.181,0
-0.287,0.46,0.831,1
-0.025,0.416,0.248,1
-0.007,0.406,0.251,1
0.959,0.655,-0.037,1
0.602,0.06,1.31,1
0.3,-0.562,2.326,1
0.137,-1.194,2.946,1
-0.174,-1.6,3.385,1
-0.531,-2.18,3.753,1
-0.719,-2.205,3.392,1
-0.924,-1.797,2.287,1
-0.647,-1.406,1.207,1
-0.176,-0.848,-0.086,1
0.045,-0.542,-0.7,1
0.422,-0.257,-1.378,1
0.537,-0.091,-1.665,1
0.776,-0.048,-1.644,1
0.832,-0.21,-1.386,1
0.651,-0.495,-0.951,1
0.438,-0.759,-0.656,1
0.363,-1.032,-0.507,1
0.315,-1.131,-0.396,0
0.174,-1.24,-0.224,0
0.091,-1.23,-0.231,0
0.025,-1.171,-0.498,0
0.017,-1.062,-0.719,0
0.017,-0.857,-0.757,0
0.028,-0.715,-0.793,0
0.054,-0.5,-0.963,0
0.084,-0.399,-1.237,0
0.238,-0.274,-1.534,0
0.326,-0.153,-1.692,0
0.499,0.064,-1.936,0
0.727,0.135,-2.249,0
0.775,0.156,-2.386,0
0.559,0.168,-2.129,0
0.381,0.06,-1.756,0
0.121,-0.117,-1.459,0
-0.154,-0.136,-0.804,0
0.023,-0.027,-0.41,0
0.36,0.222,0.038,0
0.447,0.397,0.097,0
0.697,0.495,-0.021,0
0.6,0.487,0.043,0
0.488,0.527,0.178,0
0.416,0.451,0.066,0
0.174,0.379,0,0
0.234,0.285,-0.008,0
0.237,0.178,0.402,0
0.149,0.039,0.921,0
0.219,-0.031,1.406,0
0.173,-0.16,1.94,0
0.369,-0.281,2.223,0
0.392,-0.086,1.986,0
0.102,0.432,1.269,0
-0.049,0.694,0.439,0
-0.034,0.667,0.448,1
0.024,0.835,-0.305,1
0.117,0.547,0.495,1
0.119,0.579,0.485,1
0.404,-0.627,2.903,1
0.243,-1.302,4.053,1
-0.24,-2.177,5.88,1
-0.383,-2.689,6.95,1
-0.656,-2.941,7.098,1
-0.835,-2.805,6.2,1
-0.597,-2.253,3.283,1
-0.38,-1.551,0.54,1
-0.113,-0.762,-2.663,1
0.117,-0.472,-4.452,1
-0.083,-0.119,-5.225,1
-0.3,0.153,-4.639,1
-0.293,0.35,-2.943,1
-0.146,0.316,-1.604,1
-0.002,0.021,-0.348,1
0.152,-0.282,-0.006,1
0.233,-0.678,-0.714,1
0.298,-0.826,-1.258,0
0.321,-0.917,-1.316,0
0.218,-0.972,-0.971,0
-0.077,-1.078,-0.603,0
-0.295,-0.983,-0.676,0
-0.409,-0.823,-1.195,0
-0.46,-0.669,-1.554,0
-0.511,-0.403,-1.873,0
-0.478,-0.23,-1.912,0
-0.313,0.008,-1.687,0
-0.241,0.148,-1.282,0
-0.268,0.139,-0.709,0
-0.271,0.131,-0.42,0
-0.279,0.112,-0.378,0
-0.235,0.15,-0.43,0
-0.169,0.175,-0.766,0
-0.212,0.172,-0.943,0
-0.282,0.08,-0.915,0
-0.369,-0.002,-0.72,0
-0.537,-0.02,-0.277,0
-0.428,-0.049,-0.125,0
-0.559,-0.216,-0.047,0
-0.766,-0.285,0.322,0
-0.459,-0.209,0.705,0
-0.169,-0.053,1.037,0
0.017,0.285,1.641,0
0.324,0.376,1.541,0
0.434,0.409,0.956,0
0.257,0.384,0.878,0
0.174,0.137,1.183,0
-0.018,0.067,1.465,0
-0.283,0.158,1.688,0
-0.636,0.28,1.753,0
-0.868,0.641,1.298,1
-0.555,0.895,0.876,1
0.226,1.163,0.298,1
0.535,1.209,0.062,1
0.529,1.219,0.059,1
0.515,0.029,1.866,1
0.078,-0.748,3.995,1
-0.371,-1.184,5.086,1
-0.834,-1.821,5.696,1
-1.052,-2.038,5.494,1
-1.067,-2.115,4.464,1
-0.797,-1.733,3.212,1
-0.436,-1.257,0.959,1
-0.354,-1.104,-0.35,1
0.014,-1.069,-1.614,1
0.207,-0.967,-2.209,1
0.333,-0.819,-2.347,1
0.45,-0.888,-1.865,1
0.384,-1.071,-0.919,1
0.265,-1.232,-0.352,1
0.164,-1.353,-0.273,1
0.08,-1.342,-0.727,0
0.021,-1.214,-1.389,0
0.092,-1.062,-1.843,0
0.102,-1.067,-1.842,0
0.542,-0.514,-2.524,0
0.628,-0.25,-2.074,0
0.486,-0.296,-1.788,0
0.088,-0.51,-1.376,0
-0.052,-0.464,-0.996,0
-0.086,-0.345,-0.813,0
-0.222,-0.308,-1.01,0
-0.231,-0.321,-1.008,0
-0.628,-0.377,-1.697,0
-0.402,-0.094,-1.739,0
-0.175,0.161,-1.691,0
0.022,0.348,-1.734,0
0.076,0.42,-1.602,0
-0.074,0.431,-1.011,0
-0.135,0.264,-0.755,0
-0.465,0.039,-0.527,0
-0.715,-0.17,-0.386,0
-0.874,-0.397,-0.23,0
-0.921,-0.484,-0.175,0
-0.877,-0.454,-0.2,0
-0.771,-0.443,-0.191,0
-0.67,-0.409,0.291,0
-0.681,-0.381,0.864,0
-1.035,-0.462,1.51,0
-1.105,-0.484,1.665,0
-0.698,-0.364,1.616,0
-0.548,-0.297,1.616,0
-0.315,-0.303,1.713,0
0.038,-0.161,2.169,0
-0.28,0.185,2.3,0
-0.583,0.441,1.449,0
-0.672,0.566,-0.295,1
-0.546,0.58,-0.94,1
-0.142,0.624,-0.626,1
0.052,0.528,0.476,1
0.021,0.059,2.556,1
0.035,-0.501,3.909,1
-0.106,-1.045,5.293,1
-0.368,-1.492,5.893,1
-0.549,-2.064,6.099,1
-0.739,-2.214,5.534,1
-0.728,-1.984,3.461,1
-0.449,-1.468,1.514,1
-0.374,-0.761,-0.516,1
-0.322,-0.235,-1.94,1
-0.117,0.166,-3.157,1
-0.265,0.288,-3.561,1
-0.255,0.312,-3.362,1
-0.239,0.212,-2.453,1
-0.207,-0.152,-1.11,1
-0.356,-0.524,-0.429,1
-0.587,-1.119,-0.204,1
-0.712,-1.367,-0.231,0
-0.743,-1.46,-0.28,0
-0.602,-1.29,-0.608,0
-0.691,-1.163,-1.346,0
-0.707,-1.039,-1.797,0
-0.666,-0.725,-2.267,0
-0.65,-0.461,-2.373,0
-0.655,-0.199,-2.22,0
-0.644,-0.04,-2.041,0
-0.752,0.037,-1.869,0
-0.836,0.063,-1.681,0
-0.843,0.072,-1.51,0
-0.763,0.161,-1.411,0
-0.672,0.236,-1.262,0
-0.767,0.091,-1.16,0
-0.905,0.017,-0.922,0
-0.927,-0.007,-0.795,0
-0.796,0.045,-0.672,0
-0.667,0.122,-0.631,0
-0.637,0.232,-0.58,0
-0.733,0.285,-0.465,0
-0.864,0.23,-0.22,0
-0.975,0.187,0.07,0
-0.954,0.12,0.609,0
-1.019,-0.009,1.094,0
-1.251,-0.033,1.702,0
-1.286,-0.004,1.847,0
-1.206,0.096,1.354,0
-1.023,0.29,0.829,0
-0.797,0.487,0.623,0
-0.692,0.538,0.933,0
-0.564,0.636,1.772,0
-0.855,0.858,2.168,0
-1.409,0.929,1.653,1
-1.424,0.82,1.05,1
-1.243,0.626,0.488,1
-0.974,0.407,0.848,1
-0.795,-0.021,2.848,1
-0.961,-0.433,4.677,1
-1.25,-0.766,5.926,1
-1.443,-1.024,6.163,1
-1.057,-1.347,5.276,1
-0.791,-1.305,3.609,1
-0.906,-1.077,1.153,1
-0.878,-1.102,1.157,1
-0.809,-1.102,-1.123,1
-0.844,-1.1,-1.35,1
-1.054,-1.199,-1.447,1
-1.401,-1.342,-1.416,1
-1.466,-1.819,-1.204,1
-1.468,-2,-0.869,1
-1.4,-1.99,-0.054,1
-1.02,-1.899,0.18,1
-0.661,-1.623,0.09,1
-0.63,-1.463,-0.43,0
-0.695,-1.317,-1.146,0
-0.84,-1.209,-1.72,0
-1.004,-1.06,-2.493,0
-0.997,-0.873,-2.803,0
-0.837,-0.551,-2.936,0
-0.708,-0.401,-2.792,0
-0.58,-0.189,-2.132,0
-0.526,-0.145,-1.578,0
-0.659,-0.176,-0.888,0
-0.791,-0.228,-0.64,0
-0.91,-0.361,-1.054,0
-0.983,-0.344,-1.541,0
-0.991,-0.232,-1.96,0
-0.937,-0.132,-2.011,0
-0.889,0.018,-1.938,0
-0.881,0.065,-1.796,0
-0.69,0.086,-1.76,0
-0.688,0.077,-1.535,0
-0.628,0.067,-1.084,0
-0.513,0.057,-0.781,0
-0.519,0.018,-0.042,0
-0.529,-0.04,0.264,0
-0.636,0.013,0.425,0
-0.669,0.082,0.416,0
-0.385,0.341,0.503,0
-0.364,0.454,0.589,0
-0.524,0.496,0.83,0
-0.504,0.506,1.229,0
-0.432,0.423,2.026,0
-0.473,0.305,2.613,0
-0.427,0.22,3.238,0
-0.307,0.431,3.471,0
-0.67,0.942,2.784,1
-0.949,1.331,1.186,1
-0.987,1.486,-0.377,1
-0.493,1.386,-0.946,1
-0.243,1.155,0.016,1
-0.64,0.578,2.417,1
-0.765,-0.526,5.483,1
-1.044,-1.076,6.314,1
-1.449,-1.998,6.697,1
-1.476,-2.567,6.142,1
-1.449,-2.646,4.499,1
-1.425,-2.281,2.852,1
-1.603,-1.807,0.782,1
-1.592,-1.528,-0.775,1
-1.622,-1.454,-2.487,1
-1.789,-1.401,-3.035,1
-1.874,-1.348,-2.442,1
-1.678,-1.12,-1.733,1
-1.462,-1.025,-0.74,1
-1.146,-1.099,-0.493,1
-0.957,-1.24,-0.285,1
-0.895,-1.245,-0.349,0
-0.962,-1.343,-0.473,0
-0.956,-1.343,-0.66,0
-0.892,-1.294,-1.152,0
-0.804,-1.123,-1.362,0
-0.685,-0.922,-1.595,0
-0.65,-0.809,-1.552,0
-0.515,-0.463,-1.209,0
-0.307,-0.192,-1.232,0
-0.135,0.046,-1.655,0
-0.05,0.197,-1.868,0
0.16,0.497,-1.861,0
0.272,0.628,-1.964,0
0.059,0.493,-2.387,0
-0.198,0.383,-2.488,0
-0.297,0.233,-2.316,0
-0.53,-0.033,-1.885,0
-0.942,-0.299,-0.938,0
-1.011,-0.249,-0.474,0
-0.946,-0.227,-0.209,0
-1.054,-0.178,0.053,0
-0.983,-0.045,0.149,0
-0.786,0.032,-0.079,0
-0.87,0.153,-0.057,0
-1.103,0.121,0.527,0
-0.79,0.13,1.264,0
-0.762,0.117,1.463,0
-1.128,0.008,1.778,0
-1.127,-0.242,1.824,0
-1.054,-0.304,1.843,0
-1.027,-0.151,2.054,0
-1.035,-0.183,2.061,0
-1.046,0.38,2.297,0
-1.405,0.975,0.934,0
-1.11,1.315,-0.198,0
-1.11,1.269,-0.188,1
0.33,1.885,-0.96,1
0.465,1.61,0.712,1
-0.089,0.907,2.891,1
-0.606,-0.379,5.247,1
-0.897,-0.913,5.856,1
-1.59,-1.802,6.358,1
-1.833,-2.201,6.398,1
-1.954,-2.283,5.617,1
-1.685,-2.125,4.021,1
-1.182,-1.716,1.458,1
-0.993,-1.405,-0.22,1
-0.671,-1.296,-1.908,1
-0.626,-1.191,-2.785,1
-0.699,-1.299,-3.175,1
-0.749,-1.396,-2.742,1
-0.711,-1.368,-1.436,1
-0.452,-1.195,-0.875,1
-0.145,-0.903,-0.899,1
-0.064,-0.772,-1.472,1
0.069,-0.494,-2.198,1
0.082,-0.326,-2.413,0
0.029,-0.226,-2.397,0
0.031,-0.13,-2.332,0
-0.125,-0.061,-2.109,0
-0.339,-0.095,-2.125,0
-0.534,-0.222,-2.255,0
-0.632,-0.24,-2.212,0
-0.616,-0.24,-2.17,0
-0.551,-0.234,-2.219,0
-0.576,-0.283,-2.065,0
-0.425,-0.184,-1.622,0
-0.066,0.039,-1.215,0
0.05,0.182,-1.232,0
0.076,0.123,-1.451,0
-0.173,-0.035,-1.292,0
-0.269,-0.105,-0.964,0
-0.206,0.04,-0.588,0
-0.101,0.075,-0.26,0
-0.065,0.137,-0.137,0
-0.095,0.198,0.033,0
-0.067,0.243,0.035,0
0.086,0.443,-0.076,0
0.13,0.609,-0.1,0
0.288,0.714,-0.326,0
0.358,0.705,-0.447,0
0.359,0.633,-0.073,0
0.258,0.528,0.775,0
0.094,0.319,1.872,0
-0.058,-0.018,2.666,0
-0.286,-0.27,3.734,0
-0.474,-0.267,4.535,0
-1.04,0.097,4.159,1
-1.525,0.446,2.221,1
-1.693,0.969,-0.239,1
-1.148,1.31,-1.73,1
-0.332,1.549,-1.964,1
-0.206,1.297,-0.103,1
-0.018,0.3,3.509,1
-0.284,-0.442,5.3,1
-0.816,-1.579,7.105,1
-1.1,-2.063,7.301,1
-1.056,-2.353,5.142,1
-0.922,-1.908,2.703,1
-0.992,-1.304,0.146,1
-0.704,-0.928,-1.442,1
-0.599,-0.651,-2.533,1
-0.623,-0.384,-2.611,1
-0.667,-0.252,-1.749,1
-0.662,-0.254,-0.815,1
-0.528,-0.397,-0.207,1
-0.469,-0.565,-0.27,1
-0.494,-0.833,-0.276,1
-0.477,-0.968,-0.537,0
-0.448,-0.917,-0.97,0
-0.332,-0.814,-1.323,0
-0.13,-0.604,-1.613,0
-0.051,-0.521,-1.79,0
-0.035,-0.54,-1.971,0
-0.104,-0.563,-1.905,0
-0.205,-0.471,-1.651,0
-0.26,-0.467,-1.558,0
-0.588,-0.386,-1.389,0
-0.655,-0.291,-1.273,0
-0.594,-0.091,-1.583,0
-0.614,0.073,-1.896,0
-0.613,0.252,-2.127,0
-0.499,0.326,-2.117,0
-0.218,0.427,-1.517,0
-0.165,0.505,-0.99,0
-0.256,0.478,-0.699,0
-0.282,0.472,-0.791,0
-0.65,0.222,-0.783,0
-0.762,0.047,-0.37,0
-0.711,-0.038,0.234,0
-0.79,-0.031,0.52,0
-0.821,0.101,0.93,0
-0.746,0.106,1.075,0
-0.912,0.04,1.182,0
-0.986,0.064,1.192,0
-0.694,0.316,1.337,0
-0.462,0.401,1.13,0
-0.298,0.437,0.985,0
-0.082,0.438,0.94,0
-0.095,0.572,1.468,0
-0.502,0.844,1.825,0
-0.748,1.163,1.273,0
-0.494,1.054,0.505,0
-0.007,0.991,0.42,1
0.042,1.029,0.674,1
-0.173,0.736,1.125,1
-0.523,0.285,1.456,1
-0.731,-0.311,2.021,1
-0.491,-0.614,2.403,1
-0.213,-1.196,3.219,1
-0.162,-1.452,3.748,1
-0.511,-1.657,4.161,1
-0.797,-1.64,3.841,1
-0.824,-1.457,2.579,1
-0.684,-1.271,1.075,1
-0.426,-0.913,-0.821,1
-0.25,-0.628,-1.53,1
0.119,-0.32,-1.789,1
0.262,-0.111,-1.58,1
0.344,-0.071,-1.129,1
0.338,-0.172,-0.764,1
0.411,-0.225,-0.274,1
0.414,-0.26,-0.124,1
0.29,-0.439,-0.537,1
0.119,-0.536,-1.064,0
-0.025,-0.532,-1.555,0
-0.013,-0.445,-1.729,0
0.006,-0.318,-2.064,0
-0.082,-0.215,-2.181,0
-0.193,-0.152,-2.134,0
-0.105,-0.066,-2.022,0
-0.164,0.026,-1.692,0
-0.406,-0.056,-1.447,0
-0.702,-0.21,-1.347,0
-0.871,-0.284,-1.303,0
-0.942,-0.298,-1.091,0
-0.733,-0.136,-1.114,0
-0.359,0.138,-1.582,0
-0.119,0.24,-2.025,0
0.035,0.35,-2.002,0
0.132,0.422,-1.61,0
0.258,0.389,-1.104,0
0.12,0.334,-0.737,0
0.017,0.29,-0.159,0
0.145,0.214,-0.064,0
-0.228,-0.017,-0.135,0
-0.571,-0.213,-0.132,0
-0.925,-0.456,0.057,0
-0.891,-0.359,0.463,0
-0.6,-0.057,0.981,0
-0.502,0.069,1.182,0
-0.537,0.128,1.368,0
-0.354,0.293,1.77,0
0.011,0.695,2.175,0
-0.184,1.226,2.138,0
-0.944,1.75,0.973,0
-1.065,1.741,-0.074,0
-0.64,1.747,-0.787,0
-0.279,1.881,-0.835,0
-0.08,1.724,-0.299,1
0.265,1.042,1.314,1
0.802,-0.221,4.843,1
0.732,-0.674,6.4,1
0.067,-1.716,8.049,1
-0.307,-2.181,7.799,1
-0.591,-2.041,4.677,1
-0.571,-1.242,1.797,1
-0.587,-0.833,-1.125,1
-0.379,-0.562,-2.763,1
-0.275,-0.136,-3.818,1
-0.324,0.193,-3.852,1
-0.746,0.312,-2.466,1
-0.832,-0.066,-0.934,1
-0.647,-0.574,0.509,1
-1.061,-1.079,1.047,1
-1.317,-1.591,1.265,1
-1.279,-1.682,0.786,1
-0.968,-1.493,-0.411,1
-0.639,-1.212,-1.503,1
-0.458,-0.884,-2.641,1
-0.239,-0.753,-3.114,0
-0.142,-0.34,-3.739,0
-0.239,-0.182,-3.903,0
-0.502,-0.253,-3.731,0
-0.691,-0.271,-3.054,0
-0.705,-0.125,-2.165,0
-0.634,-0.013,-1.843,0
-0.567,0.157,-1.786,0
-0.463,0.304,-1.768,0
-0.385,0.372,-1.624,0
-0.497,0.283,-1.093,0
-0.667,0.179,-0.006,0
-0.615,0.109,0.641,0
-0.687,-0.043,1.304,0
-0.837,-0.147,1.784,0
-0.67,-0.273,1.798,0
-0.482,-0.349,1.438,0
-0.192,-0.267,1.127,0
-0.018,-0.178,1.347,0
0.109,0.05,2.462,0
0.045,0.104,2.873,0
-0.306,0.041,2.536,0
-0.462,0.035,1.897,0
-0.377,0.11,1.464,0
-0.048,0.011,1.469,0
0.425,0.239,1.884,0
0.427,0.546,2.205,0
0.221,1.041,1.561,0
0.242,1.439,0.437,0
0.37,1.607,-1.239,1
0.526,1.527,-1.748,1
0.841,1.333,-1.255,1
0.713,0.908,0.485,1
-0.047,0.019,3.341,1
-0.48,-0.512,4.506,1
-0.697,-0.906,4.544,1
-0.723,-1.234,4.051,1
-0.689,-1.576,3.748,1
-0.803,-1.588,3.612,1
-0.867,-1.565,2.903,1
-0.823,-1.487,1.941,1
-0.594,-1.188,0.461,1
-0.465,-1.056,-0.617,1
0.036,-0.956,-1.861,1
0.399,-0.795,-2.548,1
0.686,-0.66,-2.446,1
0.958,-0.615,-2.095,1
1.066,-0.479,-1.687,1
0.939,-0.496,-1.616,1
0.585,-0.661,-1.619,1
0.345,-0.781,-1.702,0
0.166,-0.815,-1.875,0
0.044,-0.805,-2.035,0
0.013,-0.613,-2.305,0
0.137,-0.406,-2.529,0
0.298,-0.092,-2.693,0
0.205,0.069,-2.507,0
-0.053,0.226,-2.233,0
-0.134,0.302,-2.141,0
-0.264,0.345,-2.101,0
-0.376,0.416,-1.961,0
-0.37,0.411,-1.959,0
-0.332,0.466,-1.401,0
-0.211,0.556,-1.135,0
-0.157,0.555,-1.084,0
-0.066,0.525,-0.984,0
-0.005,0.446,-0.955,0
0.075,0.378,-0.815,0
0.132,0.295,-0.562,0
0.181,0.372,0.036,0
0.239,0.413,0.545,0
0.244,0.342,1.274,0
0.032,0.264,1.261,0
-0.435,-0.061,0.662,0
-0.529,-0.209,0.543,0
-0.284,-0.086,0.989,0
0.02,0.045,1.377,0
0.079,0.02,1.759,0
0.292,0.234,2.306,0
0.459,0.478,2.672,0
0.186,0.863,2.413,0
-0.064,1.45,1.201,0
0.043,1.792,-0.013,0
0.116,1.854,-0.844,1
0.084,1.693,-0.845,1
0.077,1.464,-0.433,1
0.152,1.046,0.564,1
0.519,0.189,2.848,1
0.728,-0.493,4.516,1
0.429,-1.642,6.812,1
0.097,-2.073,7.427,1
-0.662,-2.301,5.981,1
-0.756,-1.934,3.748,1
-0.732,-1.373,0.164,1
-0.515,-1.008,-2.015,1
-0.292,-0.588,-3.532,1
-0.285,-0.261,-3.746,1
-0.203,-0.133,-3.085,1
-0.079,-0.269,-2.052,1
0.06,-0.564,-0.804,1
0.054,-0.895,-0.273,1
-0.052,-1.247,-0.102,1
-0.245,-1.552,-0.205,1
-0.361,-1.624,-0.731,1
-0.457,-1.623,-1.317,0
-0.435,-1.492,-2.004,0
-0.339,-1.11,-2.228,0
-0.176,-0.678,-2.397,0
-0.021,-0.603,-2.632,0
-0.129,-0.291,-2.484,0
-0.196,-0.01,-2.097,0
-0.164,0.191,-1.759,0
-0.2,0.205,-2.018,0
-0.386,0.191,-2.444,0
-0.592,0.145,-2.375,0
-0.467,0.287,-1.877,0
-0.104,0.551,-1.364,0
0.112,0.674,-1.108,0
0.028,0.645,-0.846,0
-0.287,0.306,-0.335,0
-0.305,0.31,-0.336,0
-0.246,0.233,0.104,0
-0.384,0.224,0.747,0
-0.35,0.106,1.273,0
-0.448,-0.025,1.403,0
-0.548,-0.169,1.577,0
-0.433,-0.182,1.607,0
-0.389,-0.114,1.743,0
-0.436,-0.048,1.82,0
-0.127,0.066,2.227,0
0.176,0.199,2.543,0
0.503,0.336,2.605,0
0.512,0.278,2.586,0
0.359,0.236,2.306,0
0.367,0.182,2.32,0
-0.862,0.695,0.471,1
-0.517,0.974,-0.363,1
0.406,1.357,-0.912,1
0.831,1.366,-0.519,1
1.024,1.413,1.206,1
0.87,1.282,2.863,1
0.511,0.669,3.814,1
0.486,0.063,3.488,1
0.243,-0.772,3.261,1
-0.227,-1.24,3.755,1
-0.948,-1.803,4.682,1
-1.276,-1.988,4.728,1
-1.362,-1.924,3.63,1
-1.181,-1.778,1.891,1
-1.009,-1.373,-0.355,1
-0.801,-1,-1.623,1
-0.207,-0.815,-2.572,1
0.182,-0.739,-2.81,1
0.544,-0.711,-2.372,1
0.743,-0.72,-1.788,1
0.888,-0.746,-1.083,1
0.857,-0.774,-1.099,0
0.729,-0.69,-1.474,0
0.642,-0.57,-1.741,0
0.651,-0.402,-2.094,0
0.614,-0.276,-2.405,0
0.521,-0.028,-2.868,0
0.546,0.062,-3.162,0
0.585,0.262,-3.69,0
0.551,0.403,-3.919,0
0.416,0.491,-3.996,0
0.317,0.519,-3.675,0
0.013,0.412,-2.551,0
-0.261,0.221,-1.712,0
-0.471,0.004,-0.801,0
-0.762,-0.148,-0.077,0
-0.958,-0.381,0.662,0
-0.91,-0.46,1.094,0
-0.666,-0.471,1.354,0
-0.454,-0.422,1.384,0
-0.099,-0.395,1.417,0
0.164,-0.365,1.385,0
0.354,-0.221,1.286,0
0.429,-0.041,1.079,0
0.309,0.109,0.435,0
0.247,0.133,0.14,0
0.323,0.221,-0.009,0
0.428,0.289,0.346,0
0.414,0.286,1.116,0
0.679,0.332,1.769,0
1.039,0.461,2.35,0
1.3,0.644,2.718,0
1.228,0.876,2.979,0
0.855,1.098,2.607,0
0.555,1.53,0.975,1
0.518,1.714,-0.741,1
0.853,1.821,-2.455,1
1.156,1.859,-2.903,1
1.268,1.829,-2.03,1
0.816,0.992,0.569,1
0.634,-0.522,3.732,1
-0.07,-1.671,5.7,1
-1.689,-3.01,6.883,1
-2.604,-3.513,6.549,1
-2.934,-3.437,3.908,1
-2.691,-2.934,1.223,1
-1.97,-1.857,-1.493,1
-1.112,-0.98,-2.803,1
-0.135,-0.005,-3.781,1
0.245,0.463,-3.867,1
0.387,0.565,-2.962,1
0.316,0.281,-1.801,1
0.098,-0.423,-0.327,1
-0.126,-1.033,0.609,1
-0.366,-1.516,1.264,1
-0.56,-1.681,1.12,0
-0.384,-1.527,0.286,0
-0.188,-1.327,-0.432,0
0.098,-0.894,-1.312,0
0.16,-0.644,-1.857,0
-0.086,-0.53,-2.167,0
-0.056,-0.506,-2.173,0
-0.519,-0.455,-1.723,0
-0.474,-0.376,-1.168,0
-0.301,-0.216,-0.615,0
-0.286,-0.059,-0.553,0
-0.194,0.125,-0.929,0
-0.038,0.262,-1.509,0
0.121,0.615,-1.97,0
0.268,0.789,-1.957,0
0.291,0.754,-1.656,0
0.185,0.636,-1.064,0
-0.01,0.376,-0.192,0
-0.149,0.202,0.357,0
-0.292,0.059,0.826,0
-0.32,0.031,0.994,0
-0.229,0.079,1.096,0
-0.107,0.267,1.094,0
-0.009,0.425,1.276,0
0.021,0.499,1.504,0
0.081,0.486,1.829,0
0.043,0.402,2.152,0
0.186,0.292,2.363,0
0.182,0.286,2.378,0
-0.293,0.474,2.063,0
-0.662,0.709,1.291,0
-0.902,0.898,-0.45,0
-0.652,0.899,-1.554,0
-0.119,0.992,-1.419,0
0.323,1.024,-0.393,0
0.15,0.337,2.256,1
0.036,-0.311,3.959,1
-0.109,-0.968,5.527,1
-0.201,-1.457,6.514,1
-0.456,-1.994,7.253,1
-0.658,-2.155,7.276,1
-0.531,-1.936,5.517,1
-0.219,-1.535,3.623,1
0.187,-0.772,0.535,1
0.49,-0.434,-1.108,1
0.963,-0.177,-2.644,1
0.935,0.031,-3.264,1
0.872,-0.011,-2.894,1
1.112,-0.13,-2.084,1
1.292,-0.188,-0.922,1
1.226,-0.344,-0.45,1
1.007,-0.642,-0.516,1
0.793,-0.754,-1.092,1
0.703,-0.747,-2.079,1
0.699,-0.625,-2.429,1
0.646,-0.428,-2.374,1
0.6,-0.37,-2.194,0
0.447,-0.348,-2.405,0
0.166,-0.407,-2.428,0
-0.095,-0.489,-2.109,0
-0.193,-0.482,-1.722,0
-0.325,-0.44,-0.986,0
-0.298,-0.379,-0.829,0
-0.22,-0.249,-1.159,0
-0.119,-0.115,-1.66,0
0.134,0.093,-2.274,0
0.234,0.22,-2.453,0
0.342,0.245,-2.231,0
0.409,0.22,-1.74,0
0.292,0.2,-0.913,0
0.224,0.14,-0.734,0
0.263,0.155,-0.711,0
0.344,0.232,-0.648,0
0.527,0.259,-0.482,0
0.523,0.221,-0.207,0
0.263,0.09,0.25,0
0.089,0.018,0.661,0
-0.268,-0.041,1.286,0
-0.398,-0.079,1.476,0
-0.484,-0.127,1.29,0
-0.123,0.07,0.91,0
0.408,0.445,0.322,0
0.486,0.512,0.255,0
0.496,0.582,0.735,0
0.193,0.834,1.209,0
-0.108,1.244,1.037,0
0.033,1.448,0.407,1
0.318,1.378,0,1
0.39,1.273,0.333,1
0.395,0.947,1.42,1
0.76,0.408,2.524,1
1.126,-0.453,3.879,1
0.658,-1.211,5.094,1
-0.025,-2.211,6.132,1
-0.591,-2.609,6.109,1
-0.938,-2.668,4.663,1
-0.666,-2.282,2.632,1
-0.361,-1.363,-0.715,1
-0.006,-0.881,-2.205,1
0.582,-0.303,-3.165,1
0.628,0.086,-3.122,1
0.404,0.299,-2.318,1
0.321,0.357,-1.535,1
0.315,0.387,-1.544,1
-0.166,-0.312,-0.924,1
-0.107,-0.624,-0.914,1
-0.005,-0.634,-1.019,1
0.056,-0.652,-1.193,0
0.08,-0.67,-1.16,0
0.154,-0.5,-1.069,0
0.124,-0.308,-1.11,0
0.054,-0.131,-1.45,0
0.096,-0.04,-1.638,0
-0.053,-0.025,-1.624,0
-0.172,-0.042,-1.519,0
-0.238,-0.026,-1.456,0
-0.255,-0.002,-1.186,0
-0.024,0.082,-0.847,0
0.135,0.199,-0.941,0
0.142,0.252,-1.233,0
0.242,0.295,-1.339,0
0.236,0.282,-1.336,0
0.588,0.613,-0.633,0
0.424,0.49,-0.344,0
0.191,0.267,-0.439,0
-0.075,0.028,-0.833,0
-0.102,-0.027,-1.041,0
-0.141,-0.067,-0.743,0
-0.057,-0.053,-0.293,0
0.052,-0.105,0.273,0
0.001,-0.176,0.515,0
-0.142,-0.156,0.504,0
-0.199,0.007,0.263,0
-0.11,0.184,-0.14,0
0.119,0.281,-0.115,0
0.462,0.341,0.447,0
0.636,0.363,0.95,0
0.336,0.539,1.635,0
0.192,0.878,1.78,0
0.304,0.762,1.526,0
0.749,0.595,0.996,0
1.139,0.455,0.823,1
1.171,0.233,1.046,1
0.896,-0.068,2.017,1
0.669,-0.309,3.064,1
0.55,-0.663,4.134,1
0.52,-0.93,4.65,1
0.351,-1.432,5.029,1
0.335,-1.475,4.943,1
0.11,-1.458,3.702,1
0.02,-1.35,2.288,1
0.223,-1.191,0.401,1
0.309,-1.047,-0.706,1
0.621,-0.931,-1.177,1
0.947,-0.739,-1.036,1
1.145,-0.355,-0.514,1
1.234,-0.254,-0.249,1
1.44,-0.253,-0.221,1
1.544,-0.166,-0.519,1
1.586,-0.102,-0.929,1
1.598,-0.125,-1.025,1
1.475,-0.187,-1.047,1
1.194,-0.306,-1.075,0
0.875,-0.469,-1.165,0
0.751,-0.462,-1.209,0
0.48,-0.488,-1.269,0
0.293,-0.522,-1.233,0
0.129,-0.487,-1.157,0
0.164,-0.33,-1.234,0
0.272,-0.085,-1.695,0
0.372,0.082,-2.2,0
0.347,0.31,-2.561,0
0.41,0.362,-2.588,0
0.651,0.47,-2.289,0
0.667,0.536,-1.785,0
0.618,0.445,-1.065,0
0.604,0.261,-0.716,0
0.458,0.044,-0.069,0
0.42,0.015,0.199,0
0.673,0.11,0.311,0
0.809,0.045,0.211,0
1.034,0.141,0.216,0
1.286,0.223,0.34,0
1.157,0.258,0.697,0
0.971,0.246,0.89,0
0.695,0.203,0.983,0
0.636,0.219,0.96,0
0.63,0.358,1.353,0
0.726,0.358,1.775,0
0.647,0.292,2.038,0
0.359,0.172,1.952,0
-0.013,0.414,1.448,0
-0.442,0.682,0.73,0
-0.587,1.073,-0.718,0
0.071,1.321,-1.712,1
1.267,1.688,-2.215,1
1.312,1.754,-1.845,1
1.087,0.948,0.338,1
1.453,-0.049,2.198,1
1.107,-1.078,4.409,1
0.447,-1.951,6.07,1
-0.387,-2.73,7.365,1
-1.036,-2.782,6.796,1
-1.507,-2.374,3.46,1
-1.369,-1.982,0.593,1
-1.155,-1.328,-1.998,1
-1.115,-1.344,-1.991,1
-0.658,-0.819,-3.163,1
-0.038,0.117,-2.84,1
0.451,0.26,-1.442,1
0.485,0.109,-0.462,1
0.262,-0.645,0.327,1
0.162,-0.956,0.243,1
0.119,-1.225,-0.179,1
0.204,-1.164,-0.636,1
0.338,-0.934,-1.035,0
0.483,-0.725,-1.261,0
0.476,-0.571,-1.651,0
0.327,-0.549,-1.977,0
0.048,-0.507,-2.32,0
-0.016,-0.485,-2.359,0
0.025,-0.437,-2.2,0
0.069,-0.305,-1.803,0
0.103,-0.284,-1.277,0
0.085,-0.237,-1.16,0
-0.12,-0.096,-1.189,0
-0.193,-0.005,-1.218,0
-0.19,0.075,-1.143,0
-0.1,0.174,-1.106,0
-0.034,0.277,-1.109,0
-0.007,0.237,-1.07,0
0.069,0.236,-0.953,0
0.169,0.261,-0.756,0
0.244,0.215,-0.269,0
0.204,0.123,0.24,0
0.017,0.041,0.926,0
-0.119,0.018,1.307,0
-0.291,0.069,1.465,0
-0.45,0.1,1.342,0
-0.531,0.241,0.992,0
-0.456,0.407,0.676,0
0.01,0.661,0.811,0
0.43,0.752,1.284,0
0.691,0.868,1.99,0
0.343,1.046,2.126,0
0.161,1.079,1.018,0
0.452,0.99,0.159,0
0.46,0.978,0.162,0
1.213,1.071,-0.104,0
0.937,0.688,1.617,1
0.527,0.004,2.785,1
-0.183,-0.619,3.332,1
-0.412,-0.905,3.325,1
-0.265,-1.358,3.963,1
0.07,-1.424,4.408,1
-0.024,-1.288,4.47,1
0.02,-1.241,3.829,1
0.235,-1.046,1.687,1
0.342,-0.768,0.25,1
0.551,-0.681,-1.248,1
0.815,-0.669,-2.142,1
0.81,-0.448,-2.763,1
0.84,-0.469,-2.811,1
1.058,-0.663,-2.308,1
1.003,-0.81,-1.589,1
0.827,-1.043,-0.437,1
0.87,-1.212,0.014,1
0.684,-1.177,-0.018,1
0.468,-1.192,-0.259,1
0.491,-1.124,-0.611,1
0.612,-0.905,-1.139,0
0.568,-0.568,-1.925,0
0.576,-0.35,-2.333,0
0.611,-0.136,-2.619,0
0.683,0.025,-2.58,0
0.615,0.242,-2.345,0
0.557,0.341,-1.991,0
0.359,0.273,-1.285,0
0.181,0.227,-0.787,0
0.104,0.361,-0.491,0
0.07,0.51,-0.441,0
0.076,0.436,-0.232,0
0.207,0.501,-0.188,0
0.204,0.491,-0.186,0
0.395,0.712,0.132,0
0.682,0.859,0.573,0
0.714,0.842,0.758,0
0.7,0.674,1.065,0
0.635,0.527,1.131,0
0.383,0.386,1.279,0
0.34,0.363,1.345,0
0.37,0.33,1.135,0
0.313,0.289,1.03,0
0.21,0.345,0.884,0
0.272,0.388,0.81,0
0.381,0.491,0.593,0
0.462,0.541,0.517,0
0.416,0.607,0.84,0
0.07,0.676,0.872,0
-0.372,0.844,0.228,1
-0.239,0.944,-0.328,1
0.186,1.044,-1.021,1
0.405,0.956,-1.088,1
0.385,0.954,-1.089,1
0.612,-0.14,1.077,1
0.7,-0.913,3.063,1
0.355,-1.605,4.364,1
-0.078,-2.321,5.59,1
-0.777,-2.935,6.095,1
-1.012,-2.811,4.677,1
-0.848,-2.379,2.595,1
-0.632,-1.586,-0.774,1
-0.089,-1.078,-2.194,1
0.664,-0.267,-3.41,1
0.839,0.223,-3.638,1
0.846,0.44,-3.106,1
0.837,0.34,-2.349,1
0.447,-0.183,-1.013,1
0.159,-0.578,-0.353,1
0.079,-0.995,0.234,1
-0.067,-1.171,0.403,0
-0.218,-1.337,-0.034,0
-0.021,-1.127,-0.709,0
0.352,-0.687,-1.609,0
0.601,-0.417,-2.14,0
0.457,-0.244,-2.15,0
0.113,-0.33,-1.907,0
-0.231,-0.42,-1.638,0
-0.378,-0.417,-1.555,0
-0.376,-0.323,-1.522,0
-0.272,-0.198,-1.547,0
-0.121,0.095,-1.732,0
0.043,0.311,-1.977,0
0.23,0.503,-2.178,0
0.278,0.543,-2.088,0
0.359,0.575,-1.691,0
0.206,0.484,-1.193,0
-0.102,0.188,-0.238,0
-0.362,-0.009,0.567,0
-0.809,-0.155,1.135,0
-1.093,-0.235,1.278,0
-1.172,-0.165,1.163,0
-0.955,0.025,0.86,0
-0.492,0.428,0.373,0
-0.133,0.757,0.191,0
0.094,0.773,0.361,0
0.136,0.593,0.675,0
-0.011,0.305,1.046,0
0.048,0.112,1.528,0
0.085,-0.114,2.496,0
0.005,-0.118,2.997,0
-0.194,0.277,2.967,0
-0.347,0.678,2.269,1
-0.348,0.655,2.274,1
0.41,0.989,0.587,1
1.189,1.042,0.712,1
1.315,0.922,1.609,1
1.082,0.284,3.39,1
0.665,-0.151,4.301,1
-0.072,-0.527,3.999,1
-0.425,-0.963,3.641,1
-0.089,-1.155,3.019,1
0.057,-0.942,2.754,1
0.088,-0.758,2.594,1
0.177,-0.698,2.116,1
0.198,-0.699,1.205,1
0.312,-0.708,0.272,1
0.419,-0.668,-0.764,1
0.501,-0.672,-1.39,1
0.583,-0.703,-1.892,1
0.589,-0.772,-1.936,1
0.651,-0.835,-1.671,1
0.555,-0.953,-1.268,1
0.384,-1.166,-0.558,0
0.354,-1.194,-0.442,0
0.222,-1.098,-0.789,0
0.096,-1.067,-1.224,0
0.059,-0.943,-1.935,0
0.105,-0.77,-2.611,0
0.203,-0.462,-3.247,0
0.336,-0.209,-3.339,0
0.609,0.137,-3.32,0
0.675,0.336,-3.056,0
0.551,0.504,-2.566,0
0.427,0.482,-2.188,0
0.222,0.346,-1.852,0
0.078,0.318,-1.602,0
0.028,0.227,-1.244,0
0.057,0.249,-1.008,0
0.118,0.346,-0.702,0
0.169,0.399,-0.532,0
0.378,0.459,-0.321,0
0.55,0.564,-0.103,0
0.785,0.647,0.063,0
0.811,0.583,0.337,0
0.565,0.527,0.798,0
0.366,0.327,1.16,0
0.325,0.48,1.272,0
-0.272,0.29,1.625,0
-0.301,0.113,1.775,0
-0.381,0.293,2.085,0
-0.622,0.153,2.67,0
-0.5,-0.025,2.931,0
-0.173,-0.015,3.052,0
0.004,-0.109,2.818,0
0.009,-0.156,2.831,1
0.003,0.095,1.934,1
-0.546,0.399,0.707,1
-0.579,0.445,-0.134,1
-0.109,0.585,-1.144,1
0.115,0.648,-1.074,1
0.146,0.595,0.039,1
0.183,0.165,1.443,1
0.43,-0.69,3.303,1
0.436,-1.227,4.341,1
0.335,-2.02,6.13,1
0.279,-2.297,6.563,1
-0.111,-1.677,4.454,1
-0.39,-1.18,1.844,1
-0.435,-1.019,-1.36,1
-0.136,-0.698,-3.363,1
-0.175,-0.019,-5.001,1
-0.315,0.37,-5.105,1
-0.137,0.528,-3.969,1
0.106,0.421,-2.605,1
0.241,-0.018,-0.945,1
0.298,-0.41,-0.344,0
0.187,-0.873,-0.061,0
0.061,-1.017,-0.198,0
0.06,-1.099,-0.63,0
0.122,-0.997,-1.123,0
0.08,-0.772,-1.745,0
0.168,-0.576,-2.085,0
0.251,-0.449,-2.313,0
0.187,-0.439,-2.014,0
0.125,-0.419,-1.337,0
-0.026,-0.397,-0.966,0
-0.344,-0.47,-0.63,0
-0.441,-0.449,-0.686,0
-0.392,-0.353,-1.244,0
-0.332,-0.197,-1.681,0
-0.089,0.182,-1.921,0
0.051,0.342,-1.848,0
0.117,0.369,-1.765,0
-0.014,0.333,-1.625,0
-0.015,0.339,-1.626,0
-0.168,0.153,-0.752,0
-0.247,0.156,0.034,0
-0.348,0.128,0.49,0
-0.438,0.152,0.706,0
-0.509,0.218,0.744,0
-0.447,0.368,0.65,0
-0.401,0.423,0.738,0
-0.342,0.614,1.037,0
-0.264,0.676,1.083,0
-0.228,0.549,1.236,0
-0.13,0.338,1.561,0
0.177,0.278,1.853,0
0.25,0.264,1.859,0
-0.162,0.374,1.717,0
-0.549,0.571,1.19,0
-0.508,0.55,0.3,1
-0.322,0.508,0.311,1
0.098,0.59,1.101,1
0.225,0.5,1.776,1
0.303,0.03,2.898,1
-0.039,-0.316,3.666,1
-0.402,-0.661,3.829,1
-0.383,-0.918,3.394,1
-0.09,-1.287,3.081,1
0.056,-1.366,3.119,1
0.14,-1.111,2.82,1
0.321,-0.868,2.059,1
0.442,-0.711,0.686,1
0.465,-0.623,-0.286,1
0.551,-0.493,-0.982,1
0.726,-0.391,-1.399,1
0.89,-0.175,-1.849,1
0.873,-0.204,-2.106,1
0.898,-0.352,-2.285,1
0.799,-0.469,-2.004,1
0.527,-0.887,-0.811,1
0.365,-1.185,-0.084,0
0.061,-1.366,0.303,0
-0.118,-1.379,0.318,0
0.018,-1.212,0.057,0
0.279,-0.944,-0.446,0
0.452,-0.545,-1.427,0
0.488,-0.273,-2.128,0
0.665,0.041,-2.857,0
0.759,0.189,-3.129,0
0.843,0.314,-3.242,0
0.76,0.27,-2.885,0
0.435,0.029,-1.827,0
0.271,-0.08,-1.035,0
0.335,0.097,-0.543,0
0.258,0.193,-0.621,0
0.305,0.247,-1.412,0
0.345,0.31,-1.971,0
0.304,0.468,-2.404,0
0.348,0.564,-2.249,0
0.509,0.58,-1.651,0
0.419,0.479,-1.126,0
0.328,0.3,-0.38,0
0.225,0.188,0.268,0
-0.321,-0.003,0.942,0
-0.744,-0.222,1.385,0
-0.99,-0.315,1.747,0
-0.671,-0.094,1.627,0
-0.294,0.313,1.406,0
-0.018,0.723,1.546,0
0.328,0.945,1.67,0
0.452,1.147,1.614,0
0.214,1.411,1.462,0
-0.3,1.548,0.988,0
-0.661,1.484,-0.265,0
-0.56,1.375,-0.945,1
-0.216,1.051,-0.966,1
-0.037,0.822,0.516,1
0.237,0.455,3.278,1
0.436,0.102,4.777,1
0.47,-0.383,5.468,1
0.523,-0.711,5.368,1
0.764,-1.228,4.772,1
0.887,-1.28,3.814,1
0.663,-1.224,2.213,1
0.471,-1.237,1.087,1
0.079,-1.149,-0.008,1
-0.161,-1.175,-0.476,1
-0.271,-1.073,-1.098,1
-0.677,-1.151,-1.472,1
-0.912,-1.24,-1.627,1
-0.813,-1.224,-1.615,1
-0.334,-1.031,-1.25,1
0.022,-0.976,-0.899,1
0.335,-1.069,-0.516,1
0.215,-1.194,-0.472,1
-0.126,-1.534,-0.586,0
-0.367,-1.697,-0.888,0
-0.498,-1.558,-1.508,0
-0.459,-1.342,-2.116,0
-0.377,-1.076,-2.612,0
-0.187,-0.588,-2.824,0
-0.055,-0.121,-2.534,0
0.037,0.071,-2.074,0
-0.061,0.247,-1.354,0
-0.249,0.168,-0.869,0
-0.491,-0.037,-0.617,0
-0.597,-0.017,-0.805,0
-0.706,-0.012,-1.001,0
-0.711,0.113,-0.901,0
-0.44,0.392,-0.798,0
-0.377,0.513,-0.93,0
-0.4,0.636,-0.966,0
-0.249,0.71,-0.616,0
-0.185,0.69,0.157,0
-0.373,0.621,0.783,0
-0.621,0.438,1.201,0
-0.805,0.273,1.418,0
-0.954,-0.004,1.629,0
-1.009,-0.025,1.748,0
-0.965,0.116,1.736,0
-0.695,0.271,1.592,0
-0.305,0.461,1.304,0
-0.108,0.465,1.017,0
0.158,0.656,1.093,0
0.127,0.846,1.328,0
-0.16,1.242,1.09,0
-0.07,1.488,0.527,1
0.716,1.714,-0.162,1
0.921,1.623,-0.088,1
0.577,0.858,1.4,1
0.077,-0.111,3.085,1
-0.839,-1.071,4.516,1
-1.428,-1.552,5.274,1
-1.513,-1.936,5.138,1
-1.364,-1.941,4.589,1
-1.15,-1.821,3.849,1
-1.027,-1.745,3.093,1
-0.862,-1.58,1.811,1
-0.606,-1.46,0.895,1
-0.263,-1.344,-0.086,1
0.033,-1.224,-0.703,1
0.394,-1.147,-1.223,1
0.656,-1.068,-1.397,1
0.962,-1.022,-1.426,1
0.989,-1.074,-1.244,1
0.912,-1.221,-0.889,1
0.871,-1.243,-0.838,1
0.71,-1.2,-1.058,0
0.708,-1.034,-1.29,0
0.622,-0.828,-1.879,0
0.576,-0.621,-2.311,0
0.881,-0.256,-3.084,0
1.097,0.097,-3.691,0
1.142,0.476,-4.186,0
1.072,0.658,-4.199,0
0.963,0.741,-4.136,0
0.841,0.632,-4.215,0
0.5,0.491,-3.65,0
0.32,0.41,-2.677,0
0.292,0.31,-1.736,0
0.178,0.271,-1.392,0
-0.04,0.081,-0.724,0
-0.118,-0.024,0.152,0
-0.134,-0.067,0.907,0
-0.09,0.069,0.881,0
-0.234,0.1,0.759,0
-0.041,0.155,0.606,0
0.26,0.317,0.627,0
0.324,0.38,0.864,0
0.25,0.294,1.236,0
0.063,0.157,1.331,0
-0.194,0.021,1.164,0
-0.157,0.007,1.012,0
0.21,0.196,0.985,0
0.4,0.306,1.1,0
0.593,0.292,1.27,0
0.707,0.302,1.496,0
0.781,0.493,2.236,0
0.643,0.609,2.516,1
0.642,0.566,2.528,1
-0.101,1.152,0.743,1
0.003,1.558,-0.55,1
0.354,1.655,-0.992,1
0.62,1.52,-0.795,1
0.553,1.055,0.422,1
0.725,0.144,2.598,1
0.554,-0.477,4.171,1
0.142,-1.416,5.728,1
-0.2,-2.125,6.425,1
-0.724,-2.481,5.955,1
-0.981,-2.301,4.204,1
-0.848,-1.907,0.458,1
-0.849,-1.467,-1.245,1
-0.398,-0.853,-2.79,1
-0.142,-0.549,-3.329,1
0.081,-0.139,-3.353,1
0.222,0.002,-2.799,1
0.4,-0.092,-1.465,1
0.376,-0.337,-0.426,1
0.362,-0.835,0.387,0
0.325,-1.039,0.311,0
0.077,-1.205,-0.197,0
0.049,-1.152,-0.605,0
0.221,-1.028,-1.332,0
0.445,-0.799,-1.955,0
0.476,-0.541,-2.343,0
0.362,-0.435,-2.411,0
0.278,-0.399,-2.671,0
0.161,-0.342,-2.974,0
0.011,-0.026,-2.887,0
0.054,0.159,-2.875,0
0.13,0.322,-2.923,0
0.124,0.561,-2.34,0
0.11,0.647,-1.695,0
0.061,0.601,-1.6,0
-0.355,0.363,-1.316,0
-0.557,0.237,-0.826,0
-0.604,0.341,-0.044,0
-0.743,0.307,0.162,0
-0.851,0.233,0.131,0
-0.775,0.183,0.085,0
-0.6,0.102,0.25,0
-0.53,0.151,0.701,0
-0.264,0.33,1.587,0
-0.189,0.379,2.226,0
-0.186,0.38,2.599,0
-0.114,0.336,2.336,0
-0.331,0.364,1.616,0
-0.254,0.336,1.149,0
-0.036,0.278,0.805,0
0.017,0.282,1.015,0
-0.032,0.468,1.584,0
-0.425,0.793,1.601,0
-0.69,1.078,0.715,1
-0.319,1.219,-0.142,1
0.441,1.528,-0.789,1
0.614,1.483,-0.57,1
0.389,0.839,1.45,1
0.391,0.89,1.437,1
-0.207,-0.531,4.207,1
-0.542,-1.092,4.962,1
-0.903,-1.87,6.046,1
-1.174,-2.167,6.498,1
-1.504,-2.197,5.614,1
-1.302,-2.026,3.824,1
-0.83,-1.559,0.993,1
-0.561,-1.306,-0.587,1
-0.004,-1.001,-2.086,1
0.385,-0.718,-2.825,1
0.758,-0.445,-2.818,1
1.206,-0.406,-2.175,1
1.212,-0.599,-0.909,1
0.781,-1.002,0.029,1
0.48,-1.452,0.519,1
0.371,-1.477,0.268,0
0.214,-1.427,-0.712,0
0.294,-1.229,-1.334,0
0.396,-0.839,-2.028,0
0.454,-0.557,-2.511,0
0.833,-0.217,-3.207,0
1.032,0.017,-3.615,0
1.114,0.275,-3.763,0
0.985,0.306,-3.455,0
0.557,0.013,-2.519,0
0.237,-0.204,-1.698,0
-0.001,-0.276,-0.93,0
-0.14,-0.275,-0.559,0
-0.01,-0.195,-0.557,0
0.242,-0.031,-0.866,0
0.535,0.284,-1.31,0
0.729,0.533,-1.449,0
0.791,0.587,-1.159,0
0.729,0.443,-0.86,0
0.565,0.241,-0.26,0
0.333,0.219,0.141,0
0.114,0.043,0.808,0
-0.052,-0.19,1.275,0
-0.419,-0.326,1.742,0
-0.213,-0.195,1.553,0
-0.125,0.116,1.017,0
-0.233,0.234,0.675,0
-0.09,0.373,0.397,0
-0.054,0.524,0.735,0
0.031,0.583,1.453,0
0.156,0.634,1.886,0
-0.08,0.731,2.092,0
-0.608,0.828,1.619,0
-1.143,0.902,0.227,1
-1.096,0.967,-0.917,1
-0.275,1.158,-1.454,1
0.394,1.193,-1.019,1
0.933,1.256,1.027,1
0.813,0.796,2.922,1
0.62,0.025,4.336,1
0.348,-0.766,4.648,1
-0.127,-1.594,4.545,1
-0.715,-1.882,4.271,1
-1.293,-2.014,3.472,1
-1.448,-2.016,2.389,1
-1.42,-1.61,0.777,1
-1.204,-1.18,-0.422,1
-0.972,-0.717,-1.589,1
-0.755,-0.42,-2.088,1
-0.387,-0.204,-2.22,1
-0.077,-0.131,-1.907,1
0.012,-0.314,-1.084,1
-0.083,-0.64,-0.405,1
-0.072,-1.012,0.151,1
-0.189,-1.135,0.262,0
-0.457,-1.465,0.367,0
-0.475,-1.559,0.217,0
-0.48,-1.438,-0.24,0
-0.282,-1.169,-0.891,0
0.114,-0.837,-1.929,0
0.308,-0.533,-2.519,0
0.38,-0.219,-2.863,0
0.342,-0.023,-2.547,0
0.219,0.244,-1.948,0
0.064,0.329,-1.693,0
-0.094,0.362,-1.607,0
-0.238,0.38,-1.593,0
-0.292,0.423,-1.672,0
-0.156,0.551,-1.902,0
-0.066,0.733,-2.237,0
-0.052,0.793,-2.229,0
-0.014,0.797,-1.828,0
0.065,0.825,-1.451,0
0.109,0.722,-0.704,0
0.017,0.585,0.086,0
0.051,0.471,0.817,0
-0.117,0.431,0.977,0
-0.4,0.21,1.267,0
-0.541,-0.083,1.646,0
-0.593,-0.083,2.13,0
-0.42,0.082,1.897,0
-0.402,0.066,1.9,0
0.008,0.3,0.79,0
-0.05,0.453,1.019,0
-0.342,0.813,1.611,0
-0.361,0.781,1.62,0
-0.128,1.508,1.228,0
0.586,1.492,0.957,0
0.744,1.413,1.25,0
0.757,1.065,2.741,1
0.47,0.543,3.673,1
-0.041,-0.563,4.072,1
-0.036,-1.26,4.294,1
-0.042,-1.811,5.096,1
-0.274,-2.046,5.843,1
-0.71,-2.194,5.4,1
-0.741,-2.049,4.132,1
-0.397,-1.781,1.724,1
-0.132,-1.475,-0.131,1
-0.087,-1.514,-0.121,1
0.127,-1.277,-2.481,1
0.295,-1.084,-2.264,1
0.388,-1.009,-1.486,1
0.34,-1.154,-0.697,1
0.213,-1.326,-0.42,1
0.144,-1.35,-0.885,1
0.159,-1.203,-1.282,1
0.424,-0.917,-1.633,1
0.588,-0.736,-1.78,1
0.774,-0.504,-2.09,1
0.754,-0.326,-2.239,0
0.636,-0.23,-2.302,0
0.51,-0.263,-2.284,0
0.527,-0.269,-2.282,0
0.179,-0.259,-1.598,0
0.041,-0.211,-1.386,0
-0.01,-0.186,-1.536,0
-0.018,-0.026,-2.161,0
0.139,0.173,-2.536,0
0.448,0.432,-2.885,0
0.472,0.556,-2.485,0
0.479,0.548,-2.482,0
0.341,0.454,-1.222,0
0.134,0.252,-0.824,0
-0.05,0.127,-0.519,0
-0.288,0.016,-0.215,0
-0.288,-0.054,-0.219,0
-0.088,-0.026,-0.201,0
0.135,0.032,-0.134,0
0.282,0.157,0.134,0
0.233,0.196,0.387,0
-0.006,0.234,0.525,0
-0.169,0.234,1.043,0
-0.247,0.1,1.744,0
-0.379,-0.054,2.085,0
-0.402,-0.014,2.157,0
-0.192,0.112,1.949,0
-0.049,0.358,1.556,0
-0.277,0.776,1.221,0
-0.688,1.358,0.424,0
-0.559,1.45,-0.409,1
-0.527,1.428,-0.4,1
0.174,1.441,-1.302,1
-0.044,0.924,0.06,1
0.007,0.144,1.387,1
0.204,-0.822,3.768,1
0.114,-1.335,5.33,1
0.225,-1.774,6.662,1
0.03,-1.812,6.44,1
-0.211,-1.509,3.666,1
-0.281,-1.202,1.54,1
-0.507,-0.87,-0.457,1
-0.072,-0.54,-1.532,1
-0.142,-0.261,-2.215,1
-0.212,-0.23,-2.429,1
-0.068,-0.21,-1.997,1
-0.045,-0.43,-1.33,1
0.047,-0.825,-0.462,1
0.128,-1.099,-0.059,1
0.084,-1.414,0.338,1
-0.021,-1.484,0.431,1
-0.202,-1.612,0.086,0
-0.201,-1.549,-0.517,0
-0.191,-1.294,-1.597,0
-0.156,-1.144,-2.127,0
-0.092,-0.916,-2.628,0
-0.019,-0.711,-2.966,0
0.125,-0.274,-3.128,0
0.148,-0.114,-2.878,0
0.083,0.015,-2.17,0
-0.039,0.083,-1.597,0
-0.215,0.061,-1.175,0
-0.392,-0.027,-1.175,0
-0.528,-0.015,-1.596,0
-0.497,0.089,-1.703,0
-0.161,0.359,-1.685,0
-0.116,0.468,-1.752,0
-0.179,0.46,-1.694,0
-0.232,0.425,-1.358,0
-0.239,0.436,-1.361,0
-0.34,0.412,0.236,0
-0.366,0.45,1.095,0
-0.566,0.306,1.939,0
-0.578,0.266,2.281,0
-0.44,0.367,1.849,0
-0.192,0.464,0.854,0
0.073,0.424,0.416,0
0.396,0.355,0.409,0
0.494,0.298,1.071,0
0.517,0.292,2.26,0
0.33,0.43,2.9,0
-0.246,1.123,2.487,0
-0.445,1.53,1.238,0
0.077,1.503,-0.054,1
0.76,1.636,-0.413,1
0.892,1.632,0.263,1
0.557,0.929,2.007,1
0.065,-0.113,4.084,1
-0.301,-0.639,4.52,1
-0.335,-1.288,4.63,1
-0.15,-1.6,4.915,1
-0.223,-1.702,5.14,1
-0.28,-1.629,4.499,1
-0.307,-1.497,2.613,1
-0.217,-1.352,1.081,1
-0.14,-1.155,-0.229,1
0.054,-1.099,-0.967,1
0.238,-1.043,-1.733,1
0.389,-0.954,-1.978,1
0.672,-1.004,-2.208,1
0.952,-1,-2.392,1
1.112,-0.901,-2.253,1
1.11,-0.91,-1.734,1
0.98,-1,-0.975,1
0.876,-0.897,-0.493,0
0.508,-0.827,-0.08,0
0.195,-0.79,-0.048,0
-0.131,-0.768,-0.246,0
-0.145,-0.661,-0.573,0
-0.031,-0.334,-1.344,0
0.141,-0.086,-2.016,0
0.317,0.245,-2.438,0
0.476,0.329,-2.299,0
0.644,0.443,-1.832,0
0.55,0.504,-1.481,0
0.311,0.481,-0.858,0
0.288,0.424,-0.688,0
0.12,0.42,-0.723,0
0.071,0.439,-1.012,0
0.142,0.441,-1.427,0
0.357,0.583,-1.582,0
0.38,0.565,-1.577,0
0.582,0.535,-1.05,0
0.616,0.45,-0.258,0
0.629,0.362,0.155,0
0.4,0.338,0.294,0
0.388,0.311,0.301,0
0.139,0.086,0.541,0
-0.118,-0.033,0.82,0
-0.385,-0.252,1.322,0
-0.381,-0.298,1.61,0
-0.371,-0.274,1.911,0
-0.319,-0.266,1.94,0
-0.151,-0.124,1.88,0
-0.193,0.125,1.764,0
-0.693,0.677,1.106,0
-0.864,0.94,-0.106,0
-0.505,0.971,-1.503,0
-0.097,1.069,-1.822,0
0.168,1.093,-1.456,1
-0.148,0.701,-0.29,1
0.27,-0.296,1.772,1
0.454,-1.024,3.492,1
0.34,-1.732,5.852,1
0.002,-2.054,7.104,1
-0.726,-2.319,6.8,1
-1.084,-2.19,4.916,1
-1.022,-1.797,1.129,1
-1.185,-1.456,-0.577,1
-1.135,-1.118,-1.84,1
-1.003,-0.984,-2.061,1
-0.483,-0.556,-1.739,1
-0.437,-0.326,-0.92,1
-0.202,-0.661,0.216,1
0.049,-0.865,0.616,1
0.111,-0.863,0.679,1
0.097,-0.948,0.612,1
0.078,-0.98,0.369,1
0.055,-0.955,-0.043,1
0.038,-0.797,-0.926,1
0.011,-0.676,-1.555,0
0.024,-0.506,-2.12,0
-0.009,-0.441,-2.316,0
0.081,-0.311,-2.118,0
0.237,-0.153,-1.925,0
0.365,0.157,-1.859,0
0.324,0.31,-1.913,0
0.274,0.374,-1.98,0
0.364,0.392,-2.21,0
0.301,0.379,-2.407,0
0.165,0.262,-2.395,0
0.123,0.125,-2.26,0
-0.029,0.04,-2.145,0
-0.15,-0.068,-1.905,0
-0.226,-0.129,-1.6,0
-0.317,-0.018,-0.973,0
-0.342,0.146,-0.489,0
-0.364,0.312,-0.146,0
-0.363,0.353,0.062,0
-0.351,0.406,0.179,0
-0.401,0.5,0.323,0
-0.393,0.467,0.54,0
-0.393,0.461,0.744,0
-0.417,0.458,1.152,0
-0.32,0.289,1.464,0
-0.334,-0.105,1.825,0
-0.172,-0.139,2.152,0
0,-0.132,2.542,0
-0.283,0.171,2.258,0
-0.646,0.792,0.672,0
-0.36,0.926,-0.303,0
0.641,1.044,-0.329,0
1.09,1.173,0.314,0
0.923,0.918,1.966,1
0.377,0.326,3.424,1
-0.51,-0.311,4.2,1
-0.827,-0.549,3.745,1
-0.663,-0.765,2.84,1
-0.544,-0.825,2.442,1
-0.731,-0.941,2.398,1
-1.138,-1.171,2.512,1
-1.514,-1.594,1.968,1
-1.495,-1.621,1.347,1
-1.115,-1.414,0.151,1
-0.633,-1.133,-0.823,1
0.022,-0.91,-1.815,1
0.466,-0.864,-1.701,1
0.799,-0.843,-1.076,1
0.805,-0.899,-0.546,1
0.58,-1.094,-0.132,1
0.406,-1.212,-0.169,1
0.31,-1.297,-0.63,1
0.301,-1.171,-1.234,1
0.487,-0.698,-1.885,1
0.594,-0.44,-2.122,0
0.693,-0.136,-2.101,0
0.89,0.149,-2.131,0
0.918,0.385,-2.04,0
0.844,0.518,-1.973,0
0.605,0.576,-1.847,0
0.285,0.51,-1.9,0
-0.03,0.389,-2.06,0
-0.19,0.285,-2.225,0
-0.268,0.295,-2.268,0
-0.115,0.321,-2.132,0
-0.125,0.308,-2.129,0
0.455,0.474,-1.311,0
0.405,0.46,-0.345,0
0.411,0.38,0.169,0
0.443,0.4,0.466,0
0.313,0.32,0.592,0
0.086,-0.024,0.385,0
-0.175,-0.138,0.513,0
-0.335,-0.164,0.781,0
-0.316,-0.182,0.787,0
0.044,0.324,0.755,0
0.077,0.495,0.689,0
0.184,0.572,0.82,0
0.095,0.504,1.226,0
0.127,0.435,2.127,0
0.224,0.378,2.675,0
-0.157,0.591,2.793,0
-0.476,0.84,1.997,0
-0.11,1.249,0.141,0
0.213,1.391,-0.619,1
0.378,1.237,-0.068,1
0.25,0.888,1.326,1
0.347,0.475,3.243,1
0.182,0.036,4.002,1
-0.068,-0.8,4.53,1
-0.136,-1.438,4.752,1
-0.284,-1.894,4.732,1
-0.877,-2.185,4.146,1
-1.394,-2.267,2.401,1
-1.528,-2.124,0.483,1
-1.506,-1.663,-1.626,1
-1.328,-1.239,-2.397,1
-1.015,-0.692,-2.259,1
-0.404,-0.215,-1.905,1
0.19,0.31,-1.305,1
0.424,0.129,-0.688,1
0.44,-0.375,0.146,1
0.199,-0.799,0.632,1
0.128,-1.242,0.867,1
0.119,-1.297,0.539,1
0.063,-1.315,-0.216,0
0.252,-1.056,-1.242,0
0.239,-0.699,-2.544,0
0.245,-0.588,-3.141,0
0.371,-0.425,-3.36,0
0.356,-0.224,-3.222,0
0.066,-0.191,-2.664,0
-0.128,-0.202,-2.451,0
-0.246,-0.13,-2.505,0
-0.354,-0.047,-2.602,0
-0.372,0.056,-2.776,0
-0.361,0.06,-2.776,0
0.057,0.558,-2.582,0
0.25,0.695,-2.372,0
0.268,0.746,-2.04,0
0.106,0.566,-1.629,0
-0.052,0.286,-0.72,0
-0.022,0.17,0.093,0
-0.093,0.189,1.073,0
0.01,0.263,1.728,0
-0.183,0.15,2.063,0
-0.881,-0.196,1.517,0
-0.975,-0.125,0.802,0
-0.888,0.013,0.615,0
-0.79,0.319,0.441,0
-0.531,0.584,0.331,0
-0.109,0.806,0.637,0
0.075,0.786,1.257,0
0.362,0.561,2.384,0
0.363,0.411,2.864,0
-0.427,0.361,2.939,0
-1.246,0.842,2.279,0
-1.157,1.152,0.867,1
-0.261,1.243,0.37,1
0.913,1.545,0.484,1
1.653,1.638,1.251,1
1.332,1.173,2.932,1
0.352,0.364,4.111,1
-0.276,-0.727,4.684,1
-0.54,-1.304,4.594,1
-1.007,-1.979,4.269,1
-1.127,-2.247,3.495,1
-1.256,-2.147,2.196,1
-0.968,-1.989,1.197,1
-0.353,-1.509,0.016,1
-0.034,-1.239,-0.671,1
0.323,-1.088,-1.809,1
0.592,-1.042,-2.183,1
0.792,-1.017,-1.894,1
0.865,-0.999,-0.956,1
0.943,-1.104,0.247,1
0.95,-1.111,0.792,1
0.88,-1.014,0.355,1
0.844,-0.804,-0.744,0
0.803,-0.46,-2.223,0
0.852,-0.126,-2.728,0
1.054,0.138,-2.845,0
1.019,0.314,-2.876,0
0.791,0.431,-2.792,0
0.583,0.331,-2.297,0
0.416,0.168,-1.439,0
0.248,0.189,-0.786,0
-0.126,0.004,-0.516,0
-0.262,-0.103,-0.745,0
-0.481,-0.172,-1.463,0
-0.55,-0.146,-2.058,0
-0.268,0.094,-2.513,0
-0.011,0.279,-2.513,0
0.217,0.367,-2.351,0
0.545,0.515,-2.134,0
0.729,0.707,-1.367,0
0.659,0.625,-0.636,0
0.456,0.424,-0.225,0
0.151,0.31,-0.056,0
-0.148,0.218,0.453,0
-0.126,0.23,0.803,0
-0.059,0.325,1.335,0
-0.05,0.455,1.969,0
-0.114,0.431,2.494,0
-0.242,0.335,2.564,0
-0.114,0.173,2.27,0
0.023,-0.023,2.156,0
0.175,-0.083,2.282,0
-0.09,-0.011,2.236,0
-0.722,0.407,0.874,0
-0.785,0.53,-0.336,0
-0.393,0.654,-1.048,0
-0.083,0.923,-0.713,1
0.279,1.306,-0.072,1
0.602,1.166,0.402,1
1.096,0.065,2.032,1
1.605,-0.782,4.261,1
1.374,-1.794,7.376,1
0.267,-2.221,8.51,1
-0.942,-2.632,7.207,1
-1.201,-2.4,4.227,1
-1.2,-1.87,0.476,1
-0.993,-1.393,-1.267,1
-0.284,-0.707,-2.205,1
0.096,-0.472,-2.083,1
0.246,-0.491,-1.395,1
0.232,-0.755,-0.952,1
0.181,-1.192,-0.273,1
-0.016,-1.445,-0.236,1
-0.193,-1.412,-0.691,1
0.044,-1.156,-1.182,1
0.049,-1.139,-1.187,1
0.484,-0.669,-1.557,1
0.36,-0.65,-1.662,0
0.23,-0.679,-2.055,0
-0.087,-0.691,-2.219,0
-0.247,-0.69,-2.27,0
-0.409,-0.62,-2.666,0
-0.557,-0.546,-2.728,0
-0.454,-0.225,-2.529,0
-0.237,0.045,-2.664,0
-0.111,0.184,-2.78,0
-0.053,0.36,-2.34,0
0.106,0.638,-1.713,0
0.011,0.655,-1.529,0
-0.129,0.504,-1.48,0
-0.237,0.331,-1.311,0
-0.379,0.205,-0.942,0
-0.278,0.205,-0.785,0
-0.105,0.194,-0.521,0
-0.12,0.253,-0.081,0
-0.191,0.253,0.329,0
-0.245,0.196,0.602,0
-0.462,0.255,0.82,0
-0.397,0.526,1.148,0
0.174,1.018,1.942,0
0.41,1.096,1.766,0
0.26,1.018,1.056,0
0.224,0.82,0.705,0
0.173,0.534,0.92,0
-0.091,0.38,1.265,0
-0.663,0.241,1.333,0
-1.39,0.539,0.937,0
-1.958,1.111,-0.255,0
-1.336,1.14,-0.66,0
-0.202,1.296,-0.174,1
0.21,1.493,0.946,1
0.016,1.235,2.737,1
-0.109,0.532,3.836,1
0.132,-0.366,4.922,1
0.232,-0.954,5.877,1
-0.174,-1.766,7.028,1
-0.466,-1.865,6.723,1
-0.666,-1.657,4.904,1
-0.513,-1.447,2.788,1
-0.17,-1.117,0.54,1
0.35,-0.812,-1.114,1
0.783,-0.55,-2.707,1
1.026,-0.515,-3.248,1
1.064,-0.507,-2.423,1
1.002,-0.68,-1.368,1
0.765,-1.114,-0.073,1
0.439,-1.391,0.16,1
-0.006,-1.709,0.405,1
0.029,-1.572,0.192,1
0.005,-1.272,-0.513,1
0.005,-1.112,-1.321,0
0.032,-0.78,-2.394,0
0.072,-0.524,-3.046,0
0.373,-0.169,-3.447,0
0.44,0.038,-3.316,0
0.481,0.19,-2.871,0
0.506,0.257,-2.336,0
0.277,0.222,-1.917,0
-0.066,0.05,-1.694,0
-0.448,-0.271,-1.679,0
-0.546,-0.331,-1.752,0
-0.409,-0.192,-1.736,0
-0.175,-0.045,-1.605,0
0.171,0.169,-1.528,0
0.265,0.262,-1.452,0
0.248,0.253,-1.45,0
0.428,0.112,-0.806,0
0.249,-0.118,-0.269,0
0.096,-0.331,0.294,0
-0.341,-0.63,0.978,0
-0.515,-0.674,1.194,0
-0.5,-0.271,0.834,0
-0.48,0.099,0.106,0
-0.378,0.45,-0.754,0
-0.234,0.755,-0.752,0
0.191,1.068,-0.076,0
0.426,1.232,0.938,0
-0.046,0.764,2.601,0
-0.441,0.263,3.098,0
-1.306,-0.085,3.278,0
-1.805,-0.019,2.931,0
-1.537,0.438,0.92,0
-1.152,0.851,-0.135,0
0.05,1.205,-0.885,1
0.905,1.772,-1.075,1
1.082,1.839,0.619,1
1.004,0.974,2.823,1
0.888,-0.231,4.88,1
0.322,-0.942,5.777,1
-0.278,-1.74,5.732,1
-0.595,-1.976,4.389,1
-0.776,-1.748,1.589,1
-0.767,-1.326,-0.43,1
-0.25,-0.782,-2.446,1
0.095,-0.337,-3.558,1
-0.005,-0.016,-3.876,1
0.012,-0.093,-3.124,1
-0.155,-0.347,-1.236,1
-0.333,-0.564,0.17,1
-0.372,-0.959,1.38,1
-0.478,-1.275,1.633,1
-0.505,-1.267,1.342,1
-0.48,-1.249,0.992,1
-0.171,-0.984,0.333,1
-0.032,-0.689,-0.391,0
-0.027,-0.453,-1.442,0
-0.057,-0.412,-2.142,0
-0.375,-0.443,-2.579,0
-0.527,-0.425,-2.594,0
-0.557,-0.32,-2.361,0
-0.579,-0.232,-2.148,0
-0.567,-0.096,-1.961,0
-0.573,0.022,-1.864,0
-0.259,0.323,-1.604,0
-0.073,0.49,-1.506,0
0.044,0.639,-1.35,0
0.045,0.639,-1.205,0
-0.013,0.459,-0.848,0
-0.069,0.347,-0.643,0
-0.188,0.43,-0.433,0
-0.2,0.463,-0.229,0
-0.249,0.468,-0.232,0
-0.325,0.532,-0.303,0
-0.519,0.601,0.342,0
-0.598,0.641,1.041,0
-0.996,0.422,1.514,0
-1.415,0.22,1.418,0
-1.289,0.129,0.989,0
-0.819,0.156,0.99,0
-0.385,0.342,1.575,0
-0.202,0.395,2.217,0
-0.09,0.501,2.505,0
-0.121,0.755,2.181,0
-0.574,1.32,0.916,0
-0.54,1.395,0.214,0
0.095,1.327,-0.265,1
0.369,1.347,0.346,1
0.249,1.019,2.613,1
-0.165,0.386,4.418,1
-0.654,-0.272,5.397,1
-0.854,-0.672,5.777,1
-0.516,-0.92,5.41,1
-0.342,-0.98,5.255,1
-0.366,-1.212,5.069,1
-0.494,-1.292,4.368,1
-0.511,-1.183,2.486,1
-0.455,-1.049,0.575,1
-0.311,-0.922,-1.41,1
-0.059,-0.826,-2.569,1
0.314,-0.506,-3.212,1
0.475,-0.524,-3.107,1
0.512,-0.729,-2.281,1
0.334,-0.96,-1.642,1
0.098,-1.294,-1.108,1
-0.077,-1.426,-1.19,1
-0.176,-1.45,-1.387,1
-0.127,-1.396,-1.396,0
-0.118,-1.348,-1.413,0
-0.158,-1.298,-1.566,0
-0.25,-1.196,-1.967,0
-0.207,-1.034,-2.383,0
-0.069,-0.74,-3.151,0
0.073,-0.494,-3.488,0
0.251,-0.139,-3.354,0
0.391,0.051,-3.042,0
0.347,0.146,-2.588,0
0.132,0.106,-2.187,0
-0.171,0.032,-1.85,0
-0.289,0.025,-1.763,0
-0.224,0.132,-1.453,0
-0.229,0.166,-1.351,0
0.109,0.343,-1.411,0
0.512,0.667,-1.406,0
0.906,0.865,-1.419,0
1.041,0.933,-1.136,0
0.965,0.795,-0.401,0
0.839,0.655,0.437,0
0.777,0.605,1.086,0
0.375,0.535,1.554,0
-0.309,0.251,1.996,0
-0.465,0.082,1.774,0
-0.468,0.154,1.299,0
-0.271,0.349,1.451,0
-0.014,0.315,1.694,0
0.003,0.198,1.711,0
-0.126,0.221,1.92,0
-0.37,0.486,2.001,0
-0.897,1.02,1.155,1
-0.957,1.249,0.171,1
-0.427,1.447,-0.438,1
0.079,1.516,-0.16,1
0.169,1.152,1.021,1
0.165,0.545,2.299,1
0.444,-0.328,4.01,1
0.397,-0.902,5.089,1
-0.133,-1.839,6.214,1
-0.709,-2.24,6.162,1
-1.542,-2.362,4.233,1
-1.476,-1.978,1.812,1
-1.152,-1.221,-1.087,1
-0.992,-0.937,-2.305,1
-0.402,-0.412,-2.95,1
-0.198,-0.023,-2.817,1
-0.081,0.255,-2.121,1
-0.054,0.087,-1.55,1
-0.198,-0.523,-0.471,1
-0.364,-0.927,0.262,1
-0.544,-1.242,0.664,1
-0.787,-1.478,0.597,0
-0.832,-1.546,0.083,0
-0.609,-1.328,-0.641,0
-0.414,-1.027,-1.719,0
-0.297,-0.853,-2.376,0
-0.177,-0.634,-2.691,0
-0.081,-0.433,-2.608,0
-0.099,-0.173,-2.198,0
-0.186,-0.073,-1.831,0
-0.368,0.05,-1.505,0
-0.529,0.057,-1.368,0
-0.532,0.053,-1.367,0
-0.588,0.107,-1.663,0
-0.754,0.216,-1.86,0
-0.749,0.195,-1.856,0
-0.55,0.205,-1.779,0
-0.456,0.29,-1.64,0
-0.112,0.505,-1.222,0
0.005,0.494,-0.917,0
-0.015,0.49,-0.916,0
-0.096,0.397,0.194,0
-0.284,0.211,0.613,0
-0.455,0.17,0.886,0
-0.59,0.242,1.153,0
-0.7,0.23,1.305,0
-0.771,0.326,1.174,0
-0.587,0.55,1.077,0
-0.074,0.72,1.11,0
0.245,0.697,1.284,0
0.458,1.029,1.805,0
0.35,1.425,1.814,0
-0.035,1.85,0.519,0
-0.014,1.548,-0.197,0
0.254,1.234,-0.089,0
0.594,1.476,0.656,0
0.304,0.92,1.879,1
-0.235,0.079,2.661,1
-0.634,-0.608,2.925,1
-0.564,-0.973,3.492,1
-0.227,-1.567,5.042,1
-0.227,-1.766,6.029,1
-0.403,-1.979,6.473,1
-0.565,-1.795,5.564,1
-0.506,-1.719,2.769,1
-0.258,-1.373,0.79,1
-0.122,-1.102,-0.555,1
0.441,-0.837,-1.135,1
0.977,-0.419,-1.618,1
1.294,-0.256,-1.842,1
1.572,-0.34,-1.763,1
1.538,-0.516,-1.488,1
1.199,-0.835,-0.614,1
0.972,-0.98,-0.043,1
0.695,-1.065,0.106,1
0.525,-1.054,-0.133,1
0.467,-0.954,-0.658,1
0.496,-0.79,-1.283,0
0.418,-0.495,-1.955,0
0.316,-0.461,-2.23,0
0.335,-0.482,-2.638,0
0.485,-0.249,-2.924,0
0.851,0.004,-3.247,0
0.971,0.092,-3.115,0
0.835,0.199,-2.28,0
0.731,0.114,-1.577,0
0.406,-0.019,-1.152,0
0.056,-0.084,-1.242,0
-0.314,-0.247,-1.626,0
-0.335,-0.238,-1.723,0
0.058,0.243,-1.622,0
0.322,0.55,-1.561,0
0.34,0.542,-1.558,0
0.522,0.688,-0.791,0
0.467,0.578,-0.112,0
0.542,0.632,0.138,0
0.413,0.681,0.381,0
0.156,0.673,0.462,0
-0.173,0.448,0.224,0
-0.212,0.514,0.124,0
0.005,0.847,0.153,0
0.178,0.847,0.217,0
0.192,0.638,0.746,0
0.224,0.504,1.386,0
0.267,0.405,1.873,0
0.138,0.267,2.201,0
-0.116,0.267,2.663,0
-0.573,0.479,2.671,0
-0.984,0.918,0.703,0
-0.976,1.075,-0.76,0
-0.95,0.904,-1.165,1
-0.434,0.751,-0.306,1
-0.21,0.456,1.954,1
-0.397,0.004,3.798,1
-0.392,-0.558,4.873,1
-0.595,-1.284,5.187,1
-0.447,-1.666,4.872,1
-0.206,-1.27,3.724,1
-0.102,-0.587,1.929,1
0.059,-0.271,0.554,1
0.361,0.006,-0.945,1
0.369,0.208,-1.947,1
0.217,0.292,-2.49,1
0.107,0.157,-2.337,1
-0.097,-0.381,-1.424,1
-0.151,-0.726,-0.723,1
-0.172,-1.181,0.005,1
-0.274,-1.438,0.234,1
-0.402,-1.615,0.402,1
-0.378,-1.566,0.278,1
-0.134,-1.228,-0.267,1
-0.047,-0.981,-0.806,0
-0.028,-0.662,-1.413,0
-0.107,-0.54,-1.796,0
-0.31,-0.45,-2.066,0
-0.437,-0.391,-2.133,0
-0.47,-0.385,-2.176,0
-0.461,-0.294,-2.141,0
-0.401,-0.132,-2.239,0
-0.325,-0.04,-2.282,0
-0.106,0.153,-2.208,0
-0.005,0.276,-2.132,0
-0.022,0.3,-2.053,0
0.028,0.313,-2.037,0
-0.062,0.252,-1.885,0
-0.149,0.187,-1.687,0
-0.359,0.011,-1.449,0
-0.414,-0.054,-1.206,0
-0.386,-0.139,-0.819,0
-0.405,-0.181,-0.426,0
-0.11,-0.109,0.486,0
-0.077,-0.026,0.938,0
-0.401,0.141,1.418,0
-0.509,0.128,1.701,0
-0.686,0.14,1.861,0
-0.634,0.319,1.75,0
-0.323,0.32,1.377,0
0.015,0.357,1.287,0
0.423,0.37,1.415,0
0.62,0.312,1.462,0
0.236,0.169,1.486,0
-0.311,0.413,1.285,0
-0.313,0.381,1.295,0
-0.361,0.899,-0.172,0
0.439,1.091,0.095,1
1.045,1.287,0.864,1
1.025,1.299,2.605,1
0.403,0.748,3.437,1
-0.347,-0.065,3.192,1
-0.979,-0.635,2.785,1
-1.221,-1.15,2.84,1
-1.314,-1.158,3.028,1
-1.518,-1.113,2.941,1
-1.315,-1,2.482,1
-1.077,-0.758,1.644,1
-0.802,-0.566,0.832,1
-0.422,-0.36,0.106,1
-0.224,-0.387,-0.104,1
-0.027,-0.726,0.125,1
0.181,-0.853,0.379,1
-0.175,-1.2,0.553,1
-0.233,-1.406,0.583,1
-0.292,-1.559,0.17,1
-0.172,-1.421,-0.36,1
0.209,-0.916,-1.295,1
0.306,-0.725,-1.877,0
0.423,-0.57,-2.413,0
0.579,-0.255,-2.832,0
0.586,-0.277,-2.826,0
0.664,0.273,-3.142,0
0.602,0.411,-2.839,0
0.436,0.398,-2.585,0
0.282,0.37,-2.089,0
0.246,0.35,-1.899,0
0.206,0.326,-1.721,0
0.24,0.355,-1.631,0
0.292,0.369,-1.658,0
0.301,0.289,-1.606,0
0.263,0.211,-1.104,0
0.303,0.138,-0.849,0
0.398,0.119,-0.674,0
0.459,0.189,-0.561,0
0.599,0.256,-0.41,0
0.638,0.244,-0.337,0
0.561,0.314,-0.074,0
0.476,0.344,0.152,0
0.255,0.317,0.229,0
-0.001,0.266,0.255,0
-0.247,0.229,0.358,0
-0.295,0.182,0.488,0
-0.297,0.179,0.892,0
-0.289,0.149,1.188,0
-0.078,0.306,1.709,0
0.337,0.476,2.039,0
0.717,0.579,1.979,0
0.489,0.638,1.795,0
0.493,0.606,1.806,0
-0.196,1.194,-0.176,0
-0.184,1.166,-0.166,1
0.801,1.689,-0.829,1
0.791,1.58,0.785,1
0.567,1.259,2.575,1
0.354,0.463,4.06,1
-0.053,-0.353,4.776,1
-0.362,-1.56,5.33,1
-0.458,-2.053,5.486,1
-0.409,-1.988,4.214,1
-0.417,-1.568,2.2,1
-0.523,-1.258,-0.442,1
-0.722,-1.26,-1.711,1
-0.472,-1.038,-2.822,1
-0.498,-0.771,-3.008,1
-0.39,-0.479,-2.286,1
-0.359,-0.575,-1.594,1
-0.402,-1.026,-0.436,1
-0.366,-1.251,0.156,1
-0.414,-1.547,0.614,1
-0.489,-1.709,0.794,1
-0.427,-1.662,0.692,1
-0.25,-1.424,0.188,0
0.022,-0.987,-0.716,0
0.126,-0.646,-1.507,0
0.205,-0.33,-2.248,0
0.286,-0.165,-2.498,0
0.441,0.119,-2.813,0
0.401,0.258,-2.828,0
0.344,0.3,-2.722,0
0.332,0.306,-2.601,0
0.146,0.329,-2.322,0
-0.003,0.313,-2.087,0
-0.17,0.321,-1.851,0
-0.153,0.421,-1.687,0
0.131,0.648,-1.44,0
0.167,0.698,-1.393,0
-0.012,0.613,-0.927,0
-0.146,0.447,-0.312,0
-0.167,0.46,-0.315,0
-0.12,0.48,0.606,0
-0.128,0.481,0.939,0
-0.165,0.333,1.158,0
-0.106,0.337,1.254,0
-0.019,0.386,1.215,0
0.07,0.539,0.91,0
0.096,0.673,0.553,0
0.093,0.65,0.56,0
0.07,0.706,0.588,0
0.069,0.689,0.593,0
0.143,0.687,1.53,0
-0.627,1.067,1.314,0
-1.041,1.323,0.685,0
-0.612,1.124,-0.009,0
0.043,1.152,0.12,0
0.528,1.423,0.695,1
0.807,1.1,1.911,1
0.628,0.029,3.837,1
0.141,-0.589,4.82,1
-0.492,-1.235,5.44,1
-0.758,-1.703,5.519,1
-0.98,-2.076,5.163,1
-1.186,-1.968,4.361,1
-0.997,-1.533,2.538,1
-0.617,-1.193,1.112,1
-0.307,-0.863,0.083,1
-0.004,-0.767,-0.351,1
0.21,-0.732,-0.41,1
0.149,-0.785,-0.301,1
0.195,-0.956,-0.171,1
0.233,-1.033,-0.172,1
0.168,-1.103,-0.332,1
0.107,-1.12,-0.598,1
-0.053,-1.115,-0.967,1
-0.133,-1.026,-1.047,1
-0.11,-0.886,-1.21,1
-0.065,-0.716,-1.581,0
-0.11,-0.456,-2.175,0
0.028,-0.285,-2.429,0
0.252,-0.076,-2.647,0
0.167,0.027,-2.635,0
-0.065,0.033,-2.669,0
-0.124,0.039,-2.688,0
-0.158,-0.002,-2.81,0
-0.269,-0.036,-2.818,0
-0.358,-0.052,-2.236,0
-0.358,-0.072,-1.698,0
-0.229,0.012,-1.276,0
-0.195,0.141,-1.091,0
0.03,0.374,-0.886,0
0.023,0.363,-0.807,0
-0.193,0.193,-0.741,0
-0.21,0.177,-0.735,0
-0.438,0.005,-0.067,0
-0.46,-0.067,0.359,0
-0.495,-0.082,0.519,0
-0.594,-0.041,0.437,0
-0.598,-0.011,0.279,0
-0.421,0.159,0.345,0
-0.125,0.352,0.385,0
-0.05,0.381,0.45,0
-0.031,0.355,0.458,0
0.372,0.545,0.856,0
0.398,0.493,1.613,0
0.58,0.4,2.328,0
0.304,0.455,2.652,0
-0.193,0.74,2.058,0
-0.664,1.054,0.097,0
-0.575,1.128,-0.889,0
-0.219,1.208,-1.145,1
0.213,1.229,-0.789,1
0.445,1.135,0.457,1
0.265,0.695,1.739,1
0.239,-0.299,3.178,1
0.459,-0.855,3.933,1
-0.123,-1.793,4.849,1
-0.431,-2.053,4.74,1
-0.909,-1.913,2.806,1
-0.957,-1.577,0.858,1
-0.818,-1.038,-0.719,1
-0.514,-0.584,-1.711,1
-0.369,0.135,-2.428,1
-0.207,0.502,-2.561,1
0.034,0.691,-2.201,1
0.112,0.576,-1.541,1
0.091,-0.032,-0.026,1
0.048,-0.464,0.919,1
-0.082,-0.72,1.192,1
-0.401,-0.951,0.933,1
-0.53,-1.134,0.759,1
-0.39,-1.052,0.68,0
-0.313,-0.817,0.088,0
-0.079,-0.521,-0.7,0
0.057,-0.152,-1.657,0
-0.009,-0.042,-1.831,0
-0.095,0.008,-2.04,0
-0.141,0.071,-2.419,0
-0.272,0.123,-2.594,0
-0.288,0.109,-2.224,0
-0.252,0.146,-1.883,0
-0.336,0.093,-1.922,0
-0.178,0.112,-2.273,0
0.037,0.236,-2.239,0
0.027,0.243,-1.545,0
0.003,0.199,-1.041,0
-0.003,0.268,-0.57,0
-0.08,0.356,-0.267,0
-0.232,0.343,0.026,0
-0.192,0.28,0.114,0
-0.444,0.201,0.496,0
-0.634,0.057,0.861,0
-0.941,-0.277,0.959,0
-1.081,-0.331,0.859,0
-1.166,-0.224,0.792,0
-0.877,0.005,0.911,0
-0.409,0.257,1.056,0
-0.311,0.312,1.11,0
-0.07,0.529,1.513,0
0.315,0.725,1.453,0
0.301,0.687,1.465,0
-0.383,1.244,0.371,0
-0.221,1.228,-0.396,0
0.275,1.158,-0.464,0
0.507,1.211,0.116,1
0.611,1.063,1.06,1
0.588,0.346,2.536,1
0.132,-0.315,3.331,1
-0.437,-0.656,3.613,1
-0.45,-0.778,3.51,1
-0.015,-0.978,3.315,1
0.252,-0.801,3.233,1
0.208,-0.418,3.09,1
-0.06,-0.371,2.721,1
-0.241,-0.527,1.916,1
-0.278,-0.621,1.191,1
-0.16,-0.568,0.599,1
-0.037,-0.579,0.209,1
0.095,-0.63,-0.334,1
0.243,-0.668,-0.614,1
0.35,-0.844,-0.875,1
0.405,-0.871,-0.872,1
0.391,-0.92,-0.625,1
0.319,-0.949,-0.45,1
0.262,-0.93,-0.759,1
0.169,-0.857,-1.288,0
0.024,-0.724,-1.897,0
-0.081,-0.625,-2.272,0
-0.076,-0.419,-2.688,0
-0.077,-0.298,-2.744,0
-0.167,-0.192,-2.639,0
-0.087,-0.068,-2.577,0
-0.078,0.129,-2.449,0
-0.058,0.232,-2.479,0
0.12,0.438,-2.673,0
0.24,0.582,-2.689,0
0.186,0.648,-2.496,0
0.088,0.513,-2.311,0
-0.08,0.235,-1.801,0
-0.157,0.125,-1.428,0
0.019,0.184,-1.015,0
0.225,0.286,-0.708,0
0.323,0.33,-0.122,0
0.241,0.256,0.319,0
0.005,0.057,0.681,0
-0.153,-0.07,0.715,0
-0.244,-0.124,1.061,0
-0.21,0,1.129,0
-0.186,0.186,0.923,0
-0.125,0.423,0.608,0
-0.118,0.388,0.618,0
0.256,0.847,0.692,0
0.249,0.71,0.981,0
0.269,0.721,1.282,0
0.243,0.72,1.47,0
-0.152,0.925,1.476,0
-0.563,1.543,0.47,0
-0.283,1.771,-0.297,0
0.115,1.826,-0.125,1
0.289,1.787,0.817,1
0.208,1.387,2.622,1
0.394,0.693,3.67,1
0.482,-0.216,5.284,1
0.309,-0.963,6.55,1
0.166,-1.882,7.603,1
-0.428,-2.089,7.313,1
-0.546,-1.662,4.29,1
-0.517,-1.114,1.278,1
-0.537,-0.587,-1.325,1
-0.202,-0.276,-3.03,1
-0.24,0.05,-3.844,1
-0.286,0.243,-3.422,1
-0.223,0.183,-2.068,1
-0.352,-0.121,-1.288,1
-0.302,-0.728,-0.408,1
-0.241,-1.017,-0.073,1
-0.216,-1.269,0.3,1
-0.156,-1.311,0.009,1
-0.089,-1.234,-0.739,1
-0.103,-1.06,-1.391,0
-0.087,-0.931,-2.255,0
-0.199,-0.837,-2.604,0
-0.438,-0.789,-3.1,0
-0.648,-0.838,-2.986,0
-0.65,-0.88,-2.503,0
-0.726,-0.797,-1.936,0
-0.739,-0.797,-1.936,0
-0.624,-0.47,-1.691,0
-0.607,-0.206,-1.682,0
-0.45,-0.013,-1.833,0
-0.419,0.216,-1.892,0
-0.4,0.217,-1.828,0
-0.352,0.354,-1.748,0
-0.556,0.197,-1.131,0
-0.566,0.207,-1.134,0
-0.893,-0.106,0.354,0
-0.97,-0.077,0.655,0
-0.668,0.039,0.904,0
-0.198,0.288,1.051,0
0.134,0.479,1.12,0
0.176,0.702,1.365,0
0.042,0.743,1.341,0
-0.195,0.639,1.193,0
-0.374,0.418,1.158,0
-0.421,0.344,1.275,0
-0.23,0.411,1.344,0
0.007,0.475,1.552,0
-0.064,0.479,1.652,0
-0.538,0.789,1.222,0
-0.751,1.122,0.813,0
-0.724,1.104,0.817,1
0.274,1.2,-0.309,1
0.881,1.467,0.014,1
1.247,1.265,1.065,1
0.963,0.255,2.813,1
0.234,-0.483,3.5,1
-0.535,-0.965,3.406,1
-0.746,-1.206,3.075,1
-0.423,-1.276,2.724,1
-0.183,-0.922,2.303,1
0.026,-0.518,1.338,1
0.089,-0.42,0.565,1
-0.015,-0.479,0.054,1
-0.096,-0.566,-0.044,1
-0.127,-0.711,-0.22,1
-0.254,-0.852,-0.444,1
-0.228,-0.829,-0.45,1
-0.035,-0.984,-0.545,1
0.25,-0.909,-0.83,1
0.441,-0.812,-1.123,1
0.73,-0.643,-1.418,1
0.751,-0.619,-1.424,0
0.452,-0.86,-0.951,0
0.209,-1.003,-0.419,0
0.052,-0.968,0.057,0
-0.024,-0.809,-0.085,0
-0.075,-0.513,-1.046,0
0.009,-0.242,-1.742,0
0.152,0.195,-2.376,0
0.24,0.302,-2.567,0
0.518,0.343,-2.536,0
0.406,0.481,-2.198,0
0.275,0.485,-1.828,0
0.208,0.459,-1.333,0
0.087,0.475,-0.754,0
-0.082,0.384,-0.605,0
-0.406,0.278,-0.667,0
-0.353,0.362,-0.87,0
-0.353,0.341,-0.865,0
0.026,0.701,-1.093,0
0.161,0.622,-0.859,0
0.199,0.542,-0.4,0
0.191,0.52,-0.393,0
0.322,0.571,0.471,0
0.24,0.597,0.699,0
0.176,0.501,0.864,0
-0.063,0.397,1.111,0
-0.138,0.372,1.174,0
-0.221,0.418,1.312,0
-0.325,0.352,1.321,0
-0.185,0.407,1.54,0
-0.082,0.478,1.747,0
-0.082,0.432,1.762,0
-0.983,1.19,0.601,0
-0.59,1.255,-1.37,0
-0.234,1.401,-1.937,1
0.153,1.609,-1.605,1
0.269,1.667,-0.213,1
0.241,1.158,2.243,1
0.467,0.548,3.737,1
0.39,-0.145,4.841,1
0.096,-0.832,4.971,1
-0.458,-1.647,3.831,1
-0.932,-1.884,2.141,1
-1.22,-1.723,0.429,1
-1.079,-1.365,-0.475,1
-1.061,-1.036,-0.999,1
-0.973,-0.736,-0.914,1
-0.822,-0.571,-0.587,1
-0.727,-0.506,-0.466,1
-0.765,-0.835,-0.043,1
-0.668,-1.108,0.382,1
-0.693,-1.533,0.944,1
-0.865,-1.77,0.926,1
-0.868,-1.916,0.648,1
-0.744,-1.829,0.338,1
-0.423,-1.493,-0.419,0
-0.222,-1.149,-1.218,0
-0.037,-0.762,-2.219,0
0.099,-0.6,-2.662,0
0.345,-0.447,-2.515,0
0.412,-0.348,-2.269,0
0.229,-0.336,-1.812,0
-0.051,-0.57,-1.642,0
-0.301,-0.692,-1.825,0
-0.442,-0.581,-2.139,0
-0.347,-0.394,-2.236,0
-0.173,-0.262,-1.955,0
-0.163,-0.133,-1.318,0
-0.129,-0.044,-0.917,0
-0.104,0.021,-0.192,0
-0.195,0.117,0.165,0
-0.334,0.223,0.187,0
-0.456,0.258,-0.086,0
-0.473,0.411,-0.547,0
-0.35,0.659,-0.687,0
-0.32,0.768,-0.337,0
-0.258,0.822,0.155,0
-0.234,0.927,0.679,0
-0.259,0.928,0.817,0
-0.248,0.922,1.301,0
-0.224,0.813,1.775,0
-0.137,0.647,2.227,0
-0.129,0.633,2.237,0
-0.223,0.609,1.866,0
-0.528,0.81,1.401,0
-0.868,1.185,0.197,0
-0.551,1.244,-0.517,0
0.414,1.57,-0.778,0
0.825,1.825,-0.421,0
1.003,1.644,0.764,1
0.733,0.878,1.869,1
-0.112,-0.084,2.746,1
-0.781,-0.58,2.844,1
-1.267,-1.322,2.912,1
-1.443,-1.795,2.934,1
-1.516,-1.832,2.764,1
-1.269,-1.464,2.188,1
-0.767,-1.054,1.375,1
-0.473,-0.788,0.704,1
-0.393,-0.625,0.411,1
-0.455,-0.698,0.688,1
-0.442,-0.869,0.946,1
-0.303,-0.954,0.846,1
-0.295,-0.929,0.84,1
-0.025,-1.234,0.227,1
0.105,-1.103,-0.646,1
0.277,-0.941,-1.221,1
0.569,-0.706,-1.843,1
0.641,-0.606,-2.063,1
0.738,-0.307,-1.96,1
0.813,-0.006,-1.776,0
0.907,0.226,-1.777,0
0.863,0.359,-1.76,0
0.681,0.477,-1.478,0
0.53,0.486,-1.374,0
0.294,0.522,-1.492,0
0.159,0.638,-1.655,0
0.166,0.628,-1.653,0
-0.045,0.625,-1.88,0
-0.118,0.669,-1.846,0
-0.1,0.661,-1.695,0
0.064,0.715,-1.372,0
0.148,0.749,-1.178,0
0.139,0.735,-1.174,0
0.602,0.676,-0.242,0
0.587,0.68,0.475,0
0.481,0.559,0.9,0
0.333,0.44,0.934,0
0.129,0.241,0.673,0
-0.086,0.205,0.601,0
-0.036,0.22,0.575,0
0.01,0.255,0.734,0
0.009,0.263,1.138,0
-0.099,0.178,1.409,0
-0.221,0.103,1.548,0
-0.204,0.194,1.954,0
-0.185,0.292,2.04,0
-0.641,0.601,1.338,0
-1.123,0.95,-0.039,0
-1.035,1.252,-1.982,0
-0.32,1.455,-2.368,0
0.777,1.812,-1.523,0
1.094,1.836,0.403,0
1.509,0.911,2.955,1
1.71,-0.099,4.608,1
0.913,-1.232,6.764,1
0.181,-2.288,8.449,1
-0.369,-2.949,8.512,1
-1.327,-2.938,7.011,1
-1.739,-2.54,2.594,1
-1.708,-1.966,-0.144,1
-1.089,-0.974,-2.943,1
-0.56,-0.47,-4.186,1
0.068,0.352,-4.714,1
0.229,0.774,-4.214,1
0.095,0.643,-2.742,1
-0.091,0.02,-1.387,1
-0.259,-0.81,-0.238,1
-0.476,-1.073,0.16,1
-0.415,-1.276,0.524,1
-0.097,-1.238,0.458,1
0.11,-0.872,-0.112,1
0.138,-0.658,-0.873,1
-0.071,-0.607,-1.639,1
-0.289,-0.626,-1.897,0
-0.365,-0.518,-1.985,0
-0.357,-0.35,-1.908,0
-0.156,-0.115,-2.088,0
-0.013,0.11,-2.118,0
0.08,0.27,-2.121,0
0.109,0.364,-2.166,0
0.038,0.484,-2.248,0
-0.006,0.607,-2.066,0
0.078,0.59,-1.61,0
-0.099,0.423,-1.325,0
-0.441,0.117,-0.969,0
-0.557,-0.017,-0.825,0
-0.772,-0.138,-0.573,0
-0.786,-0.068,-0.369,0
-0.683,0.155,-0.187,0
-0.687,0.305,-0.078,0
-0.609,0.364,0.025,0
-0.593,0.41,0.237,0
-0.719,0.5,0.739,0
-0.774,0.459,0.844,0
-0.839,0.336,0.793,0
-0.806,0.281,0.658,0
-0.564,0.24,0.459,0
-0.274,0.263,0.412,0
0.002,0.466,0.925,0
-0.014,0.444,0.932,0
-0.266,1.338,1.834,0
-0.623,1.768,0.916,0
-0.16,1.797,-0.501,0
0.309,1.74,-0.59,0
0.652,1.635,0.475,1
0.605,1.075,1.949,1
0.28,-0.12,3.76,1
-0.397,-0.631,4.38,1
-0.997,-1.186,4.364,1
-0.953,-1.55,4.095,1
-0.684,-1.362,3.253,1
-0.582,-0.827,2.312,1
-0.377,-0.34,0.697,1
-0.333,-0.2,-0.375,1
-0.259,-0.11,-1.224,1
-0.425,-0.201,-1.156,1
-0.514,-0.477,-0.623,1
-0.51,-0.778,-0.002,1
-0.602,-1.214,0.448,1
-0.568,-1.338,0.457,1
-0.36,-1.257,0.026,1
-0.09,-1.184,-0.258,1
0.301,-0.96,-0.196,1
0.356,-0.784,-0.01,1
0.128,-0.758,-0.118,1
-0.004,-0.639,-0.591,0
0.023,-0.438,-1.614,0
0.043,-0.261,-2.282,0
0.23,-0.023,-2.649,0
0.391,0.234,-2.826,0
0.382,0.461,-3.123,0
0.417,0.47,-3.428,0
0.411,0.568,-3.282,0
0.303,0.59,-2.677,0
0.258,0.583,-1.61,0
0.161,0.471,-1.103,0
-0.155,0.376,-0.796,0
-0.338,0.234,-0.746,0
-0.36,0.213,-0.538,0
-0.364,0.294,-0.359,0
-0.361,0.306,-0.149,0
-0.255,0.295,-0.258,0
-0.12,0.371,-0.463,0
-0.103,0.397,-0.605,0
-0.105,0.376,-0.599,0
-0.176,0.486,-0.71,0
-0.043,0.533,-0.4,0
0.081,0.635,0.091,0
0.143,0.667,0.682,0
-0.268,0.364,1.513,0
-0.221,0.29,2.024,0
-0.23,0.276,2.338,0
-0.149,0.181,2.369,0
-0.111,0.262,2.144,0
-0.577,0.756,1.522,0
-1.047,1.086,0.448,0
-1.039,1.051,0.459,1
-0.29,1.557,-1.941,1
0.77,1.761,-1.299,1
0.931,1.459,0.594,1
0.803,0.249,3.409,1
0.242,-0.703,5.419,1
-0.52,-1.664,6.945,1
-0.906,-2.374,7.345,1
-1.014,-2.303,5.708,1
-0.983,-1.783,3.293,1
-0.887,-1.002,0.094,1
-0.356,-0.421,-1.908,1
0.11,0.322,-3.654,1
0.446,0.699,-4.253,1
0.601,0.854,-3.534,1
0.335,0.625,-2.335,1
0.132,0.199,-0.96,1
0.029,-0.263,-0.657,1
-0.285,-0.856,-0.77,1
-0.43,-1.119,-0.594,1
-0.533,-1.402,0.192,1
-0.706,-1.47,0.599,0
-0.825,-1.334,0.519,0
-0.644,-1.065,0.041,0
-0.444,-0.725,-0.79,0
-0.479,-0.596,-1.397,0
-0.466,-0.589,-1.399,0
-0.497,-0.39,-1.927,0
-0.468,-0.298,-2.056,0
-0.494,-0.219,-2.031,0
-0.337,-0.034,-2.045,0
-0.184,0.249,-1.811,0
-0.195,0.248,-1.811,0
-0.14,0.492,-1.217,0
-0.144,0.5,-1.219,0
-0.728,0.235,-0.088,0
-0.808,0.106,0.564,0
-0.926,0.09,0.732,0
-0.937,0.166,0.771,0
-0.745,0.253,0.564,0
-0.648,0.523,0.32,0
-0.625,0.625,0.254,0
-0.61,0.6,0.554,0
-0.715,0.558,1.068,0
-0.858,0.421,1.597,0
-1.009,0.201,1.858,0
-1.198,-0.049,1.931,0
-0.94,-0.065,1.765,0
-0.647,-0.018,1.43,0
-0.578,0.115,1.358,0
-0.584,0.39,1.087,0
-0.732,0.77,0.404,0
-0.486,1.232,-0.48,0
0.133,1.508,-0.837,0
0.121,1.479,-0.828,1
0.669,1.555,0.264,1
0.027,0.719,1.829,1
-0.647,0.043,2.547,1
-1.185,-0.467,2.592,1
-1.146,-0.72,2.472,1
-0.83,-0.878,2.685,1
-0.741,-0.855,2.93,1
-0.743,-0.881,2.574,1
-0.685,-0.923,1.619,1
-0.33,-0.827,0.011,1
-0.133,-0.706,-0.677,1
0.036,-0.678,-0.719,1
0.121,-0.673,-0.578,1
0.159,-0.83,-0.49,1
0.158,-0.932,-0.584,1
0.163,-1.044,-0.809,1
0.138,-1.149,-0.871,1
0.125,-1.24,-0.96,1
0.184,-1.202,-1.024,1
0.255,-1.115,-1.067,1
0.276,-0.951,-1.048,0
0.178,-0.751,-0.966,0
0.026,-0.602,-1.019,0
-0.129,-0.382,-1.541,0
-0.193,-0.309,-1.91,0
-0.268,-0.177,-2.261,0
-0.353,-0.063,-2.176,0
-0.295,0.087,-1.979,0
-0.117,0.131,-2.077,0
-0.126,0.132,-2.077,0
-0.178,0.356,-1.233,0
-0.184,0.368,-1.236,0
-0.299,0.301,-0.89,0
-0.518,0.217,-0.477,0
-0.607,0.18,-0.08,0
-0.563,0.191,0.041,0
-0.378,0.284,-0.105,0
-0.163,0.433,-0.154,0
-0.096,0.506,0.09,0
0.144,0.581,0.161,0
0.148,0.688,0.246,0
-0.114,0.797,0.559,0
0,0.856,0.484,0
-0.007,0.896,0.431,0
-0.262,0.908,0.947,0
-0.193,0.731,1.451,0
-0.194,0.561,1.691,0
-0.205,0.412,2.211,0
0.045,0.362,2.474,0
0.008,0.4,2.333,0
-0.367,0.522,1.531,0
-0.628,0.952,-0.179,1
-0.399,1.438,-1.229,1
0.176,1.832,-1.758,1
0.403,1.717,-1.537,1
0.189,1.127,0.267,1
0.172,0.288,2.097,1
-0.116,-0.774,4.363,1
-0.413,-1.353,5.396,1
-0.78,-2.161,5.612,1
-0.828,-2.296,4.691,1
-0.603,-1.844,1.894,1
-0.385,-1.254,-0.308,1
-0.241,-0.687,-1.847,1
-0.172,-0.48,-2.136,1
-0.38,-0.249,-1.607,1
-0.747,-0.339,-0.816,1
-1.088,-0.595,-0.101,1
-1.172,-0.695,0.038,1
-1.139,-0.884,-0.236,1
-0.92,-0.95,-0.315,1
-0.247,-0.72,0.032,1
0.085,-0.492,0.164,0
0.223,-0.389,-0.054,0
0.069,-0.418,-0.532,0
-0.267,-0.514,-1.361,0
-0.35,-0.506,-1.766,0
-0.263,-0.398,-1.949,0
-0.107,-0.292,-1.908,0
0.115,-0.169,-1.807,0
0.133,-0.123,-1.764,0
0.121,-0.062,-2.006,0
0.167,0.003,-2.239,0
0.091,0.098,-2.404,0
0.06,0.209,-2.24,0
0.061,0.209,-2.241,0
0.036,0.572,-1.599,0
-0.045,0.704,-1.259,0
-0.166,0.783,-0.994,0
-0.284,0.85,-0.533,0
-0.414,0.802,-0.188,0
-0.823,0.667,0.104,0
-1.012,0.599,0.376,0
-1.136,0.572,0.695,0
-1.129,0.643,0.7,0
-0.918,0.806,0.403,0
-0.804,0.835,0.229,0
-0.52,0.86,0.463,0
-0.359,0.729,0.857,0
-0.435,0.458,1.653,0
-0.412,0.279,1.915,0
-0.292,0.348,1.893,0
-0.325,0.695,1.595,0
-0.325,0.668,1.602,0
-0.545,1.542,-0.259,0
0.157,1.428,-0.579,0
0.532,1.309,-0.104,0
0.818,1.007,1.385,1
0.771,0.508,2.893,1
0.44,-0.228,4.099,1
0.059,-0.666,4.469,1
-0.426,-1.236,4.93,1
-0.727,-1.636,5.5,1
-0.961,-1.735,5.605,1
-1.057,-1.641,4.907,1
-0.769,-1.325,2.543,1
-0.595,-0.886,0.846,1
0.015,-0.495,-0.983,1
0.434,-0.206,-1.925,1
0.678,0.095,-2.862,1
0.725,0.16,-3.024,1
0.666,0.015,-2.367,1
0.395,-0.238,-1.214,1
0.241,-0.531,-0.066,1
0.147,-0.642,0.268,1
-0.164,-0.892,0.224,1
-0.204,-0.983,0.083,1
-0.148,-0.876,-0.31,1
0.007,-0.644,-0.721,0
0.228,-0.299,-1.395,0
0.396,-0.053,-1.938,0
0.398,0.129,-2.336,0
0.392,0.153,-2.364,0
0.343,0.108,-2.261,0
0.258,0.058,-1.767,0
0.085,-0.018,-1.234,0
0.035,-0.035,-1.342,0
0.039,-0.058,-1.335,0
0.186,0.116,-2.079,0
0.235,0.336,-2.21,0
0.509,0.509,-2.196,0
0.547,0.542,-2.116,0
0.354,0.489,-1.968,0
0.175,0.051,-1.844,0
0.041,-0.051,-1.259,0
0.224,0.05,-0.363,0
0.341,0.106,0.273,0
0.386,0.074,0.568,0
0.219,0.015,0.155,0
0.048,0.068,-0.471,0
0.3,0.365,-0.512,0
0.316,0.344,-0.505,0
0.809,0.801,1.159,0
0.61,0.754,1.809,0
0.586,0.568,1.935,0
0.589,0.542,1.943,0
0.476,0.239,1.625,0
0.391,0.393,1.477,0
-0.137,0.778,1.096,0
-0.673,1.301,0.019,0
-0.775,1.527,-0.855,0
-0.324,1.711,-1.056,1
0.114,1.725,-0.61,1
0.507,1.347,0.755,1
1.053,0.64,2.59,1
1.366,-0.202,4.688,1
0.953,-1.025,6.39,1
0.357,-1.813,7.705,1
-0.322,-1.884,6.882,1
-0.863,-1.53,3.539,1
-0.73,-1.006,0.854,1
-0.786,-0.533,-1.678,1
-0.556,-0.235,-2.432,1
-0.394,0.088,-2.194,1
-0.286,0.149,-1.535,1
-0.297,-0.062,-0.805,1
-0.285,-0.396,-0.482,1
-0.249,-0.859,-0.465,1
-0.13,-1,-0.483,1
0.284,-0.945,-0.653,1
0.332,-0.862,-0.95,1
0.393,-0.619,-1.415,1
0.273,-0.579,-1.681,0
0.052,-0.684,-1.697,0
-0.153,-0.788,-1.457,0
-0.369,-0.815,-1.292,0
-0.54,-0.829,-1.162,0
-0.641,-0.759,-1.214,0
-0.56,-0.646,-1.402,0
-0.434,-0.318,-1.903,0
-0.468,-0.098,-2.093,0
-0.1,0.059,-2.427,0
0.195,0.308,-2.888,0
0.334,0.627,-3.317,0
0.504,0.77,-3.173,0
0.389,0.627,-2.442,0
0.071,0.41,-1.65,0
-0.262,0.137,-0.405,0
-0.325,0.017,0.233,0
-0.607,-0.224,0.506,0
-0.635,-0.267,0.403,0
-0.543,-0.168,0.303,0
-0.398,0.09,0.171,0
-0.172,0.612,-0.191,0
-0.173,0.823,-0.312,0
-0.063,1.017,-0.15,0
-0.049,1.091,0.114,0
-0.138,0.995,1.126,0
-0.195,0.826,1.907,0
-0.266,0.708,2.592,0
-0.296,0.864,2.473,0
-0.524,1.412,1.287,0
-0.453,1.727,0.061,0
0.105,1.623,-0.513,0
0.699,1.484,-0.121,0
0.787,1.179,2.13,1
0.701,0.444,3.883,1
-0.164,-0.408,5.499,1
-0.856,-0.985,5.822,1
-1.322,-1.619,5.53,1
-1.23,-1.738,4.902,1
-0.758,-1.256,3.368,1
-0.514,-0.723,2.195,1
-0.344,-0.141,0.417,1
-0.277,-0.157,-0.407,1
0.066,-0.153,-1.215,1
0.278,-0.15,-1.467,1
0.407,-0.224,-1.203,1
0.361,-0.426,-0.942,1
0.313,-0.692,-0.53,1
0.539,-0.744,-0.365,1
0.838,-0.703,-0.249,1
0.827,-0.637,-0.29,1
0.825,-0.633,-0.291,1
0.444,-0.672,-0.585,1
0.156,-0.716,-1.058,1
0.089,-0.727,-1.455,0
-0.02,-0.588,-1.802,0
-0.09,-0.489,-1.72,0
-0.181,-0.424,-1.41,0
-0.281,-0.355,-1.378,0
-0.288,-0.11,-1.558,0
-0.199,0.002,-1.651,0
-0.163,0.238,-1.809,0
0.047,0.403,-2.013,0
0.27,0.636,-2.296,0
0.42,0.784,-2.301,0
0.409,0.658,-2.059,0
0.346,0.456,-1.69,0
0.173,0.298,-1.06,0
0.069,0.201,-0.618,0
0.125,0.156,-0.182,0
0.156,0.194,-0.188,0
0.184,0.236,-0.337,0
0.285,0.317,-0.477,0
0.302,0.302,-0.472,0
0.437,0.508,-0.599,0
0.22,0.509,-0.17,0
0.031,0.455,0.408,0
-0.219,0.281,1.049,0
-0.314,0.261,1.16,0
-0.388,0.4,1.268,0
-0.229,0.394,1.337,0
-0.042,0.402,1.263,0
0.091,0.415,1.068,0
-0.049,0.578,0.625,0
-0.391,0.887,0.042,0
-0.385,1.165,-1.096,0
0.032,1.312,-1.609,1
0.947,1.42,-1.452,1
1.158,1.287,-0.038,1
1.074,0.472,2.689,1
0.803,-0.185,4.301,1
0.298,-0.929,5.715,1
-0.056,-1.436,5.974,1
-0.328,-2.007,5.147,1
-0.389,-1.919,3.684,1
-0.516,-1.232,0.824,1
-0.577,-0.811,-0.59,1
-0.292,-0.306,-2.469,1
-0.188,0.111,-3.341,1
-0.128,0.624,-3.089,1
-0.057,0.783,-2.03,1
-0.099,0.685,-0.535,1
-0.162,0.387,0.111,1
-0.05,-0.039,0.479,1
-0.095,-0.448,0.931,1
-0.257,-0.825,1.318,1
-0.44,-0.949,1.588,1
-0.917,-1.225,1.326,0
-0.99,-1.168,0.61,0
-0.901,-0.861,-0.48,0
-0.57,-0.435,-1.203,0
-0.245,-0.006,-1.505,0
-0.175,0.109,-1.411,0
-0.37,0.086,-1.395,0
-0.692,-0.012,-1.411,0
-0.959,-0.101,-1.531,0
-0.98,-0.105,-1.672,0
-0.903,0.059,-1.899,0
-0.635,0.238,-1.927,0
-0.117,0.473,-1.855,0
-0.016,0.684,-1.553,0
0.013,0.704,-1.174,0
0.012,0.616,-1.003,0
-0.21,0.51,-0.728,0
-0.364,0.446,-0.522,0
-0.368,0.44,-0.521,0
-0.591,0.305,-0.316,0
-0.628,0.21,-0.044,0
-0.467,0.266,0.189,0
-0.301,0.449,0.696,0
-0.231,0.527,0.896,0
-0.326,0.617,1.118,0
-0.435,0.59,1.239,0
-0.546,0.547,1.48,0
-0.518,0.426,1.731,0
-0.312,0.416,1.742,0
-0.264,0.461,1.475,0
-0.356,0.722,1.014,0
-0.523,1.182,0.402,0
-0.218,1.526,-0.315,0
0.308,1.493,-0.356,0
0.302,1.476,-0.351,1
0.148,0.901,1.769,1
-0.292,-0.216,2.852,1
-0.739,-0.795,3.454,1
-1.462,-1.335,3.583,1
-1.488,-1.534,3.437,1
-0.937,-1.331,2.543,1
-0.754,-0.881,1.629,1
-0.597,-0.129,-0.001,1
-0.526,0.003,-0.676,1
-0.337,-0.04,-1.056,1
-0.176,-0.056,-0.82,1
-0.182,-0.249,-0.028,1
-0.193,-0.506,0.296,1
-0.133,-0.806,0.106,1
-0.165,-0.929,-0.381,1
0.012,-0.909,-0.908,1
0.285,-0.727,-1.036,1
0.464,-0.532,-0.659,1
0.35,-0.618,-0.461,1
0.362,-0.594,-0.468,1
0.059,-0.708,-0.725,0
0.109,-0.507,-0.959,0
0.126,-0.413,-1.439,0
0.143,-0.34,-2.221,0
0.098,-0.214,-2.213,0
0.112,-0.206,-2.215,0
0.256,0.244,-1.793,0
0.367,0.56,-1.492,0
0.483,0.723,-1.365,0
0.45,0.757,-1.477,0
0.353,0.702,-1.607,0
0.368,0.635,-1.876,0
0.362,0.622,-1.873,0
0.323,0.553,-0.885,0
0.09,0.42,-0.221,0
0.093,0.425,-0.223,0
-0.254,0.349,0.353,0
-0.187,0.426,0.277,0
-0.118,0.526,0.071,0
0.049,0.685,-0.216,0
0.066,0.682,-0.522,0
-0.163,0.638,-0.368,0
-0.206,0.536,-0.083,0
-0.188,0.515,-0.077,0
-0.364,0.369,0.811,0
-0.206,0.478,1.469,0
-0.108,0.505,1.665,0
0.032,0.587,1.37,0
0.152,0.681,0.93,0
0.317,0.771,0.562,0
0.225,0.894,0.703,0
0.223,0.854,0.716,1
-0.038,1.51,0.009,1
0.21,1.573,-0.248,1
0.426,1.543,0.118,1
0.631,1.218,1.411,1
0.592,0.671,2.615,1
0.696,0.057,3.486,1
0.516,-0.328,3.667,1
0.106,-1.554,4.69,1
0.166,-1.747,4.629,1
-0.245,-1.858,3.599,1
-0.193,-1.921,2.453,1
-0.263,-1.478,0.232,1
-0.481,-1.078,-1.183,1
-0.62,-0.958,-2.528,1
-0.635,-0.887,-3.099,1
-0.546,-0.324,-2.991,1
-0.3,0.04,-2.391,1
-0.11,0.23,-1.579,1
-0.051,0.262,-1.353,1
0.018,0.17,-1.261,1
0.197,0.062,-1.217,0
0.187,-0.018,-0.793,0
0.123,-0.065,-0.331,0
-0.028,-0.238,-0.046,0
-0.182,-0.319,-0.17,0
-0.452,-0.376,-0.553,0
-0.613,-0.485,-0.883,0
-0.774,-0.49,-1.369,0
-0.754,-0.45,-1.584,0
-0.479,-0.12,-1.485,0
-0.279,0.156,-1.21,0
-0.275,0.168,-1.214,0
-0.38,0.453,-1.069,0
-0.513,0.482,-1.046,0
-0.63,0.403,-1.211,0
-0.871,0.36,-1.376,0
-0.88,0.313,-1.374,0
-0.721,0.455,-0.792,0
-0.579,0.538,-0.556,0
-0.515,0.692,-0.431,0
-0.578,0.714,-0.357,0
-0.668,0.733,-0.415,0
-0.778,0.675,-0.541,0
-1.013,0.551,-0.418,0
-1.117,0.518,-0.273,0
-1.021,0.564,-0.009,0
-0.935,0.708,0.265,0
-0.78,0.76,0.588,0
-0.6,0.73,0.603,0
-0.442,0.693,0.702,0
-0.282,0.604,1.024,0
-0.118,0.511,1.267,0
0.057,0.505,1.443,0
0.896,1.458,4.891,0
-0.576,1.308,0.564,0
-0.432,1.407,1.141,1
0.208,1.115,0.582,1
0.658,1.411,1.416,1
0.901,1.243,2.029,1
0.789,0.421,2.766,1
0.498,-0.154,2.99,1
-0.269,-0.609,2.947,1
-0.485,-0.856,2.703,1
-0.654,-1.265,1.929,1
-0.719,-1.353,1.547,1
-0.806,-1.072,1.125,1
-0.836,-0.775,0.796,1
-0.764,-0.656,0.155,1
-0.873,-0.574,-0.146,1
-0.999,-0.678,0.031,1
-0.857,-0.738,0.162,1
-0.693,-0.697,-0.191,1
-0.381,-0.633,-0.835,1
0.176,-0.542,-1.413,1
0.707,-0.359,-1.49,1
0.722,-0.264,-1.992,1
0.394,-0.453,-2.303,0
0.327,-0.632,-2.614,0
0.264,-0.687,-2.305,0
0.269,-0.585,-1.325,0
0.271,-0.505,-0.772,0
0.206,-0.369,-0.198,0
0.113,-0.293,-0.173,0
0.003,-0.104,-0.584,0
0.015,0.109,-1.015,0
0.031,0.265,-1.491,0
0.067,0.408,-1.842,0
0.064,0.43,-1.97,0
0.024,0.437,-1.856,0
0.122,0.523,-1.814,0
0.1,0.542,-1.68,0
-0.049,0.329,-1.389,0
-0.114,0.248,-1.098,0
-0.06,0.181,-0.667,0
0.079,0.225,-0.53,0
0.219,0.323,-0.471,0
0.368,0.412,-0.527,0
0.353,0.402,-0.524,0
0.511,0.57,-0.862,0
0.467,0.641,-1.051,0
0.308,0.663,-1.055,0
0.127,0.636,-0.453,0
0.09,0.679,0.122,0
0.141,0.837,0.653,0
0.172,0.938,1.17,0
0.199,0.93,1.677,0
0.209,0.913,1.918,0
0.307,0.941,2.005,0
0.355,0.927,1.837,0
0.474,1.338,1.052,0
0.401,1.728,0.355,0
0.209,1.798,-0.112,1
-0.085,1.499,0.146,1
-0.382,1.066,0.69,1
-0.323,0.933,1.615,1
-0.566,0.234,3.291,1
-0.568,-0.323,4.348,1
-0.476,-1.186,5.393,1
-0.344,-1.444,5.192,1
-0.015,-1.389,4.037,1
0.029,-1.287,2.434,1
-0.191,-1.065,0.364,1
-0.273,-1.175,-0.935,1
-0.463,-1.188,-1.953,1
-0.722,-1.045,-1.96,1
-0.872,-0.743,-1.439,1
-1.012,-0.646,-1.059,1
-1.131,-0.447,-0.928,1
-0.906,-0.341,-1.044,1
-0.941,-0.345,-1.042,1
-0.575,-0.806,-1.148,1
-0.469,-0.925,-0.684,1
-0.296,-0.957,-0.046,0
-0.124,-0.902,0.515,0
-0.06,-0.769,0.39,0
-0.063,-0.551,-0.245,0
0.111,-0.284,-0.903,0
0.055,-0.117,-1.561,0
-0.121,-0.082,-1.781,0
-0.117,-0.011,-2.068,0
-0.184,0.03,-2.208,0
-0.405,0.04,-1.946,0
-0.372,0.157,-1.497,0
-0.218,0.33,-0.911,0
-0.112,0.504,-0.609,0
0.036,0.586,-0.703,0
0.032,0.458,-1.015,0
-0.098,0.42,-1.256,0
-0.181,0.392,-1.141,0
-0.238,0.332,-0.846,0
-0.315,0.467,-0.426,0
-0.324,0.482,0.016,0
-0.377,0.461,0.154,0
-0.459,0.485,0.302,0
-0.376,0.477,0.252,0
-0.362,0.452,0.369,0
-0.333,0.602,0.747,0
-0.188,0.643,1.383,0
-0.14,0.717,1.782,0
-0.27,0.751,1.991,0
-0.376,0.663,2.124,0
-0.286,0.628,1.974,0
-0.27,0.725,1.424,0
-0.17,1.281,0.287,0
-0.019,1.453,-0.392,0
0.52,0.983,-0.661,1
0.776,0.688,-0.264,1
0.594,0.466,0.716,1
0.515,0.113,1.427,1
0.315,-0.358,2.494,1
0.067,-0.367,2.728,1
-0.238,-0.567,2.805,1
-0.47,-0.877,3.024,1
-0.805,-1.034,3.608,1
-1.081,-0.883,3.754,1
-0.927,-0.675,3.179,1
-0.788,-0.274,2.052,1
-0.892,-0.264,0.598,1
-0.724,-0.446,-0.296,1
-0.464,-0.472,-1.503,1
-0.386,-0.335,-2.425,1
0.076,-0.328,-2.886,1
0.396,-0.235,-2.768,1
0.532,-0.232,-2.406,1
0.573,-0.361,-2.192,1
0.808,-0.491,-1.739,1
0.924,-0.595,-1.54,0
0.907,-0.687,-1.12,0
0.879,-0.714,-0.607,0
0.868,-0.578,-0.207,0
0.699,-0.478,-0.381,0
0.379,-0.495,-0.826,0
0.292,-0.437,-1.238,0
-0.041,-0.365,-1.944,0
-0.198,-0.342,-2.215,0
-0.072,-0.07,-2.298,0
0.13,0.258,-2.188,0
0.33,0.55,-1.959,0
0.337,0.564,-1.666,0
0.254,0.498,-1.021,0
0.23,0.449,-0.72,0
0.24,0.563,-0.409,0
0.261,0.601,0.016,0
0.217,0.528,0.19,0
0.133,0.469,0.128,0
0.155,0.4,0.034,0
0.259,0.419,0.136,0
0.49,0.585,0.195,0
0.699,0.645,0.116,0
0.748,0.905,0.29,0
0.834,0.984,0.466,0
0.85,0.886,0.427,0
0.645,0.824,0.398,0
0.596,0.808,0.51,0
0.608,0.748,0.89,0
0.263,0.625,1.509,0
0.402,0.631,1.708,0
0.299,0.495,1.652,0
-0.042,0.57,1.383,1
-0.01,0.544,1.391,1
-0.509,1.17,-0.481,1
-0.503,1.103,-1.262,1
-0.585,0.953,-1.051,1
-0.665,0.417,0.565,1
-0.508,0.196,1.79,1
0.243,-0.222,3.545,1
0.391,-0.574,4.174,1
-0.031,-1.281,4.741,1
0.051,-1.338,4.495,1
-0.151,-1.186,3.416,1
-0.16,-1.065,2.005,1
-0.317,-0.885,-0.007,1
-0.222,-0.564,-0.974,1
-0.233,-0.331,-1.392,1
-0.296,-0.229,-1.267,1
-0.583,-0.237,-0.888,1
-0.706,-0.251,-0.679,1
-0.715,-0.229,-0.685,1
-0.507,-0.617,0.015,1
-0.338,-0.812,0.485,0
-0.295,-0.863,0.324,0
-0.137,-0.817,-0.362,0
-0.066,-0.745,-0.915,0
0.159,-0.613,-1.544,0
0.27,-0.496,-1.673,0
0.243,-0.375,-1.745,0
0.355,-0.253,-1.713,0
0.348,-0.108,-1.566,0
0.285,-0.046,-1.57,0
0.242,0.067,-1.711,0
0.139,0.2,-1.793,0
0.115,0.331,-1.87,0
0.122,0.278,-2.031,0
0.005,0.359,-1.903,0
0.034,0.412,-1.592,0
0.243,0.401,-1.355,0
0.256,0.443,-1.029,0
0.225,0.497,-0.562,0
0.182,0.55,-0.409,0
-0.011,0.522,-0.191,0
0.018,0.54,-0.138,0
-0.068,0.473,0.082,0
-0.132,0.423,0.313,0
-0.017,0.332,0.354,0
-0.074,0.257,0.259,0
-0.271,0.275,0.378,0
-0.227,0.351,0.866,0
-0.037,0.567,1.456,0
0.062,0.673,1.609,0
0.141,0.75,1.597,0
0.274,0.733,1.598,0
0.286,0.778,1.315,0
0.019,1.139,0.57,0
-0.006,1.517,-0.749,0
0.216,1.117,-1.082,0
0.179,0.481,-0.542,1
-0.045,0.216,0.356,1
-0.191,-0.275,2.081,1
-0.326,-0.43,2.966,1
-0.464,-0.47,3.265,1
-0.317,-0.569,2.917,1
-0.421,-0.658,2.439,1
-0.381,-0.739,2.44,1
-0.356,-0.71,2.431,1
-0.43,-0.5,1.396,1
-0.205,-0.535,1.048,1
-0.082,-0.566,0.699,1
-0.148,-0.616,0.17,1
-0.127,-0.707,-0.261,1
0.023,-0.773,-0.943,1
0.032,-0.819,-1.115,1
0.074,-0.843,-0.959,1
0.076,-0.828,-0.871,1
0.275,-0.722,-0.787,1
0.308,-0.701,-0.737,1
0.225,-0.643,-0.781,1
0.294,-0.6,-0.84,0
0.333,-0.472,-0.967,0
0.188,-0.415,-1.19,0
0.1,-0.338,-1.257,0
0.04,-0.287,-1.222,0
-0.051,-0.184,-1.265,0
0.072,-0.098,-1.369,0
0.12,0.097,-1.533,0
0.238,0.217,-1.575,0
0.398,0.368,-1.555,0
0.475,0.461,-1.468,0
0.611,0.477,-1.195,0
0.548,0.413,-1.056,0
0.55,0.413,-1.055,0
0.588,0.318,-0.759,0
0.609,0.414,-0.361,0
0.689,0.468,-0.093,0
0.616,0.337,0.082,0
0.447,0.235,0.065,0
0.222,0.216,-0.032,0
0.352,0.395,-0.027,0
0.543,0.607,-0.047,0
0.583,0.687,-0.247,0
0.604,0.752,-0.343,0
0.444,0.643,-0.013,0
0.446,0.619,-0.006,0
0.027,0.462,1.253,0
0.017,0.436,1.261,0
-0.014,0.524,2.67,0
-0.016,0.33,3.126,0
-0.024,0.472,2.849,0
-0.488,0.984,1.467,0
-0.777,1.064,0,0
-0.891,0.765,-0.936,1
-1.2,0.442,-0.708,1
-1.152,0.361,0.053,1
-1.021,0.496,0.499,1
-0.61,0.314,1.331,1
-0.218,-0.044,2.082,1
0.163,-0.508,3.372,1
0.292,-0.961,4.385,1
0.262,-1.13,4.62,1
0.192,-1.018,3.864,1
0.323,-0.669,1.91,1
0.223,-0.509,0.474,1
-0.292,-0.556,-1.324,1
-0.556,-0.511,-2.069,1
-0.781,-0.304,-2.67,1
-0.796,-0.169,-2.73,1
-0.779,-0.149,-2.737,1
-0.839,-0.159,-1.544,1
-0.671,-0.375,-0.495,1
-0.736,-0.493,0.012,1
-0.467,-0.561,0.247,1
-0.284,-0.59,0.297,0
-0.222,-0.656,-0.079,0
-0.144,-0.638,-0.526,0
0.009,-0.523,-1.154,0
0.108,-0.423,-1.509,0
0.128,-0.361,-1.943,0
0.085,-0.257,-2.071,0
-0.006,-0.136,-1.972,0
0.071,-0.034,-1.843,0
0.066,-0.032,-1.844,0
-0.001,0.333,-1.712,0
-0.085,0.405,-1.639,0
-0.004,0.489,-1.408,0
-0.081,0.578,-1.099,0
-0.105,0.624,-1.025,0
-0.143,0.563,-1.158,0
-0.108,0.544,-1.181,0
-0.104,0.526,-1.056,0
-0.053,0.478,-0.991,0
-0.06,0.471,-0.988,0
-0.31,0.486,-0.041,0
-0.173,0.466,0.005,0
-0.245,0.597,0.218,0
-0.477,0.659,0.887,0
-0.4,0.666,1.177,0
-0.281,0.805,1.211,0
0.004,0.894,1.17,0
0.19,0.607,1.375,0
0.161,0.433,1.638,0
-0.008,0.43,2.318,0
-0.022,0.758,2.574,0
-0.191,1.452,1.908,0
-0.166,1.406,1.038,0
0.038,0.902,0.373,1
-0.101,0.803,0.517,1
-0.269,0.499,1.186,1
-0.325,0.216,1.84,1
-0.333,0.227,1.837,1
-0.345,-0.261,3.098,1
-0.478,-0.747,3.776,1
-0.481,-0.992,4.196,1
-0.593,-1.005,4.128,1
-0.7,-0.834,3.274,1
-0.65,-0.758,1.703,1
-0.595,-0.714,0.82,1
-0.61,-0.692,-0.274,1
-0.646,-0.652,-0.808,1
-0.455,-0.547,-1.524,1
-0.32,-0.59,-1.884,1
-0.102,-0.575,-2.056,1
-0.009,-0.556,-1.975,1
0.104,-0.692,-1.623,1
0.156,-0.74,-1.391,1
0.248,-0.724,-0.94,1
0.275,-0.746,-0.705,0
0.104,-0.79,-0.368,0
0.088,-0.673,-0.165,0
-0.001,-0.578,-0.236,0
-0.118,-0.561,-0.639,0
-0.193,-0.409,-1.253,0
-0.194,-0.252,-1.578,0
-0.188,-0.266,-1.574,0
-0.127,-0.087,-2.153,0
-0.171,-0.09,-2.287,0
-0.031,-0.07,-2.428,0
0.066,0,-2.476,0
0.082,0.059,-2.086,0
0.108,0.036,-1.531,0
0.104,0.128,-1.296,0
0.083,0.194,-1.103,0
0.057,0.207,-1.092,0
-0.05,0.192,-1.264,0
-0.098,0.162,-1.397,0
-0.017,0.121,-1.491,0
0.174,0.182,-1.201,0
0.334,0.374,-0.75,0
0.458,0.402,-0.582,0
0.404,0.438,-0.396,0
0.239,0.512,-0.122,0
0.218,0.668,0.342,0
0.233,0.679,0.764,0
0.094,0.655,1.377,0
-0.076,0.57,1.667,0
-0.241,0.457,2.063,0
-0.245,0.526,2.432,0
-0.232,0.987,2.481,0
-0.48,1.527,1.653,0
-0.681,1.548,0.303,0
-0.74,1.277,-0.26,0
-1.061,0.797,-0.17,1
-0.867,0.587,0.367,1
-0.394,0.291,1.995,1
0.03,-0.207,3.631,1
0.623,-0.692,5.626,1
0.524,-0.939,6.616,1
0.105,-1.127,6.714,1
-0.035,-0.971,5.555,1
-0.013,-0.7,2.919,1
-0.12,-0.489,0.938,1
-0.779,-0.592,-0.67,1
-0.875,-0.528,-1.13,1
-0.549,-0.143,-1.185,1
-0.409,0.075,-1.043,1
-0.344,-0.006,-0.85,1
-0.164,-0.214,-0.633,1
0.129,-0.315,-0.478,1
0.292,-0.385,-0.586,1
0.382,-0.541,-0.863,1
0.304,-0.643,-1.069,1
0.012,-0.73,-1.494,1
-0.059,-0.776,-1.71,0
-0.064,-0.709,-1.97,0
-0.123,-0.682,-2.03,0
-0.108,-0.692,-2.073,0
-0.059,-0.606,-2.074,0
0.056,-0.337,-1.881,0
0.156,-0.188,-1.764,0
-0.031,-0.06,-1.792,0
-0.076,-0.009,-1.684,0
0.042,0.12,-1.839,0
-0.105,0.164,-2.047,0
-0.297,0.075,-2.253,0
-0.418,0.056,-2.4,0
-0.468,0.028,-2.451,0
-0.542,0.011,-2.127,0
-0.698,-0.073,-1.41,0
-0.772,-0.106,-0.915,0
-0.789,-0.098,-0.917,0
-0.61,0.148,0.572,0
-0.541,0.187,1.051,0
-0.551,0.305,1.104,0
-0.575,0.373,1.08,0
-0.585,0.356,0.979,0
-0.593,0.347,0.983,0
-0.469,0.343,0.519,0
-0.262,0.365,0.658,0
-0.105,0.402,0.878,0
0.027,0.58,1.252,0
0.096,0.816,1.196,0
0.012,1.445,0.505,0
0.031,1.609,-0.126,0
0.517,1.155,-0.116,0
0.55,0.874,0.582,0
0.31,0.376,1.843,1
0.168,-0.115,2.674,1
0.193,-0.346,3.596,1
0.024,-0.315,3.835,1
-0.143,-0.524,3.947,1
-0.209,-0.74,3.749,1
-0.46,-0.751,2.921,1
-0.707,-0.674,1.889,1
-0.673,-0.661,0.634,1
-0.601,-0.703,-0.033,1
-0.336,-0.692,-0.465,1
-0.005,-0.514,-0.493,1
0.478,-0.269,-0.582,1
0.812,-0.156,-0.838,1
0.938,-0.266,-1.036,1
0.891,-0.41,-0.936,1
0.721,-0.692,-0.592,1
0.598,-0.844,-0.178,1
0.262,-1.016,0.411,1
0.107,-1.006,0.427,1
-0.113,-0.852,-0.256,1
-0.192,-0.723,-0.769,0
-0.271,-0.506,-1.198,0
-0.313,-0.382,-1.432,0
-0.246,-0.269,-1.763,0
-0.268,-0.138,-1.939,0
-0.27,-0.018,-1.986,0
-0.262,-0.019,-2.066,0
-0.258,-0.025,-2.064,0
-0.267,0.064,-1.82,0
-0.309,0.048,-1.683,0
-0.25,0.123,-1.444,0
-0.165,0.122,-1.304,0
-0.141,0.106,-1.239,0
-0.014,0.117,-1.124,0
0.088,0.134,-1.041,0
0.24,0.224,-1.119,0
0.352,0.245,-1.278,0
0.161,0.221,-1.053,0
0.162,0.278,-0.727,0
0.281,0.354,-0.661,0
0.13,0.418,-0.514,0
0.07,0.537,-0.026,0
0.026,0.542,0.001,0
-0.191,0.545,-0.228,0
-0.239,0.593,-0.273,0
-0.121,0.705,0.125,0
0.017,0.756,0.71,0
0.007,0.751,1.29,0
0.027,0.673,1.785,0
0.143,0.748,2.246,0
0.04,1.166,2.273,0
-0.216,1.521,1.185,0
-0.503,1.113,0.416,0
