accelX,accelY,accelZ,label
1.469,1.026,1.862,1
1.504,0.454,1.615,1
1.252,0.373,1.738,1
1.183,0.388,2.078,1
1.337,0.316,2.295,1
1.587,0.365,2.267,1
1.899,0.284,1.967,1
2.489,0.071,1.674,1
2.818,-0.045,1.669,1
2.766,-0.038,1.697,1
2.547,0.036,1.636,1
2.224,-0.009,1.339,1
2.091,-0.011,0.966,1
2.12,-0.034,0.382,1
2.18,0.015,-0.043,1
2.324,0.058,-0.564,1
2.549,0.07,-0.806,1
2.841,0.071,-1.053,1
2.922,-0.034,-0.998,1
2.853,-0.329,-0.55,1
2.689,-0.582,-0.116,1
2.284,-0.904,0.344,0
1.937,-1.083,0.428,0
1.6,-1.237,0.357,0
1.527,-1.22,0.099,0
1.875,-0.992,-0.515,0
2.294,-0.641,-1.102,0
2.659,-0.234,-1.723,0
2.594,-0.125,-1.75,0
2.231,-0.086,-1.663,0
1.768,-0.163,-1.502,0
1.276,-0.249,-1.349,0
1.137,-0.287,-1.146,0
1.101,-0.173,-0.822,0
1.245,-0.043,-0.828,0
1.548,0.214,-1.078,0
1.669,0.371,-1.162,0
1.74,0.508,-1.294,0
1.922,0.525,-1.377,0
1.986,0.619,-1.403,0
1.986,0.642,-1.059,0
2.018,0.585,-0.31,0
2.033,0.482,0.104,0
1.957,0.387,0.723,0
1.796,0.398,1.153,0
1.442,0.305,1.623,0
1.239,0.279,1.877,0
1.171,0.36,2.189,0
1.252,0.419,2.334,0
1.406,0.499,2.353,0
1.472,0.59,2.305,0
1.637,0.597,2.075,0
1.666,0.616,2.014,0
1.124,1.028,1.954,0
0.83,1.269,1.649,1
0.851,1.235,1.671,1
0.796,1.13,0.191,1
0.631,1.08,0.022,1
0.6,1.012,0.284,1
0.789,0.781,0.866,1
1.28,0.467,1.503,1
2.032,0.045,2.567,1
2.453,-0.153,3.315,1
2.552,-0.348,3.973,1
2.335,-0.341,3.695,1
2.138,-0.239,2.022,1
1.818,-0.309,0.293,1
1.419,-0.437,-1.637,1
1.326,-0.532,-2.434,1
1.017,-0.671,-2.698,1
0.767,-0.675,-2.457,1
0.847,-0.632,-1.565,1
1.165,-0.642,-0.809,1
1.834,-0.594,0.325,1
2.166,-0.507,0.98,1
2.437,-0.546,1.445,0
2.341,-0.619,1.199,0
2.03,-0.754,0.405,0
1.796,-0.874,-0.35,0
1.548,-0.93,-1.371,0
1.501,-0.867,-2.083,0
1.646,-0.631,-2.677,0
1.721,-0.48,-2.62,0
1.792,-0.342,-2.208,0
1.885,-0.178,-1.846,0
1.979,0.007,-1.357,0
1.938,0.089,-1.023,0
1.638,0.044,-0.901,0
1.497,-0.018,-1.09,0
1.289,-0.105,-1.532,0
1.175,-0.146,-1.691,0
1.095,-0.156,-1.598,0
1.124,-0.095,-1.114,0
1.184,-0.005,-0.069,0
1.262,0.13,0.602,0
1.39,0.254,0.966,0
1.552,0.323,0.892,0
1.754,0.427,0.873,0
1.92,0.417,0.945,0
1.916,0.486,1.085,0
1.778,0.536,1.488,0
1.58,0.565,2.141,0
1.538,0.487,2.434,0
1.472,0.323,2.618,0
1.525,0.238,2.585,0
1.494,0.317,2.255,0
1.314,0.463,1.857,1
0.857,0.902,0.826,1
0.784,0.884,0.058,1
1.158,0.734,-0.699,1
1.346,0.76,-0.718,1
1.556,0.834,-0.389,1
1.995,0.633,0.092,1
2.264,0.371,0.997,1
2.121,0.13,1.826,1
2.026,-0.358,2.569,1
2.083,-0.601,2.773,1
1.979,-0.557,2.776,1
1.895,-0.402,2.626,1
1.942,-0.256,2.146,1
2.007,-0.191,1.523,1
2.148,-0.115,0.599,1
2.237,-0.068,0.05,1
2.174,-0.074,-0.132,1
2.168,-0.116,-0.063,1
2.198,-0.309,0.118,1
2.245,-0.417,0.284,1
2.255,-0.372,0.268,0
2.301,-0.457,0.211,0
2.39,-0.452,-0.504,0
2.562,-0.418,-1.09,0
2.745,-0.363,-1.658,0
2.725,-0.335,-1.674,0
2.575,-0.333,-1.344,0
2.392,-0.352,-1.173,0
2.082,-0.323,-1.021,0
1.888,-0.239,-0.883,0
1.807,-0.092,-0.876,0
1.836,0.063,-1.209,0
1.882,0.318,-1.874,0
1.924,0.446,-2.311,0
2.076,0.576,-2.655,0
2.06,0.667,-2.692,0
1.968,0.726,-2.458,0
1.956,0.729,-1.996,0
1.95,0.73,-1.998,0
2.011,0.761,-0.742,0
2.005,0.802,0.008,0
2.061,0.813,0.698,0
2.158,0.844,1.616,0
2.178,0.839,2.044,0
2.177,0.92,2.074,0
2.06,0.884,1.94,0
1.953,0.683,1.772,0
1.9,0.545,1.853,0
1.641,0.525,2.292,0
1.475,0.481,2.538,0
1.36,0.501,2.668,0
1.475,0.534,2.615,0
1.632,0.591,2.163,0
1.684,0.592,1.831,0
1.343,1.036,1.221,0
1.009,1.469,0.741,0
1.023,1.402,0.774,1
1.091,1.475,-0.538,1
1.255,1.505,-0.808,1
1.353,1.496,-0.75,1
1.697,1.069,-0.363,1
2.121,0.587,0.15,1
2.371,-0.176,1.651,1
2.414,-0.768,3.152,1
2.008,-1.269,4.77,1
1.553,-1.08,5.327,1
1.458,-0.834,4.44,1
1.626,-0.7,2.447,1
1.572,-0.523,-0.436,1
1.564,-0.348,-2.11,1
1.679,-0.202,-3.109,1
1.63,-0.106,-2.976,1
1.486,-0.29,-1.816,1
1.587,-0.571,-0.634,1
1.784,-0.752,0.673,1
1.795,-0.949,1.152,1
1.566,-1.186,0.913,1
1.332,-1.274,0.316,0
1.273,-1.25,-0.618,0
1.363,-1.207,-1.119,0
1.489,-0.998,-1.849,0
1.555,-0.879,-2.3,0
1.536,-0.636,-2.671,0
1.592,-0.549,-2.659,0
1.724,-0.374,-2.266,0
1.749,-0.207,-1.957,0
1.685,-0.064,-1.835,0
1.571,0.012,-1.933,0
1.562,0.009,-1.933,0
1.131,0.032,-2.023,0
0.978,0.08,-1.84,0
0.955,0.126,-1.48,0
1.061,0.262,-1.096,0
1.183,0.377,-0.956,0
1.166,0.421,-0.701,0
1.082,0.408,-0.459,0
1.195,0.434,0.141,0
1.415,0.598,0.646,0
1.563,0.643,1.211,0
1.532,0.592,1.538,0
1.344,0.558,1.832,0
1.11,0.523,2.2,0
1.002,0.443,2.727,0
1.149,0.528,2.889,0
1.503,0.69,2.64,0
1.749,0.771,2.271,0
1.934,0.955,1.801,0
1.816,1.129,1.58,0
1.255,1.565,1.133,0
1.287,1.305,0.503,0
1.635,0.854,-0.238,1
1.639,0.784,-0.013,1
1.521,0.51,1.032,1
1.444,0.16,2.069,1
1.176,-0.285,3.087,1
1.021,-0.492,3.184,1
1.087,-0.781,3.129,1
1.304,-0.842,3.136,1
1.548,-0.632,3.191,1
1.593,-0.366,2.864,1
1.589,-0.141,1.778,1
1.55,-0.155,0.699,1
1.427,-0.28,-0.511,1
1.457,-0.286,-1.125,1
1.542,-0.295,-1.305,1
1.646,-0.359,-1.071,1
1.835,-0.482,-0.527,1
2.043,-0.472,-0.282,1
2.218,-0.515,-0.148,1
2.273,-0.561,-0.091,1
2.329,-0.555,-0.163,1
2.349,-0.519,-0.345,0
2.312,-0.448,-0.548,0
2.215,-0.398,-0.667,0
2.237,-0.38,-0.669,0
1.837,-0.294,-1.363,0
1.572,-0.275,-1.768,0
1.494,-0.14,-1.88,0
1.447,-0.036,-2.026,0
1.533,0.06,-2.175,0
1.613,0.247,-2.322,0
1.726,0.371,-2.425,0
1.723,0.511,-2.326,0
1.619,0.556,-2.102,0
1.612,0.707,-1.704,0
1.691,0.854,-1.464,0
1.797,0.971,-1.237,0
1.896,1.001,-1.126,0
1.886,0.947,-0.706,0
1.881,0.915,-0.141,0
1.979,0.834,0.455,0
1.978,0.789,0.647,0
1.918,0.756,0.909,0
1.871,0.749,1.158,0
1.724,0.878,1.456,0
1.585,0.855,1.606,0
1.53,0.721,1.623,0
1.51,0.583,1.593,0
1.482,0.576,1.929,0
1.445,0.56,2.446,0
1.352,0.442,3.231,0
1.358,0.449,3.51,0
0.942,0.931,3.401,0
0.729,1.265,2.513,0
0.731,1.323,0.666,1
0.792,1.347,-0.679,1
0.849,1.468,-1.752,1
1.003,1.507,-1.789,1
1.613,1.062,-0.835,1
1.907,0.635,0.082,1
2.272,-0.034,2.057,1
2.467,-0.468,3.357,1
2.15,-0.887,4.738,1
1.909,-0.722,4.727,1
1.961,-0.609,2.768,1
1.758,-0.608,0.697,1
1.401,-0.485,-1.414,1
1.296,-0.435,-2.241,1
1.017,-0.4,-2.053,1
0.845,-0.402,-1.483,1
1,-0.575,-0.279,1
1.248,-0.652,0.488,1
1.509,-0.79,1.017,1
1.611,-0.869,1.253,1
1.74,-0.923,1.174,1
1.76,-0.915,0.603,0
1.689,-0.874,-0.581,0
1.705,-0.852,-1.313,0
1.727,-0.669,-2.267,0
1.748,-0.518,-2.801,0
1.662,-0.509,-3.272,0
1.452,-0.402,-3.152,0
1.358,-0.315,-2.658,0
1.464,-0.196,-2.367,0
1.466,0.096,-1.653,0
1.565,0.266,-1.052,0
1.651,0.404,-0.872,0
1.532,0.436,-1.189,0
1.408,0.418,-1.767,0
1.27,0.43,-1.853,0
1.223,0.408,-1.693,0
1.221,0.41,-1.245,0
1.087,0.319,-0.478,0
0.881,0.198,0.03,0
0.927,0.205,1.241,0
1.076,0.248,1.897,0
1.064,0.257,1.891,0
1.283,0.431,1.731,0
1.224,0.632,1.088,0
1.281,0.767,0.81,0
1.359,0.918,0.604,0
1.462,0.967,0.528,0
1.619,0.947,0.841,0
1.639,0.92,1.382,0
1.347,0.83,2.087,0
1.073,0.879,2.403,0
0.545,1.264,2.351,0
0.387,1.135,1.576,0
0.565,0.706,0.467,1
0.613,0.615,-0.04,1
0.743,0.61,-0.011,1
1.102,0.294,0.633,1
1.264,-0.099,1.776,1
1.163,-0.225,2.354,1
1.108,-0.687,2.803,1
1.168,-0.872,2.773,1
1.133,-0.897,2.295,1
1.112,-0.607,1.669,1
1.117,-0.585,1.661,1
1.476,-0.059,-0.334,1
1.571,0.025,-1.201,1
1.774,0.004,-1.556,1
1.986,0.044,-1.36,1
1.96,0.01,-0.829,1
1.865,-0.245,0.223,1
1.766,-0.422,0.863,1
1.642,-0.541,1.314,1
1.633,-0.574,1.22,1
1.676,-0.538,0.567,1
1.858,-0.341,-0.197,0
1.864,-0.335,-0.198,0
2.238,0.012,-1.581,0
2.279,0.023,-2.008,0
2.171,-0.009,-2.144,0
1.848,0.001,-2.006,0
1.607,-0.039,-1.641,0
1.274,-0.048,-1.262,0
1.011,-0.047,-0.974,0
1.048,0.136,-0.587,0
1.226,0.343,-0.543,0
1.446,0.611,-1.082,0
1.506,0.734,-1.437,0
1.598,0.922,-1.897,0
1.637,1.009,-1.996,0
1.578,0.989,-1.756,0
1.439,0.957,-1.378,0
1.311,0.868,-0.89,0
1.138,0.736,-0.391,0
1.252,0.786,0.437,0
1.423,0.793,0.796,0
1.515,0.928,0.975,0
1.525,1.03,0.848,0
1.505,1.123,0.654,0
1.423,1.147,0.626,0
1.281,1.036,0.947,0
1.192,0.877,1.37,0
1.089,0.694,1.993,0
0.836,0.544,2.641,0
0.551,0.473,3.471,0
0.529,0.391,3.669,0
0.175,0.684,3.062,1
-0.198,0.954,1.876,1
-0.294,0.984,-0.241,1
-0.026,0.976,-1.46,1
0.518,1.379,-2.146,1
0.918,1.628,-1.911,1
1.575,1.679,-0.867,1
1.96,1.494,-0.263,1
2.252,0.58,1.192,1
2.189,-0.132,2.241,1
1.591,-1.091,3.795,1
0.855,-1.426,4.474,1
0.174,-1.595,4.079,1
0.068,-1.525,2.546,1
0.49,-1.081,0.165,1
0.793,-0.806,-1.611,1
0.976,-0.676,-3.106,1
0.708,-0.474,-3.272,1
0.576,-0.326,-2.445,1
0.832,-0.481,-1.334,1
1.003,-0.604,-0.068,1
1.083,-0.746,0.676,0
1.044,-0.922,1.081,0
0.987,-0.964,1.01,0
1.025,-0.903,0.394,0
1.132,-0.785,-0.231,0
1.358,-0.594,-1.343,0
1.441,-0.445,-1.921,0
1.509,-0.334,-2.59,0
1.468,-0.295,-2.79,0
1.378,-0.219,-2.722,0
1.329,-0.133,-2.38,0
1.251,0.007,-1.746,0
1.206,0.117,-1.126,0
1.351,0.347,-0.306,0
1.395,0.527,-0.162,0
1.47,0.739,-0.574,0
1.464,0.776,-0.956,0
1.337,0.729,-1.232,0
1.211,0.581,-1.261,0
0.903,0.386,-0.997,0
0.66,0.274,-0.7,0
0.585,0.178,-0.25,0
0.667,0.215,0.071,0
0.877,0.483,0.827,0
1.033,0.716,1.315,0
1.031,0.975,1.644,0
0.968,1.181,1.646,0
0.881,1.306,1.582,0
0.862,1.242,1.451,0
0.871,1.087,1.502,0
0.779,0.948,1.944,0
0.768,0.904,2.667,0
0.565,1.032,2.862,0
-0.031,1.586,2.127,1
0.174,1.439,1.039,1
0.805,1.005,-0.226,1
1.031,0.943,-0.533,1
1.26,0.674,0.022,1
1.373,0.215,1.054,1
0.977,-0.501,3.12,1
0.791,-0.873,3.923,1
0.648,-1.298,4.279,1
0.661,-1.387,4.141,1
0.756,-1.098,3.542,1
0.747,-0.756,2.663,1
0.918,-0.338,1.095,1
1.085,-0.139,-0.135,1
1.282,-0.173,-1.425,1
1.36,-0.293,-1.909,1
1.336,-0.334,-1.64,1
1.427,-0.424,-1.171,1
1.587,-0.663,-0.256,1
1.656,-0.775,0.354,1
1.715,-0.796,0.669,1
1.73,-0.77,0.443,0
1.749,-0.745,0.437,0
1.679,-0.718,-0.959,0
1.734,-0.628,-1.857,0
1.708,-0.652,-2.144,0
1.281,-0.655,-1.845,0
1.132,-0.616,-1.519,0
0.997,-0.514,-1.33,0
0.942,-0.347,-1.313,0
0.937,-0.358,-1.309,0
0.977,0.009,-2.01,0
0.998,0.171,-2.592,0
1.111,0.259,-2.964,0
1.176,0.386,-3.046,0
1.207,0.421,-2.807,0
1.27,0.49,-2.136,0
1.219,0.521,-1.49,0
1.169,0.51,-0.271,0
1.116,0.482,0.448,0
1.096,0.536,0.718,0
1.238,0.583,0.594,0
1.593,0.571,0.258,0
1.761,0.567,0.07,0
1.749,0.62,0.087,0
1.615,0.579,0.347,0
1.293,0.507,0.822,0
1.064,0.406,1.137,0
0.872,0.412,1.48,0
0.709,0.441,1.746,0
0.616,0.47,1.822,0
0.624,0.485,1.725,0
0.832,0.621,1.544,0
0.939,0.686,1.478,0
0.66,1.166,1.263,0
0.376,1.399,0.753,0
0.354,1.236,-0.126,1
0.376,1.216,-0.687,1
0.37,1.184,-0.833,1
0.582,1.089,-0.474,1
1.072,0.833,0.336,1
1.446,0.497,1.123,1
1.835,-0.212,3.111,1
1.762,-0.776,4.427,1
1.222,-1.429,5.376,1
0.629,-1.66,5.044,1
0.013,-1.794,3.222,1
-0.047,-1.726,1.326,1
-0.072,-1.61,-1.039,1
-0.134,-1.566,-2.574,1
-0.077,-1.319,-4.056,1
0.059,-1.102,-4.443,1
0.413,-0.57,-4.115,1
0.885,-0.383,-3.168,1
1.481,-0.294,-1.439,1
1.607,-0.458,-0.005,1
1.449,-0.859,1.429,1
1.132,-1.058,2.146,0
0.779,-1.099,2.227,0
0.61,-1.086,1.791,0
0.474,-1.175,0.515,0
0.58,-1.107,-0.633,0
0.923,-0.797,-2.095,0
1.185,-0.451,-2.685,0
1.442,-0.106,-2.521,0
1.636,0.07,-2.041,0
1.49,0.232,-1.359,0
1.269,0.218,-0.954,0
1.058,0.131,-0.54,0
0.917,0.078,-0.428,0
0.802,0.027,-0.509,0
0.818,0.013,-0.702,0
0.719,0.058,-0.774,0
0.663,0.047,-0.667,0
0.81,0.085,-0.227,0
0.884,0.219,0.3,0
0.957,0.35,0.997,0
1.043,0.4,1.273,0
1.068,0.503,1.563,0
0.966,0.587,1.579,0
0.783,0.723,1.487,0
0.72,0.848,1.307,0
0.601,0.905,0.874,0
0.547,0.897,0.655,0
0.72,0.877,0.672,0
0.863,0.868,0.927,0
0.938,0.908,1.529,0
1.149,0.87,1.826,0
1.056,1.21,2.003,0
0.655,1.351,1.483,0
0.603,0.968,0.389,1
0.698,0.703,-0.273,1
0.959,0.736,-0.5,1
1.346,0.784,-0.05,1
1.692,0.856,1.139,1
1.593,0.787,1.807,1
1.641,0.334,2.651,1
1.69,0.049,2.908,1
1.455,-0.156,2.847,1
1.066,-0.248,2.687,1
0.791,-0.496,2.287,1
0.834,-0.658,1.698,1
0.859,-0.812,0.774,1
0.802,-0.874,0.154,1
0.809,-0.97,-0.542,1
0.88,-1.084,-0.719,1
1.021,-1.26,-0.559,1
1.118,-1.276,-0.117,1
1.184,-1.33,0.471,1
1.254,-1.39,0.728,1
1.298,-1.464,0.788,1
1.228,-1.501,0.617,0
1.085,-1.5,0.025,0
1.108,-1.471,-0.434,0
1.208,-1.197,-1.143,0
1.202,-0.89,-1.397,0
1.302,-0.626,-1.787,0
1.349,-0.419,-2.122,0
1.179,-0.181,-2.376,0
1.016,-0.104,-2.356,0
0.876,-0.03,-2.161,0
0.785,0.041,-1.996,0
0.746,0.132,-1.849,0
0.904,0.248,-1.731,0
1.225,0.513,-1.412,0
1.321,0.639,-1.182,0
1.32,0.632,-0.931,0
1.272,0.563,-0.872,0
1.233,0.419,-0.922,0
1.094,0.271,-1.043,0
1.078,0.088,-0.996,0
1.154,0.029,-0.649,0
1.073,0.032,0.181,0
0.86,0.036,0.692,0
0.648,-0.031,1.1,0
0.565,0.013,1.418,0
0.628,0.099,1.619,0
0.857,0.184,1.314,0
0.978,0.354,0.861,0
0.953,0.427,0.825,0
0.911,0.455,1.219,0
0.665,0.638,1.644,0
0.289,0.922,1.65,0
0.378,0.842,1.009,0
0.583,0.666,0.403,0
0.738,0.64,0.214,1
0.869,0.748,0.584,1
1.206,0.442,1.098,1
1.995,-0.107,2.307,1
2.446,-0.337,3.028,1
2.375,-0.646,4.535,1
2.199,-0.867,5.604,1
1.9,-1.361,6.135,1
1.351,-1.602,5.319,1
1.328,-1.567,5.303,1
0.176,-1.762,0.663,1
-0.036,-1.784,-1.603,1
-0.233,-1.8,-2.806,1
-0.62,-1.578,-3.274,1
-0.656,-1.328,-2.945,1
-0.365,-0.933,-2.006,1
0.122,-0.749,-1.291,1
0.726,-0.591,-0.641,1
0.956,-0.54,-0.395,1
1.03,-0.643,-0.423,1
1.011,-0.766,-0.616,1
0.984,-0.905,-0.842,0
0.911,-0.945,-0.934,0
0.862,-0.887,-0.847,0
0.831,-0.796,-0.816,0
0.908,-0.701,-1.007,0
0.954,-0.435,-1.04,0
1.06,-0.207,-0.817,0
1.166,-0.179,-0.824,0
1.169,-0.065,-0.809,0
1.121,0.074,-0.662,0
0.973,-0.007,-0.302,0
0.826,-0.077,-0.253,0
0.66,-0.095,-0.486,0
0.696,-0.126,-0.744,0
0.914,-0.087,-0.827,0
1.077,0.04,-0.787,0
1.37,0.105,-0.915,0
1.338,0.146,-0.947,0
1.076,0.033,-0.643,0
1.028,-0.06,-0.357,0
0.892,0.044,0.199,0
0.759,0.168,0.685,0
0.745,0.354,1.077,0
0.819,0.531,1.052,0
0.774,0.667,0.75,0
0.938,0.617,0.755,0
1.127,0.459,1.125,0
1.181,0.363,1.506,0
1.314,0.176,1.975,0
1.38,0.021,2.1,0
0.989,0.38,2.013,0
0.727,0.639,1.437,0
1.105,0.434,0.504,1
1.517,0.335,0.179,1
1.777,0.542,0.601,1
2.148,0.528,1.18,1
2.248,0.42,2.199,1
2.008,0.246,2.893,1
1.95,-0.238,3.714,1
1.871,-0.42,3.708,1
1.434,-0.596,3.226,1
0.98,-0.608,2.75,1
0.679,-0.529,1.803,1
0.716,-0.404,0.948,1
0.823,-0.325,0.015,1
0.811,-0.391,-0.418,1
0.748,-0.484,-0.716,1
0.86,-0.596,-0.726,1
1.078,-0.729,-0.592,1
1.222,-0.855,-0.447,1
1.23,-0.841,-0.452,1
1.561,-1.086,-0.134,1
1.634,-1.213,-0.011,1
1.601,-1.255,-0.193,0
1.628,-1.208,-0.677,0
1.61,-1.11,-0.711,0
1.461,-1.043,-0.885,0
1.236,-1.021,-1.156,0
1.002,-0.865,-1.474,0
0.903,-0.778,-1.799,0
0.889,-0.463,-2.21,0
0.958,-0.269,-2.269,0
1.076,-0.035,-2.309,0
1.142,0.086,-2.383,0
1.342,0.287,-2.677,0
1.36,0.415,-2.718,0
1.325,0.478,-2.712,0
1.367,0.472,-2.558,0
1.353,0.474,-1.903,0
1.163,0.355,-1.236,0
1.026,0.141,-0.48,0
1.004,0.06,0.074,0
1.152,-0.025,0.749,0
1.222,0.006,0.845,0
1.259,0.069,0.602,0
1.422,0.025,0.383,0
1.373,0.103,0.325,0
1.112,0.253,0.65,0
1.042,0.257,1.133,0
0.995,0.263,1.397,0
0.81,0.355,1.563,0
0.702,0.454,1.687,0
0.716,0.532,2.31,0
0.886,0.527,2.576,0
1.026,0.551,2.442,0
0.828,0.814,2.228,0
0.521,1.016,1.455,1
0.568,0.86,0.456,1
0.673,0.735,-0.661,1
0.63,0.752,-1.093,1
0.666,0.709,-0.891,1
0.787,0.547,-0.515,1
1.155,0.081,0.462,1
1.448,-0.355,1.824,1
1.733,-0.883,3.667,1
1.667,-1.16,4.703,1
1.093,-1.431,4.884,1
0.681,-1.428,3.653,1
0.515,-1.116,0.618,1
0.44,-0.95,-1.159,1
0.243,-1.103,-3.249,1
0.034,-1.091,-3.93,1
-0.222,-0.781,-3.611,1
0.07,-0.621,-2.476,1
0.752,-0.67,-0.748,1
1.08,-0.757,0.697,1
1.417,-0.95,2.267,1
1.459,-1.078,2.591,0
1.104,-1.215,1.832,0
0.85,-1.363,0.905,0
0.843,-1.408,-0.401,0
0.859,-1.278,-1.423,0
0.821,-1.013,-2.07,0
0.766,-0.814,-2.043,0
0.722,-0.577,-1.542,0
0.845,-0.394,-1.254,0
1.046,-0.069,-0.89,0
1.214,0.062,-0.788,0
1.423,0.153,-0.892,0
1.417,0.16,-0.895,0
1.487,0.23,-1.129,0
1.381,0.11,-0.831,0
1.223,-0.027,-0.338,0
1.059,-0.088,-0.138,0
0.842,-0.169,-0.07,0
0.736,-0.261,-0.153,0
0.686,-0.195,-0.411,0
0.697,-0.123,-0.496,0
0.794,-0.06,-0.23,0
0.89,0.101,0.296,0
0.923,0.128,0.889,0
0.848,0.128,1.364,0
0.684,0.234,1.955,0
0.692,0.16,1.823,0
0.731,0.083,1.228,0
0.693,0.08,0.919,0
0.683,0.042,0.933,0
0.837,0.158,0.587,0
0.604,0.33,1.127,0
0.101,0.67,1.335,0
-0.219,0.915,0.961,0
0.079,0.712,0.562,0
0.591,0.621,0.204,1
0.927,0.611,0.238,1
1.6,0.216,0.767,1
1.736,-0.156,1.538,1
1.417,-0.652,2.855,1
1.239,-0.949,3.611,1
1.046,-1.169,4.246,1
0.908,-1.165,4.397,1
0.804,-1.003,3.802,1
0.894,-0.902,2.987,1
1.131,-0.663,1.165,1
1.222,-0.574,0.265,1
1.35,-0.568,-0.304,1
1.381,-0.625,-0.061,1
1.449,-0.632,0.548,1
1.563,-0.651,0.91,1
1.768,-0.813,0.981,1
1.846,-0.858,0.581,1
1.825,-0.887,-0.145,1
1.773,-0.882,-0.613,1
1.803,-0.884,-1.174,1
1.801,-0.823,-1.321,0
1.701,-0.73,-1.378,0
1.556,-0.677,-1.366,0
1.331,-0.595,-1.318,0
1.154,-0.597,-1.402,0
0.966,-0.537,-1.767,0
0.924,-0.411,-1.912,0
1.168,-0.154,-2.286,0
1.309,0.056,-2.456,0
1.353,0.269,-2.447,0
1.337,0.318,-2.32,0
1.225,0.383,-1.935,0
1.047,0.289,-1.609,0
0.837,0.198,-1.316,0
0.77,0.213,-1.094,0
0.813,0.283,-0.659,0
0.98,0.355,-0.522,0
1.375,0.656,-0.347,0
1.605,0.763,-0.265,0
1.852,0.823,-0.219,0
1.857,0.794,-0.046,0
1.577,0.661,0.227,0
1.208,0.488,0.428,0
0.757,0.23,0.76,0
0.643,0.085,0.99,0
0.662,0.071,0.998,0
0.569,-0.065,1.845,0
0.831,0.025,2.161,0
1.059,0.131,2.423,0
1.413,0.216,2.533,0
1.397,0.362,2.398,0
1.39,0.315,2.417,0
0.706,0.879,0.611,0
0.718,0.835,0.631,1
0.755,0.742,-1.104,1
0.767,0.73,-1.097,1
1.18,0.597,0.436,1
1.645,0.357,1.826,1
1.946,0.103,2.569,1
1.964,-0.362,3.005,1
1.91,-0.738,2.914,1
1.481,-1.013,2.433,1
1.072,-0.969,1.798,1
0.697,-0.926,0.303,1
0.502,-1.059,-0.846,1
0.013,-1.006,-1.995,1
-0.168,-0.995,-2.011,1
-0.305,-1.028,-1.162,1
-0.346,-0.921,-0.083,1
-0.066,-0.761,0.984,1
0.113,-0.878,1.432,1
0.232,-1.07,1.702,1
0.269,-1.158,1.69,1
0.457,-1.259,1.319,1
0.643,-1.148,0.863,0
0.615,-1.154,0.863,0
0.945,-0.758,-0.742,0
0.898,-0.602,-1.776,0
0.87,-0.495,-2.421,0
1.109,-0.292,-3.046,0
1.216,-0.104,-3.011,0
1.43,0.06,-2.364,0
1.437,0.139,-1.657,0
1.27,0.073,-0.583,0
1.142,0.003,-0.035,0
0.893,-0.164,0.04,0
0.75,-0.266,-0.412,0
0.753,-0.283,-0.405,0
0.645,-0.127,-1.421,0
0.642,-0.156,-1.41,0
0.897,0.106,-1.918,0
0.784,0.16,-1.359,0
0.795,0.154,-0.891,0
0.81,0.116,-0.322,0
0.716,0.002,0.02,0
0.722,0.01,0.017,0
0.648,-0.287,0.969,0
0.739,-0.166,1.239,0
0.678,-0.089,1.228,0
0.651,-0.062,1.031,0
0.702,-0.019,0.819,0
0.712,-0.034,0.826,0
0.78,-0.052,0.763,0
0.972,0.026,1.412,0
0.892,0.194,2.156,0
0.402,0.62,2.504,0
0.243,0.726,1.885,0
0.451,0.458,0.752,0
0.684,0.291,0.301,1
0.678,0.27,0.309,1
1.448,0.191,0.775,1
1.477,0.037,1.625,1
1.315,-0.137,2.199,1
1.271,-0.607,2.657,1
1.208,-0.891,2.881,1
1.043,-0.999,3.021,1
0.854,-0.893,2.978,1
0.871,-0.849,2.963,1
0.891,-0.46,1.306,1
1.177,-0.26,0.164,1
1.391,-0.234,-0.518,1
1.395,-0.302,-0.896,1
1.256,-0.37,-0.767,1
1.291,-0.499,-0.517,1
1.376,-0.623,-0.316,1
1.511,-0.853,-0.154,1
1.64,-0.96,-0.038,1
1.822,-0.947,0.188,1
1.889,-0.812,0.412,1
1.896,-0.71,0.404,0
1.724,-0.612,0.095,0
1.334,-0.574,-0.612,0
1.003,-0.566,-1.256,0
0.711,-0.51,-2.035,0
0.608,-0.47,-2.384,0
0.527,-0.323,-2.761,0
0.657,-0.197,-2.878,0
0.666,-0.21,-2.872,0
1.311,0.384,-2.62,0
1.492,0.63,-2.243,0
1.456,0.706,-1.755,0
1.196,0.623,-0.995,0
0.951,0.481,-0.588,0
0.707,0.343,-0.178,0
0.691,0.296,0.1,0
0.878,0.342,0.402,0
1.19,0.348,0.195,0
1.168,0.32,0.202,0
1.803,0.649,-0.199,0
2.207,0.748,0.341,0
2.165,0.71,0.928,0
1.658,0.651,1.825,0
1.229,0.595,2.264,0
0.73,0.335,2.637,0
0.436,0.088,2.62,0
0.398,-0.021,2.278,0
0.64,0.043,2.14,0
0.754,0.12,1.821,0
0.713,0.334,1.374,0
0.717,0.265,1.4,0
0.243,1.092,-0.78,0
0.221,1.069,-2.042,1
0.246,0.998,-2.419,1
0.296,0.868,-1.984,1
0.312,0.753,-0.963,1
0.818,0.223,0.701,1
1.296,-0.331,1.986,1
1.72,-0.839,3.505,1
1.535,-1.186,4.545,1
0.979,-1.455,5.279,1
0.495,-1.476,4.955,1
-0.015,-1.36,2.489,1
0.005,-1.126,0.369,1
-0.138,-0.961,-1.935,1
-0.254,-0.915,-2.797,1
-0.353,-0.798,-2.794,1
-0.338,-0.674,-2.112,1
-0.026,-0.544,-0.927,1
0.32,-0.648,0.109,1
0.708,-0.881,1.291,1
0.758,-1.017,1.843,1
0.731,-1.125,1.422,1
0.637,-1.09,0.624,0
0.643,-1.044,-0.436,0
0.693,-0.956,-1.179,0
0.718,-0.737,-1.945,0
0.749,-0.648,-2.313,0
0.539,-0.453,-2.328,0
0.454,-0.314,-2.211,0
0.412,-0.226,-1.71,0
0.344,-0.139,-1.409,0
0.396,-0.05,-1.535,0
0.465,-0.016,-1.783,0
0.308,-0.011,-1.694,0
0.238,0.009,-1.6,0
0.185,0.04,-1.698,0
0.173,0.081,-1.725,0
0.207,0.17,-1.571,0
0.446,0.308,-1.428,0
0.685,0.381,-0.901,0
0.713,0.442,-0.342,0
0.597,0.361,0.451,0
0.393,0.208,1.035,0
0.309,0.118,1.533,0
0.271,0.215,1.699,0
0.16,0.24,1.568,0
0.202,0.222,1.396,0
0.446,0.253,1.421,0
0.677,0.253,1.761,0
0.818,0.232,2.197,0
0.84,0.221,2.359,0
0.685,0.412,2.437,0
0.408,0.745,2.27,0
-0.176,1.264,1.132,0
-0.21,1.199,0.021,0
0.22,1.032,-1.048,1
0.422,1.087,-1.263,1
0.839,0.879,-0.378,1
1.001,0.509,0.922,1
0.717,0.056,2.528,1
0.636,-0.382,3.463,1
0.417,-0.899,4.503,1
0.204,-1.173,5.191,1
-0.156,-1.242,5.563,1
-0.262,-1.169,5.045,1
-0.064,-0.898,3.096,1
0.248,-0.59,1.346,1
0.721,-0.377,-0.614,1
1.098,-0.28,-1.428,1
1.362,-0.217,-1.473,1
1.411,-0.258,-0.753,1
1.539,-0.474,0.454,1
1.67,-0.631,1.152,1
1.626,-0.914,1.2,1
1.642,-0.907,1.199,1
1.201,-1.158,-0.468,1
1.135,-1.125,-1.233,0
1.31,-0.919,-2.275,0
1.417,-0.712,-2.946,0
1.456,-0.584,-3.704,0
1.357,-0.532,-3.925,0
0.99,-0.473,-3.458,0
0.935,-0.418,-3.013,0
0.968,-0.184,-2.506,0
0.992,-0.049,-2.362,0
1.041,0.087,-2.333,0
1.095,0.134,-2.301,0
1.046,0.16,-2.087,0
0.94,0.169,-1.63,0
0.875,0.086,-1.021,0
0.836,0.057,-0.623,0
0.744,0.133,-0.296,0
0.809,0.176,-0.258,0
1.052,0.331,-0.06,0
1.168,0.435,0.103,0
1.34,0.515,0.156,0
1.389,0.604,0.199,0
1.169,0.645,0.243,0
0.976,0.602,0.369,0
0.714,0.603,0.789,0
0.607,0.574,1.097,0
0.559,0.566,1.495,0
0.648,0.604,1.702,0
0.552,0.651,2.038,0
0.53,0.648,2.247,0
0.44,0.756,2.338,0
-0.03,1.01,2.119,0
-0.018,0.967,2.137,0
-0.497,1.048,0.267,0
-0.019,1.236,-1.011,1
0.355,1.506,-1.23,1
0.933,1.642,-0.457,1
1.448,1.108,0.884,1
1.886,0.17,3.75,1
1.674,-0.337,6.106,1
0.976,-1.247,8.481,1
0.323,-2.104,9.274,1
-0.595,-2.577,7.754,1
-0.789,-2.525,5.847,1
-0.734,-2.536,5.855,1
-0.466,-1.82,-0.76,1
0.151,-1.504,-3.438,1
0.489,-1.117,-4.597,1
0.684,-0.663,-4.849,1
0.818,-0.431,-4.257,1
0.979,-0.357,-2.809,1
1.049,-0.483,-1.415,1
0.958,-0.876,0.119,1
0.809,-1.096,0.496,1
0.775,-1.182,0.196,1
0.812,-1.081,-0.428,0
0.798,-1.095,-0.424,0
0.838,-0.89,-1.982,0
0.679,-0.791,-2.403,0
0.58,-0.782,-2.359,0
0.483,-0.798,-1.873,0
0.464,-0.756,-1.479,0
0.513,-0.599,-0.797,0
0.612,-0.465,-0.233,0
0.635,-0.381,0.091,0
0.587,-0.246,-0.246,0
0.677,-0.061,-1.059,0
0.752,0.002,-1.574,0
0.742,0.048,-1.836,0
0.633,0.02,-1.781,0
0.539,-0.112,-1.656,0
0.478,-0.194,-1.48,0
0.434,-0.249,-0.635,0
0.566,-0.262,-0.216,0
0.553,-0.268,-0.214,0
0.588,-0.113,0.612,0
0.732,0.136,0.751,0
0.782,0.396,0.719,0
0.922,0.606,0.318,0
1.039,0.705,0.105,0
1.039,0.715,0.323,0
1.012,0.548,0.91,0
1.009,0.31,1.611,0
0.81,0.261,2.366,0
0.435,0.284,3.226,0
-0.015,0.497,3.195,0
-0.294,0.38,1.474,0
0,0.197,-0.133,0
0.649,0.365,-1.505,1
1.094,0.507,-1.49,1
1.743,0.375,-0.291,1
1.614,0.125,0.864,1
1.001,-0.618,2.108,1
0.916,-1.189,3.015,1
0.691,-1.632,3.906,1
0.314,-1.76,4.244,1
-0.179,-1.659,3.846,1
-0.312,-1.432,2.961,1
0.001,-1,1.113,1
0.313,-0.714,-0.158,1
0.498,-0.625,-1.593,1
0.479,-0.571,-2.04,1
0.5,-0.639,-1.814,1
0.59,-0.741,-1.145,1
0.724,-0.821,-0.137,1
0.879,-0.9,0.462,1
1.076,-1.034,0.91,1
1.029,-1.061,1.038,1
0.881,-1.105,0.749,1
0.761,-1.048,0.435,0
0.838,-0.846,-0.179,0
1.039,-0.606,-0.712,0
1.195,-0.264,-1.296,0
1.256,-0.106,-1.604,0
1.309,0,-1.918,0
1.263,-0.006,-1.972,0
1.096,0.061,-1.921,0
1.004,0.013,-1.991,0
0.914,-0.059,-1.706,0
0.745,-0.053,-0.947,0
0.639,-0.046,-0.324,0
0.557,0.016,-0.217,0
0.646,0.138,-0.589,0
0.771,0.233,-1.009,0
0.86,0.331,-1.36,0
0.971,0.337,-1.464,0
1.051,0.314,-1.499,0
1.011,0.291,-1.267,0
0.849,0.163,-0.731,0
0.838,0.101,-0.373,0
0.797,0.164,0.421,0
0.729,0.247,0.869,0
0.591,0.33,1.127,0
0.535,0.363,0.967,0
0.367,0.427,0.467,0
0.382,0.481,0.569,0
0.527,0.484,1.348,0
0.52,0.432,1.966,0
0.627,0.496,2.555,0
0.583,0.519,2.847,0
-0.06,0.88,2.666,0
-0.382,1.048,1.578,0
-0.473,0.807,-0.249,1
-0.328,0.66,-1.032,1
0.148,0.689,-1.599,1
0.444,0.842,-1.226,1
0.903,0.538,0.199,1
1.332,0.125,1.546,1
1.644,-0.476,3.534,1
1.512,-0.848,4.851,1
0.773,-1.314,5.89,1
0.09,-1.46,5.458,1
-0.494,-1.42,3.18,1
-0.246,-1.292,1.143,1
-0.153,-0.99,-1.444,1
-0.155,-0.885,-2.621,1
-0.031,-0.74,-2.979,1
0.001,-0.567,-2.577,1
0.072,-0.588,-1.239,1
0.3,-0.793,-0.114,1
0.465,-1.088,1.01,1
0.477,-1.279,1.434,1
0.457,-1.404,1.562,1
0.466,-1.466,1.13,0
0.605,-1.238,0.07,0
0.831,-0.948,-0.936,0
1.016,-0.67,-1.908,0
1.123,-0.494,-2.451,0
1.125,-0.368,-2.745,0
0.984,-0.356,-2.686,0
0.639,-0.397,-2.3,0
0.499,-0.346,-1.747,0
0.348,-0.367,-1.206,0
0.205,-0.375,-1.136,0
0.027,-0.433,-1.288,0
-0.006,-0.43,-1.386,0
0.117,-0.421,-1.658,0
0.044,-0.408,-1.728,0
0.121,-0.4,-1.458,0
0.292,-0.327,-0.938,0
0.355,-0.187,0,0
0.394,-0.072,0.43,0
0.346,-0.05,0.734,0
0.343,-0.037,0.719,0
0.327,-0.044,0.721,0
0.297,-0.044,1.059,0
0.249,0.069,1.367,0
0.261,0.056,1.291,0
0.272,-0.026,1.149,0
0.425,-0.094,1.167,0
0.528,-0.294,1.158,0
0.587,-0.243,1.472,0
0.808,-0.02,2.339,0
0.865,0.116,2.902,0
0.43,0.663,2.696,0
0.251,0.945,1.667,0
0.625,0.648,0.287,1
1.029,0.635,-0.242,1
1.626,0.752,0.051,1
2.107,0.57,0.755,1
2.448,0.26,1.957,1
2.042,0.215,3.043,1
1.523,-0.048,3.457,1
1.26,-0.303,2.815,1
0.607,-0.655,1.458,1
0.45,-0.629,0.794,1
0.573,-0.434,0.012,1
0.663,-0.414,-0.502,1
0.517,-0.554,-0.586,1
0.54,-0.683,-0.431,1
0.534,-0.814,-0.202,1
0.45,-1.026,-0.007,1
0.525,-1.25,0.183,1
0.66,-1.277,0.265,1
1.06,-1.264,0.095,1
1.207,-1.258,-0.119,1
1.318,-1.242,-0.477,1
1.327,-1.194,-0.752,0
1.212,-1.19,-1.167,0
1.144,-1.213,-1.528,0
0.894,-1.171,-1.653,0
0.769,-1.106,-1.62,0
0.59,-0.901,-1.41,0
0.62,-0.707,-1.312,0
0.795,-0.309,-1.469,0
0.831,-0.087,-1.899,0
0.753,0.096,-2.382,0
0.553,0.059,-2.69,0
0.466,0.051,-2.728,0
0.278,0.061,-2.317,0
0.118,0.061,-1.291,0
0.199,0.098,-0.54,0
0.292,0.158,-0.09,0
0.273,0.274,0.007,0
0.601,0.419,0.126,0
0.894,0.501,-0.02,0
1.093,0.521,-0.152,0
1.063,0.465,-0.104,0
0.873,0.352,0.192,0
0.702,0.298,0.661,0
0.665,0.274,1.195,0
0.604,0.309,1.385,0
0.392,0.322,1.637,0
0.414,0.381,1.696,0
0.402,0.453,1.571,0
0.528,0.41,1.217,0
0.872,0.32,0.959,0
1.106,0.242,1.295,0
1.312,0.175,1.928,0
0.828,0.532,2.384,0
-0.039,0.663,1.668,1
-0.018,0.62,1.689,1
-0.418,0.423,-0.098,1
-0.275,0.602,-0.498,1
-0.144,0.802,-0.73,1
0.066,0.879,-0.755,1
0.631,0.512,-0.55,1
1.202,-0.029,0.069,1
1.297,-0.869,2.036,1
0.966,-1.312,3.476,1
0.358,-1.547,4.741,1
0.067,-1.557,4.698,1
0.006,-1.407,2.979,1
0.138,-1.145,1.086,1
0.317,-0.615,-0.861,1
0.361,-0.338,-1.727,1
0.329,-0.366,-2.076,1
0.29,-0.606,-1.692,1
0.3,-1.051,-0.433,1
0.341,-1.261,0.298,1
0.409,-1.441,1.054,1
0.522,-1.51,1.298,0
0.472,-1.497,1.289,0
1.003,-1.232,-0.028,0
1.22,-0.951,-1.312,0
1.368,-0.794,-2.247,0
1.539,-0.64,-2.938,0
1.666,-0.552,-3.041,0
1.721,-0.336,-2.82,0
1.507,-0.2,-2.429,0
1.167,-0.218,-1.945,0
0.783,-0.32,-1.414,0
0.405,-0.357,-0.932,0
0.262,-0.294,-0.911,0
0.3,-0.101,-0.905,0
0.32,-0.02,-0.917,0
0.328,-0.009,-0.997,0
0.222,0.034,-0.818,0
0.214,0.001,-0.423,0
0.174,0.019,-0.064,0
0.178,0.065,0.274,0
0.324,0.141,0.522,0
0.536,0.203,0.768,0
0.607,0.247,0.868,0
0.626,0.302,0.862,0
0.656,0.21,0.782,0
0.734,0.088,0.938,0
0.786,-0.035,1.458,0
0.903,-0.083,2.25,0
0.907,-0.139,2.798,0
0.947,-0.109,3.151,0
1.024,0.166,2.989,0
0.675,0.846,1.819,0
0.652,0.856,0.584,1
1.603,0.78,-0.736,1
1.9,0.908,-0.905,1
1.912,0.746,0.231,1
1.951,0.287,1.548,1
1.359,-0.304,3.342,1
0.854,-0.737,4.258,1
0.514,-1.128,4.543,1
0.333,-1.252,4.064,1
0.119,-1.228,3.167,1
0.227,-1.044,2.541,1
0.656,-0.55,1.223,1
0.825,-0.319,0.306,1
0.878,-0.343,-0.711,1
0.962,-0.376,-1.146,1
0.874,-0.504,-1.118,1
0.729,-0.766,-0.678,1
0.629,-1.015,0.085,1
0.654,-1.179,0.659,1
0.727,-1.242,0.953,1
0.821,-1.211,0.618,1
1.009,-1.118,-0.364,0
1.278,-0.99,-1.376,0
1.491,-0.825,-2.165,0
1.472,-0.746,-2.117,0
1.379,-0.545,-1.938,0
1.262,-0.483,-1.989,0
1.167,-0.499,-2.24,0
0.98,-0.443,-2.123,0
0.729,-0.476,-1.889,0
0.496,-0.445,-1.938,0
0.228,-0.443,-2.089,0
0.261,-0.42,-2.12,0
0.273,-0.425,-2.117,0
0.885,0.125,-1.774,0
0.883,0.115,-1.77,0
1.158,0.368,-1.642,0
1.007,0.39,-1.08,0
1.003,0.396,-0.51,0
0.774,0.282,-0.071,0
0.633,0.159,-0.045,0
0.594,0.083,0.058,0
0.641,0.117,0.231,0
0.742,0.151,0.288,0
0.774,0.294,0.366,0
0.933,0.506,0.583,0
0.955,0.528,0.643,0
0.688,0.451,0.772,0
0.361,0.367,0.933,0
0.047,0.166,1.103,0
0.01,0.059,1.247,0
0.054,0.056,1.651,0
0.318,-0.05,1.791,0
0.314,0.127,1.809,0
-0.085,0.665,1.388,0
-0.207,1.101,0.216,1
0.062,1.28,-0.379,1
0.386,1.597,-0.804,1
0.679,1.737,-0.733,1
1.14,1.403,0.199,1
1.578,0.674,1.41,1
1.885,-0.239,3.522,1
1.801,-0.869,5.049,1
0.973,-1.464,6.471,1
0.304,-1.611,6.237,1
-0.29,-1.605,3.534,1
-0.005,-1.149,1.115,1
0.425,-0.606,-1.49,1
0.639,-0.418,-2.9,1
0.667,-0.141,-3.358,1
0.534,-0.013,-2.547,1
0.488,-0.337,-0.638,1
0.566,-0.729,0.799,1
0.598,-1.287,2.056,1
0.339,-1.614,2.315,1
0.137,-1.803,2.061,1
0.108,-1.883,1.637,0
0.311,-1.835,0.615,0
0.577,-1.606,-0.339,0
0.76,-1.24,-1.665,0
0.873,-1.09,-2.621,0
1.014,-0.952,-3.724,0
1.024,-0.768,-4.114,0
1.111,-0.468,-4.144,0
1.205,-0.329,-3.799,0
1.052,-0.264,-2.989,0
0.958,-0.275,-2.426,0
0.971,-0.289,-1.717,0
0.862,-0.246,-1.172,0
0.723,-0.235,-0.834,0
0.758,-0.225,-0.944,0
0.665,-0.086,-0.89,0
0.666,0,-0.809,0
0.647,-0.008,-0.812,0
0.55,-0.069,-0.595,0
0.453,-0.104,-0.102,0
0.571,-0.045,0.262,0
0.814,0.008,0.877,0
0.859,0.086,1.538,0
0.838,0.182,1.791,0
0.799,0.299,1.666,0
0.632,0.258,1.533,0
0.623,0.227,1.534,0
0.74,0.2,1.598,0
0.838,0.14,1.643,0
0.824,0.139,1.624,0
0.726,0.26,1.702,0
0.314,0.705,1.426,0
0.307,0.842,0.945,1
1.023,0.767,0.385,1
1.239,0.94,0.152,1
1.132,0.919,0.195,1
1.02,0.542,0.662,1
0.505,0.14,1.599,1
0.302,-0.193,2.175,1
0.611,-0.726,2.652,1
0.819,-0.884,2.9,1
0.872,-0.911,3.291,1
0.806,-0.897,3.327,1
0.759,-0.835,2.622,1
0.708,-0.739,1.727,1
0.823,-0.607,0.571,1
0.87,-0.557,-0.205,1
0.871,-0.61,-1.154,1
1.033,-0.745,-1.799,1
1.134,-0.911,-2.226,1
1.265,-0.974,-2.052,1
1.682,-1.045,-1.172,1
1.773,-1.006,-0.087,1
1.604,-1.129,1.385,0
1.434,-1.172,1.903,0
0.946,-1.105,1.601,0
0.599,-1.069,0.79,0
0.517,-0.875,-0.316,0
0.578,-0.649,-1.123,0
0.598,-0.369,-2.184,0
0.581,-0.302,-2.642,0
0.639,-0.163,-2.802,0
0.73,-0.063,-2.358,0
0.987,0.061,-1.832,0
1.029,0.218,-1.464,0
1.055,0.295,-0.96,0
0.973,0.279,-0.542,0
0.778,0.319,-0.62,0
0.673,0.27,-0.903,0
0.605,0.113,-1.153,0
0.633,0.174,-0.964,0
0.8,0.273,-0.704,0
0.897,0.386,-0.528,0
1.052,0.516,-0.041,0
1.197,0.55,0.255,0
1.155,0.526,0.668,0
1.023,0.44,0.765,0
0.666,0.3,0.45,0
0.574,0.121,0.172,0
0.526,0.043,0.106,0
0.432,0.046,0.819,0
0.498,0.04,1.834,0
0.392,-0.027,2.351,0
0.385,0.073,2.691,0
0.753,0.087,2.747,0
0.848,0.359,2.345,0
0.224,0.874,1.607,0
-0.353,0.973,-0.149,0
-0.333,0.866,-1.438,0
-0.18,0.893,-2.72,1
0.192,0.861,-3.257,1
0.599,0.8,-2.961,1
1.129,0.627,-2.222,1
1.505,0.078,-0.072,1
1.373,-0.643,2.087,1
1.09,-1.37,4.497,1
0.667,-1.388,5.084,1
0.239,-1.406,4.167,1
0.36,-1.302,2.249,1
0.353,-1.275,2.239,1
0.643,-0.571,-1.31,1
0.642,-0.481,-1.184,1
0.406,-0.483,-0.3,1
0.176,-0.627,1.283,1
0.199,-0.874,2.208,1
0.029,-1.23,3.026,1
0.049,-1.401,2.991,1
0.229,-1.394,2.182,1
0.499,-1.279,1.132,1
1.023,-1.014,-0.39,1
1.292,-0.823,-1.472,0
1.228,-0.743,-2.387,0
1.06,-0.695,-2.557,0
0.612,-0.69,-2.095,0
0.403,-0.695,-1.664,0
0.021,-0.764,-0.917,0
-0.14,-0.734,-0.641,0
-0.1,-0.492,-1.193,0
0.162,-0.222,-1.937,0
0.467,0.18,-2.777,0
0.569,0.29,-3.325,0
0.585,0.428,-3.491,0
0.445,0.466,-3.096,0
0.216,0.254,-1.83,0
0.062,0.048,-0.784,0
-0.089,-0.09,0.286,0
-0.074,-0.1,0.661,0
0.053,-0.032,0.539,0
0.224,0.03,0.181,0
0.525,0.194,-0.18,0
0.799,0.315,-0.06,0
0.962,0.492,0.719,0
0.867,0.488,1.111,0
0.858,0.481,1.114,0
0.327,0.323,1.476,0
0.122,0.137,1.309,0
0.202,-0.028,1.063,0
0.374,0.044,1.149,0
0.491,0.092,1.235,0
0.357,0.321,1.274,0
0.178,0.727,1.238,0
0.509,0.755,0.869,0
0.703,0.634,0.719,0
0.688,0.611,0.99,0
0.692,0.47,1.482,0
0.677,0.503,1.47,1
0.258,0.137,3.234,1
0.411,-0.166,3.419,1
0.433,-0.448,3.414,1
0.472,-1.05,3.728,1
0.331,-1.291,3.995,1
-0.148,-1.318,3.838,1
-0.203,-1.174,3.255,1
0.291,-0.903,1.77,1
0.675,-0.612,0.467,1
0.908,-0.356,-0.674,1
1.183,-0.224,-1.322,1
1.345,-0.216,-1.487,1
1.383,-0.273,-1.017,1
1.106,-0.544,0.151,1
0.711,-0.809,0.68,1
0.263,-1.22,0.972,1
0.151,-1.286,0.781,1
0.118,-1.267,0.091,1
0.218,-1.181,-0.595,1
0.435,-0.963,-1.711,1
0.59,-0.691,-2.529,0
0.606,-0.439,-2.927,0
0.731,-0.24,-2.983,0
0.852,0.083,-3.01,0
0.949,0.214,-2.967,0
0.779,0.27,-2.499,0
0.599,0.2,-2.113,0
0.219,0.022,-1.827,0
0.049,-0.104,-1.808,0
0.024,-0.056,-1.566,0
0.134,0.061,-1.365,0
0.46,0.319,-1.505,0
0.56,0.427,-1.674,0
0.434,0.466,-1.389,0
0.386,0.486,-1.1,0
0.492,0.533,-0.756,0
0.628,0.503,-0.688,0
0.52,0.385,-0.231,0
0.233,0.261,0.169,0
-0.149,0.085,0.114,0
-0.179,0.004,0.213,0
-0.174,-0.017,0.221,0
-0.327,0.042,0.84,0
-0.027,0.165,1.133,0
0.026,0.232,1.326,0
0.24,0.359,1.835,0
0.642,0.388,2.439,0
0.837,0.407,3.557,0
0.272,0.637,4.044,0
-0.2,1.029,2.589,0
-0.12,0.936,1.074,0
-0.169,0.977,-0.656,1
-0.147,1.05,-1.364,1
0.1,1.007,-1.249,1
0.456,0.792,-0.715,1
1.07,0.363,0.525,1
1.374,-0.157,2.132,1
1.659,-0.87,4.39,1
1.489,-1.219,5.185,1
0.554,-1.32,4.495,1
0.073,-1.392,2.909,1
0.031,-1.181,0.603,1
-0.078,-0.938,-1.009,1
-0.479,-0.941,-2.625,1
-0.758,-0.868,-2.626,1
-0.766,-0.703,-1.531,1
-0.54,-0.668,-0.446,1
-0.037,-0.842,0.884,1
0.181,-1.106,1.451,1
0.263,-1.351,1.616,1
0.265,-1.54,1.354,1
0.19,-1.611,0.571,1
0.176,-1.556,-0.163,0
0.333,-1.373,-1.307,0
0.379,-1.191,-2.095,0
0.484,-0.963,-2.855,0
0.534,-0.772,-3.046,0
0.532,-0.555,-2.921,0
0.512,-0.387,-2.763,0
0.477,-0.151,-2.397,0
0.481,-0.137,-2.403,0
0.548,0.064,-2.241,0
0.45,0.148,-2.179,0
0.303,0.134,-2.016,0
0.124,0.197,-1.863,0
0.021,0.168,-1.524,0
-0.007,0.072,-1.306,0
-0.083,0.042,-0.816,0
-0.097,-0.001,-0.174,0
0.06,-0.115,0.887,0
0.145,-0.095,1.723,0
-0.033,-0.089,2.837,0
-0.139,-0.105,3.255,0
-0.364,-0.048,3.101,0
-0.501,0.071,2.653,0
-0.466,0.224,1.836,0
-0.235,0.387,1.048,0
0.022,0.535,0.328,0
0.269,0.491,0.412,0
0.311,0.333,1.494,0
0.251,0.29,2.031,0
0.274,0.425,2.536,0
0.078,0.793,2.326,0
-0.073,1.153,0.543,1
0.532,1.047,-0.678,1
1.402,1.085,-1.716,1
1.726,1.106,-1.548,1
2.03,0.631,0.437,1
1.919,0.011,2.586,1
1.201,-0.498,4.634,1
0.498,-0.792,5.24,1
0.1,-1.035,3.978,1
0.019,-1.07,2.437,1
0.327,-0.663,0.804,1
0.665,-0.329,-0.049,1
0.894,-0.145,-0.695,1
0.961,-0.176,-0.778,1
0.981,-0.461,-0.77,1
0.932,-0.631,-0.77,1
0.844,-1.015,-0.592,1
0.74,-1.308,-0.148,1
0.731,-1.286,-0.157,1
0.504,-1.665,0.468,1
0.556,-1.664,0.388,1
0.6,-1.573,0.112,0
0.789,-1.333,-0.568,0
1.002,-1.093,-1.233,0
1.143,-0.863,-1.841,0
1.217,-0.729,-2.124,0
1.039,-0.529,-2.112,0
0.749,-0.48,-1.966,0
0.395,-0.452,-1.741,0
0.074,-0.35,-1.593,0
-0.242,-0.335,-1.625,0
-0.264,-0.342,-1.902,0
-0.177,-0.107,-2.148,0
-0.035,-0.037,-2.218,0
0.238,0.233,-1.692,0
0.238,0.229,-1.69,0
0.743,0.536,-0.762,0
0.726,0.507,-0.65,0
0.695,0.463,-0.553,0
0.692,0.421,-0.518,0
0.685,0.299,-0.366,0
0.662,0.207,-0.183,0
0.582,0.138,0.042,0
0.477,0.088,0.223,0
0.263,0.151,0.295,0
0.241,0.143,0.229,0
0.272,0.263,0.147,0
0.34,0.33,0.376,0
0.338,0.408,0.93,0
0.177,0.332,1.41,0
-0.071,0.192,2.064,0
-0.108,0.145,2.527,0
0.093,-0.072,3.012,0
0.257,-0.116,3.186,0
-0.086,0.543,2.794,1
-0.335,1.048,1.515,1
0.004,1.132,-0.027,1
0.455,1.261,-0.783,1
0.787,1.462,-0.858,1
0.918,1.269,-0.018,1
0.846,0.848,1.365,1
0.705,0.29,2.205,1
0.623,-0.526,2.941,1
0.655,-0.963,3.142,1
0.368,-1.324,3.183,1
0.077,-1.356,2.694,1
-0.04,-1.166,1.464,1
-0.106,-1.03,0.406,1
-0.254,-0.844,-0.671,1
-0.362,-0.798,-0.924,1
-0.589,-0.717,-1.055,1
-0.781,-0.753,-1.029,1
-0.887,-0.886,-0.976,1
-0.671,-1.055,-0.923,1
-0.211,-1.243,-0.611,1
0.209,-1.235,-0.212,0
0.668,-1.214,0.196,0
0.71,-1.251,0.262,0
0.584,-1.287,-0.062,0
0.364,-1.294,-0.561,0
0.209,-1.355,-1.614,0
0.304,-1.244,-2.166,0
0.19,-1.139,-2.102,0
0.123,-1.203,-1.96,0
-0.047,-1.042,-1.813,0
-0.137,-0.864,-1.721,0
-0.175,-0.65,-1.903,0
-0.142,-0.419,-1.935,0
-0.12,-0.199,-1.949,0
-0.13,-0.167,-2.029,0
-0.199,-0.088,-1.892,0
-0.227,-0.163,-1.577,0
-0.174,-0.219,-1.073,0
-0.12,-0.165,-0.565,0
-0.094,-0.111,0.342,0
-0.044,-0.13,0.932,0
-0.071,-0.075,1.484,0
-0.031,-0.091,1.89,0
0.084,-0.071,2.228,0
0.075,-0.002,2.125,0
0.047,0.133,1.571,0
0.11,0.245,1.179,0
0.362,0.251,0.78,0
0.37,0.226,0.728,0
0.301,-0.006,0.914,0
0.372,-0.022,1.159,0
0.36,-0.053,1.171,0
0.683,0.36,1.446,0
0.675,0.33,1.458,0
0.399,1.066,0.324,0
1.051,1.003,-0.325,1
1.165,1.004,-0.183,1
1.23,0.845,0.617,1
1.364,0.513,1.424,1
1.048,0.161,2.498,1
0.697,-0.202,2.92,1
0.701,-0.575,2.839,1
0.696,-0.641,2.576,1
0.6,-0.672,2.308,1
0.528,-0.64,1.991,1
0.375,-0.574,1.346,1
0.323,-0.559,0.755,1
0.214,-0.66,0.165,1
0.111,-0.741,-0.043,1
0.028,-0.784,-0.226,1
0.117,-0.8,-0.339,1
0.34,-0.857,-0.242,1
0.555,-0.796,-0.034,1
0.868,-0.727,0.287,1
1.06,-0.707,0.454,1
1.077,-0.777,0.414,1
0.989,-0.893,0.151,0
0.86,-1.01,-0.282,0
0.77,-0.964,-0.502,0
0.543,-1.015,-0.883,0
0.372,-1.007,-1.222,0
0.379,-0.876,-1.636,0
0.479,-0.672,-1.81,0
0.486,-0.683,-1.806,0
0.704,-0.173,-1.869,0
0.735,0.018,-1.954,0
0.864,0.136,-2.122,0
0.953,0.307,-2.443,0
0.949,0.323,-2.495,0
0.756,0.171,-2.293,0
0.642,0.19,-2.104,0
0.518,0.165,-1.656,0
0.473,0.082,-1.351,0
0.38,0.013,-1.022,0
0.328,-0.064,-0.679,0
0.254,-0.04,-0.248,0
0.241,0.007,-0.049,0
0.517,0.176,0.134,0
0.673,0.325,0.334,0
0.876,0.405,0.529,0
0.973,0.464,0.792,0
0.827,0.33,1.34,0
0.749,0.229,1.858,0
0.367,0.135,2.484,0
0.316,0.026,2.559,0
0.419,-0.079,2.334,0
0.537,-0.097,2.148,0
0.661,0.015,1.785,0
0.166,0.447,1.696,0
-0.335,0.862,0.935,0
-0.058,0.83,-0.12,0
0.322,1.071,-1.005,1
0.435,1.202,-0.701,1
0.578,1.178,0.627,1
0.345,0.839,1.671,1
0.456,-0.108,2.647,1
0.801,-0.623,3.323,1
1.411,-1.033,4.279,1
1.472,-1.005,5.042,1
1.215,-0.861,5.21,1
0.87,-0.807,3.731,1
0.109,-0.824,0.416,1
-0.184,-0.759,-1.271,1
-0.577,-0.687,-2.698,1
-0.812,-0.74,-2.948,1
-1.134,-0.811,-2.621,1
-1.081,-0.903,-2.07,1
-0.841,-1.195,-1.201,1
-0.547,-1.264,-0.627,1
-0.166,-1.375,-0.145,1
0.115,-1.409,-0.083,1
0.308,-1.404,-0.162,1
0.276,-1.484,-0.348,0
0.255,-1.458,-0.358,0
-0.048,-1.418,-1.079,0
-0.193,-1.277,-1.302,0
-0.176,-1.166,-1.464,0
-0.159,-0.974,-1.637,0
-0.017,-0.747,-1.827,0
0.283,-0.35,-2.172,0
0.645,-0.133,-2.535,0
0.769,0.158,-2.394,0
0.679,0.285,-2.102,0
0.478,0.249,-1.93,0
0.136,0.156,-1.868,0
-0.115,0.051,-1.698,0
-0.036,-0.004,-1.623,0
-0.06,-0.039,-1.136,0
-0.083,0.006,-0.476,0
0.068,-0.04,-0.123,0
0.157,0.009,0.028,0
-0.048,0.069,0.837,0
0.002,-0.078,1.492,0
-0.232,-0.095,1.961,0
-0.577,-0.184,1.984,0
-0.585,-0.389,1.57,0
-0.558,-0.363,1.426,0
-0.249,-0.198,1.696,0
-0.038,-0.089,1.89,0
0.228,0.033,1.778,0
0.196,0.134,1.601,0
0.321,0.55,1.472,0
0.221,1.129,1.024,0
0.344,1.621,-0.12,0
1.013,1.665,-0.84,0
1.605,1.712,-0.943,1
1.703,1.704,-0.053,1
1.691,1.231,2.076,1
1.095,0.554,4.022,1
0.169,-0.281,5.589,1
-0.085,-0.746,5.698,1
-0.14,-1.123,5.645,1
-0.266,-1.209,5.729,1
-0.268,-1.082,5.329,1
-0.109,-0.931,4.295,1
0.027,-0.747,2.259,1
0.153,-0.674,1.151,1
0.255,-0.637,-0.161,1
0.353,-0.628,-0.75,1
0.544,-0.735,-1.451,1
0.71,-0.871,-1.668,1
0.961,-0.937,-1.577,1
1.223,-0.933,-1.453,1
1.242,-0.937,-1.451,1
1.499,-0.974,-1.064,1
1.508,-0.978,-1.062,1
1.141,-1.131,-1.078,0
0.891,-1.011,-1.656,0
0.766,-0.948,-2.21,0
0.59,-0.765,-2.675,0
0.502,-0.585,-2.815,0
0.509,-0.612,-2.805,0
0.38,-0.388,-2.668,0
0.336,-0.263,-2.554,0
0.325,-0.216,-2.308,0
0.22,-0.352,-1.889,0
0.132,-0.347,-1.654,0
0.134,-0.358,-1.65,0
0.101,-0.314,-1.247,0
0.102,-0.328,-1.241,0
0.253,-0.156,-1.568,0
0.445,-0.031,-1.72,0
0.437,0.024,-1.533,0
0.4,0.006,-0.923,0
0.377,-0.102,-0.379,0
0.022,-0.363,0.818,0
-0.169,-0.623,1.623,0
-0.355,-0.799,2.181,0
-0.317,-0.692,1.911,0
-0.279,-0.52,1.389,0
-0.205,-0.265,1.023,0
0.191,0.203,0.637,0
0.278,0.323,0.728,0
0.31,0.363,1.224,0
0.432,0.306,1.722,0
0.582,0.359,2.27,0
0.304,0.626,2.569,0
0.137,1.015,2.154,0
0.307,1.31,1.079,0
0.296,1.261,1.099,1
0.342,1.556,-0.266,1
0.536,1.488,-0.431,1
0.711,1.141,-0.025,1
1.005,0.327,1.762,1
1.054,-0.119,3.224,1
0.967,-0.752,4.905,1
0.51,-1.136,5.674,1
-0.318,-1.437,5.108,1
-0.706,-1.482,3.276,1
-0.774,-1.186,0.207,1
-0.915,-0.984,-1.431,1
-1.059,-0.908,-3.247,1
-1.037,-0.94,-3.825,1
-1.154,-0.893,-3.294,1
-0.907,-0.942,-2.057,1
-0.381,-1.087,-0.43,1
-0.2,-1.253,0.467,1
0.077,-1.465,0.839,1
0.223,-1.557,0.711,1
0.402,-1.656,0.198,1
0.456,-1.659,-0.137,0
0.461,-1.75,-0.541,0
0.261,-1.658,-0.834,0
-0.001,-1.495,-1.211,0
-0.137,-1.428,-1.565,0
-0.269,-1.224,-2.075,0
-0.338,-1.002,-2.323,0
-0.269,-0.773,-2.577,0
-0.266,-0.549,-2.677,0
-0.092,-0.304,-2.657,0
0.133,-0.119,-2.416,0
0.093,-0.012,-1.644,0
0.012,-0.08,-1.135,0
-0.164,-0.209,-0.581,0
-0.279,-0.296,-0.068,0
-0.381,-0.378,0.359,0
-0.468,-0.442,0.56,0
-0.54,-0.571,0.922,0
-0.508,-0.562,1.267,0
-0.41,-0.325,1.783,0
-0.216,-0.141,1.793,0
-0.111,0.117,1.376,0
0.004,0.273,0.872,0
0.19,0.486,0.562,0
0.265,0.46,0.413,0
0.384,0.493,0.541,0
0.469,0.431,0.837,0
0.407,0.386,1.681,0
0.361,0.42,2.417,0
0.287,0.513,2.659,0
-0.188,0.71,2.379,0
-0.388,0.905,1.573,1
-0.084,0.938,0.884,1
0.144,1.032,0.317,1
0.49,1.01,0.467,1
1.025,0.649,1.494,1
0.754,0.273,2.634,1
-0.01,-0.275,3.764,1
-0.156,-0.574,3.762,1
-0.184,-0.598,2.546,1
-0.163,-0.547,1.42,1
-0.043,-0.507,0.399,1
-0.015,-0.599,0.033,1
-0.1,-0.758,-0.072,1
-0.169,-0.902,-0.044,1
-0.255,-1.172,0.092,1
-0.264,-1.352,0.134,1
-0.364,-1.601,0.405,1
-0.339,-1.674,0.723,1
-0.337,-1.65,0.714,1
-0.094,-1.628,1.327,1
0.112,-1.466,1.253,1
0.298,-1.288,0.835,0
0.49,-1.08,-0.169,0
0.566,-0.995,-1.062,0
0.594,-0.85,-2.269,0
0.556,-0.708,-2.747,0
0.465,-0.526,-2.921,0
0.489,-0.356,-2.899,0
0.534,-0.067,-2.918,0
0.547,0.018,-2.997,0
0.556,0.139,-3.039,0
0.587,0.164,-2.895,0
0.545,0.194,-2.255,0
0.466,0.131,-1.777,0
0.351,0.116,-1.185,0
0.295,0.066,-0.735,0
0.233,-0.08,-0.306,0
0.184,-0.183,-0.248,0
0.153,-0.303,-0.4,0
0.093,-0.347,-0.832,0
0.086,-0.374,-0.822,0
0.209,-0.288,-1.152,0
0.126,-0.312,-0.887,0
0.023,-0.273,-0.763,0
-0.223,-0.179,-0.529,0
-0.342,-0.168,-0.159,0
-0.218,-0.181,0.604,0
-0.286,-0.153,1.068,0
-0.265,-0.103,1.292,0
-0.084,-0.075,1.322,0
0.262,-0.126,1.291,0
0.476,-0.217,1.531,0
0.883,-0.255,2.523,0
1.095,-0.222,3.378,1
0.632,0.185,4.15,1
0.269,0.644,4.044,1
0.222,0.952,2.542,1
0.25,1.195,1.236,1
0.301,1.382,-0.183,1
0.18,1.239,-0.262,1
0.073,0.585,0.897,1
0.002,-0.059,2.229,1
-0.127,-0.82,3.952,1
-0.179,-1.251,4.766,1
-0.485,-1.578,5.098,1
-0.7,-1.719,4.388,1
-0.605,-1.523,2.051,1
-0.348,-1.313,0.461,1
-0.225,-1.053,-1.34,1
-0.264,-0.951,-1.774,1
-0.287,-0.936,-1.328,1
-0.273,-0.932,-0.67,1
-0.282,-1.03,-0.052,1
-0.211,-1.246,0.248,1
-0.323,-1.61,0.513,0
-0.425,-1.812,0.617,0
-0.419,-1.899,0.523,0
-0.28,-1.848,0.31,0
0.113,-1.549,-0.315,0
0.399,-1.272,-0.996,0
0.561,-0.991,-1.815,0
0.526,-0.861,-2.16,0
0.411,-0.725,-2.471,0
0.266,-0.697,-2.638,0
0.169,-0.592,-2.749,0
0.102,-0.487,-2.702,0
-0.08,-0.434,-2.561,0
-0.229,-0.368,-2.284,0
-0.299,-0.359,-2.01,0
-0.345,-0.324,-1.823,0
-0.358,-0.293,-1.331,0
-0.321,-0.271,-0.988,0
-0.277,-0.273,-0.787,0
-0.235,-0.192,-0.295,0
-0.145,-0.081,0.262,0
-0.048,-0.034,0.311,0
-0.132,-0.152,0.375,0
-0.281,-0.171,0.805,0
-0.277,-0.167,0.803,0
-0.457,-0.305,1.251,0
-0.525,-0.351,1.223,0
-0.554,-0.475,1.126,0
-0.405,-0.466,1.03,0
-0.197,-0.38,1.282,0
0.227,-0.343,1.304,0
0.275,-0.178,1.573,0
0.557,-0.074,1.753,0
0.565,0.096,1.751,0
-0.016,0.54,1.534,0
-0.229,0.734,0.822,1
-0.23,0.688,0.843,1
0.616,1.111,-0.752,1
0.658,1.081,-0.712,1
0.935,0.847,0.295,1
0.761,0.494,2.369,1
0.301,0.17,3.575,1
0.309,-0.075,4.357,1
0.385,-0.205,4.096,1
0.25,-0.346,2.975,1
0.046,-0.514,2.245,1
-0.156,-0.719,1.571,1
-0.148,-0.799,1.142,1
-0.118,-0.893,0.496,1
-0.061,-0.924,0.24,1
-0.056,-1.097,-0.13,1
-0.083,-1.26,-0.405,1
-0.083,-1.513,-0.044,1
-0.037,-1.64,0.561,1
0.056,-1.767,1.03,1
0.083,-1.841,0.984,1
-0.027,-1.856,0.604,0
-0.079,-1.849,0.224,0
-0.097,-1.707,-0.768,0
-0.04,-1.523,-1.586,0
0.066,-1.212,-2.331,0
0.316,-0.995,-2.791,0
0.499,-0.663,-2.746,0
0.582,-0.398,-2.45,0
0.749,-0.209,-2.395,0
0.714,-0.15,-2.362,0
0.528,-0.073,-1.657,0
0.541,-0.049,-1.333,0
0.438,-0.022,-1.181,0
0.422,-0.012,-1.161,0
0.394,-0.012,-1.038,0
0.306,-0.083,-0.93,0
0.307,-0.084,-0.929,0
0.253,-0.05,-0.952,0
0.355,0.02,-0.898,0
0.421,0.094,-0.87,0
0.559,0.087,-0.988,0
0.531,0.077,-1.112,0
0.492,0.055,-0.962,0
0.4,-0.083,-0.523,0
0.287,-0.337,0.176,0
0.174,-0.35,0.543,0
0.03,-0.31,0.619,0
0.049,-0.282,0.446,0
-0.023,-0.064,0.43,0
0.15,0.095,0.583,0
0.352,0.315,0.89,0
0.517,0.365,1.074,0
0.502,0.286,1.833,0
0.454,0.012,2.666,0
0.178,-0.231,3.518,0
-0.406,0.104,3.972,0
-0.858,0.564,2.806,1
-0.826,0.7,1.437,1
-0.431,1.13,-0.677,1
0.097,1.364,-1.646,1
0.841,1.482,-1.744,1
1.29,1.321,-0.535,1
1.48,0.403,2.511,1
1.364,-0.327,4.624,1
0.316,-1.594,6.798,1
-0.5,-2.284,7.107,1
-1.247,-2.65,5.944,1
-1.18,-2.625,3.91,1
-0.564,-1.958,0.659,1
-0.076,-1.322,-1.365,1
0.27,-0.814,-2.818,1
0.244,-0.571,-2.587,1
0.106,-0.473,-1.029,1
-0.107,-0.549,0.103,1
-0.197,-0.708,0.82,1
-0.143,-0.888,0.811,1
-0.223,-1.171,0.503,1
-0.185,-1.284,0.257,0
-0.153,-1.419,0.092,0
-0.13,-1.424,-0.027,0
-0.058,-1.341,-0.327,0
-0.032,-1.243,-0.671,0
0.023,-1.029,-1.197,0
0.053,-0.93,-1.422,0
0.137,-0.698,-1.788,0
0.149,-0.651,-1.97,0
0.234,-0.523,-1.993,0
0.327,-0.461,-1.847,0
0.257,-0.367,-1.603,0
0.17,-0.346,-1.347,0
0.186,-0.26,-1.179,0
0.199,-0.225,-1.135,0
0.27,-0.116,-0.963,0
0.251,-0.118,-0.791,0
0.214,-0.096,-0.741,0
0.108,-0.108,-0.839,0
0.112,-0.126,-0.831,0
0.099,-0.14,-1.117,0
0.186,-0.104,-1.139,0
0.347,-0.04,-1.058,0
0.257,0.001,-0.603,0
0.13,-0.059,-0.4,0
-0.092,-0.142,-0.127,0
-0.218,-0.038,0.173,0
-0.327,0.075,0.66,0
-0.364,0.064,1.036,0
-0.344,0.054,1.04,0
-0.2,0.174,1.262,0
0.008,0.24,1.287,0
0.103,0.169,1.243,0
-0.22,0.367,1.205,0
-0.621,0.559,1.156,0
-0.631,0.531,1.169,0
-0.438,0.133,0.295,0
-0.245,-0.002,0.449,1
-0.035,0.07,0.951,1
0.119,-0.03,1.757,1
0.13,0.008,1.74,1
-0.195,-0.306,2.412,1
0.044,-0.455,2.09,1
0.056,-0.416,2.073,1
0.809,-0.544,2.303,1
0.774,-0.622,2.899,1
0.496,-0.782,2.859,1
0.178,-0.954,2.117,1
0.11,-1.036,1.326,1
0.321,-1.035,0.465,1
0.42,-0.992,0.168,1
0.475,-0.946,0.048,1
0.611,-0.895,-0.059,1
0.841,-0.887,-0.174,1
0.843,-0.908,-0.108,1
0.723,-1.078,-0.046,1
0.701,-1.179,-0.135,1
0.631,-1.13,0.129,1
0.658,-1.096,0.362,0
0.508,-1.002,-0.098,0
0.426,-0.965,-0.661,0
0.463,-0.818,-1.764,0
0.51,-0.744,-2.403,0
0.47,-0.674,-2.786,0
0.427,-0.616,-2.834,0
0.521,-0.46,-2.71,0
0.582,-0.362,-2.559,0
0.432,-0.22,-2.006,0
0.294,-0.296,-1.569,0
0.161,-0.297,-1.568,0
0.031,-0.188,-1.725,0
-0.162,-0.15,-1.322,0
-0.124,-0.091,-1.034,0
-0.123,-0.092,-1.034,0
-0.157,-0.045,-0.909,0
-0.157,-0.019,-0.688,0
0.113,0.016,-0.703,0
0.337,0.267,-0.045,0
0.328,0.265,-0.045,0
0.302,0.161,1.16,0
-0.071,0.039,1.389,0
-0.355,-0.144,1.322,0
-0.341,-0.155,1.021,0
-0.306,-0.09,0.652,0
-0.024,0.014,0.32,0
0.146,0.267,0.347,0
0.284,0.332,0.346,0
0.673,0.621,0.412,0
0.918,0.646,0.706,0
0.95,0.697,1.673,0
0.393,0.93,2.179,1
0.411,0.914,2.187,1
-0.543,1.06,0.955,1
-0.46,1.013,-0.403,1
0.109,0.951,-1.263,1
0.808,1.076,-1.146,1
1.07,0.975,-0.026,1
1.422,0.088,2.431,1
1.39,-0.632,3.88,1
0.973,-1.562,5.346,1
0.34,-2.096,6.012,1
-0.518,-2.56,5.765,1
-0.825,-2.535,4.541,1
-0.702,-2.258,2.078,1
-0.582,-1.834,0.077,1
-0.31,-1.33,-1.844,1
-0.125,-1.045,-2.384,1
-0.002,-0.72,-2.442,1
0.063,-0.529,-2.129,1
0.194,-0.566,-1.395,1
0.224,-0.766,-0.41,1
0.097,-1.242,0.766,0
0.098,-1.36,1.067,0
-0.047,-1.512,0.96,0
-0.129,-1.53,0.545,0
-0.054,-1.361,-0.421,0
0.09,-1.19,-1.216,0
0.229,-0.898,-2.032,0
0.315,-0.676,-2.329,0
0.439,-0.444,-2.411,0
0.438,-0.309,-2.3,0
0.27,-0.189,-2.061,0
0.165,-0.125,-1.879,0
0.006,-0.175,-1.963,0
-0.085,-0.178,-2.012,0
-0.087,-0.12,-1.771,0
-0.082,-0.089,-1.499,0
0.009,-0.098,-1.298,0
0.041,-0.041,-0.899,0
-0.129,-0.059,-0.292,0
-0.28,-0.137,-0.044,0
-0.527,-0.233,0.171,0
-0.538,-0.278,0.153,0
-0.63,-0.299,0.347,0
-0.652,-0.332,0.428,0
-0.539,-0.327,0.262,0
-0.355,-0.229,-0.068,0
-0.355,-0.232,-0.067,0
-0.147,-0.024,0.391,0
0.011,-0.09,0.777,0
-0.115,-0.075,1.147,0
-0.156,-0.283,1.605,0
-0.188,-0.375,1.859,0
-0.234,-0.338,2.224,0
-0.234,-0.217,2.137,0
-0.548,0.35,1.536,0
-0.762,0.75,0.811,0
-0.759,0.714,0.824,1
0.687,1.139,-0.542,1
0.674,1.117,-0.533,1
1.405,1.29,1.011,1
1.144,0.511,3.172,1
0.69,-0.09,4.336,1
0.418,-0.646,4.886,1
0.358,-0.904,4.942,1
0.441,-1.122,4.958,1
0.635,-1.008,4.723,1
0.785,-0.702,3.731,1
0.857,-0.588,2.514,1
0.869,-0.512,0.749,1
0.925,-0.544,-0.187,1
0.806,-0.71,-0.893,1
0.565,-0.816,-0.973,1
0.645,-0.927,-0.755,1
0.796,-1.004,-0.474,1
0.973,-0.981,-0.239,1
1.214,-0.937,-0.205,1
1.28,-0.933,-0.29,1
1.123,-0.944,-0.371,0
1.133,-0.949,-0.369,0
0.683,-0.979,-1.273,0
0.474,-0.888,-1.696,0
0.422,-0.793,-1.962,0
0.384,-0.642,-2.366,0
0.448,-0.574,-2.68,0
0.556,-0.369,-2.752,0
0.642,-0.281,-2.784,0
0.476,-0.201,-2.83,0
0.401,-0.199,-2.836,0
0.297,-0.21,-2.607,0
0.237,-0.209,-2.37,0
0.214,-0.208,-1.914,0
0.266,-0.171,-1.665,0
0.416,-0.04,-1.392,0
0.404,0.007,-1.205,0
0.32,0.007,-0.983,0
0.347,0.043,-0.444,0
0.559,0.06,0.39,0
0.511,0.073,0.787,0
0.509,0.085,0.783,0
0.329,-0.244,1.029,0
0.371,-0.132,1.349,0
0.486,-0.094,1.368,0
0.535,-0.017,1.067,0
0.596,0.079,0.804,0
0.791,0.272,0.857,0
0.793,0.334,1.173,0
0.732,0.298,1.608,0
0.623,0.231,1.799,0
0.504,0.11,1.998,0
0.417,0.011,2.172,0
0.183,0.284,2.181,0
-0.194,0.558,1.684,0
-0.134,0.876,0.271,1
0.054,1.058,-0.369,1
0.45,1.52,-0.684,1
0.689,1.819,-0.228,1
0.742,1.78,0.859,1
0.965,1.319,1.791,1
1.292,0.385,3.031,1
1.26,-0.315,4.237,1
0.883,-1.128,5.751,1
0.249,-1.57,6.55,1
-0.879,-2.04,5.454,1
-1.055,-1.856,2.987,1
-1.1,-1.556,-0.249,1
-1.285,-1.47,-2.411,1
-1.329,-1.279,-3.979,1
-1.156,-0.943,-4.391,1
-0.913,-0.578,-3.683,1
-0.575,-0.64,-2.397,1
-0.281,-0.927,-0.656,1
-0.264,-1.17,0.239,1
-0.296,-1.565,0.835,1
-0.443,-1.785,0.686,0
-0.546,-1.923,0.187,0
-0.553,-1.958,-0.186,0
-0.314,-1.825,-0.887,0
-0.047,-1.552,-1.5,0
0.175,-1.294,-1.998,0
0.216,-1.148,-2.099,0
-0.014,-1.096,-1.907,0
-0.228,-1.111,-1.698,0
-0.447,-1.079,-1.585,0
-0.561,-1.069,-1.706,0
-0.453,-0.889,-1.924,0
-0.289,-0.72,-2.02,0
-0.017,-0.409,-1.862,0
0.191,-0.28,-1.543,0
0.183,-0.269,-1.546,0
0.056,-0.329,-0.91,0
-0.298,-0.458,-0.465,0
-0.411,-0.522,-0.13,0
-0.449,-0.509,0.232,0
-0.331,-0.374,0.367,0
-0.171,-0.301,0.421,0
-0.098,-0.206,0.528,0
-0.095,-0.065,0.693,0
-0.211,0.096,0.829,0
-0.447,0.211,0.733,0
-0.403,0.232,0.332,0
-0.286,0.272,-0.093,0
-0.143,0.26,0.045,0
0.233,0.236,0.938,0
0.401,0.34,1.699,0
0.34,0.522,2.138,0
0.144,0.918,2.153,0
0.037,1.08,0.95,0
0.23,0.963,0.097,0
0.661,0.822,-0.88,1
0.995,0.806,-0.556,1
1.255,0.556,0.982,1
1.097,0.271,2.374,1
0.727,-0.173,3.846,1
0.65,-0.544,4.441,1
0.557,-1.006,5.026,1
0.353,-1.308,5.253,1
0.055,-1.384,4.517,1
-0.036,-1.1,3.134,1
-0.032,-0.778,1.13,1
0.057,-0.549,-0.25,1
0.197,-0.417,-1.596,1
0.397,-0.332,-2.129,1
0.609,-0.097,-1.378,1
0.608,-0.173,-0.416,1
0.629,-0.454,0.703,1
0.52,-0.693,1.242,1
0.407,-0.921,1.452,1
0.345,-1.005,1.183,1
0.231,-1.152,0.55,1
0.217,-1.186,0.023,0
0.408,-0.978,-0.79,0
0.57,-0.83,-1.386,0
0.7,-0.659,-2.1,0
0.641,-0.534,-2.206,0
0.65,-0.55,-2.2,0
0.571,-0.284,-1.851,0
0.539,-0.162,-1.665,0
0.539,-0.111,-1.523,0
0.46,-0.076,-1.568,0
0.494,0.033,-1.903,0
0.516,0.15,-2.23,0
0.464,0.161,-2.126,0
0.4,0.118,-1.651,0
0.335,0.096,-1.256,0
0.161,0.063,-0.534,0
0.129,0.003,-0.257,0
0.128,0.025,-0.056,0
0.261,0.079,0.121,0
0.597,0.164,0.214,0
0.741,0.171,0.301,0
0.856,0.262,0.945,0
0.984,0.244,1.248,0
0.872,0.224,1.088,0
0.6,0.069,0.835,0
0.284,-0.115,0.59,0
0.303,-0.116,0.547,0
0.431,0.048,0.8,0
0.482,0.103,0.955,0
0.22,0.115,1.053,0
0.237,0.165,1.09,0
0.289,0.265,1.323,0
0.085,0.401,1.767,0
-0.275,0.76,1.666,0
-0.272,0.879,0.744,0
-0.095,0.869,-0.338,1
0.089,0.897,-0.644,1
0.297,0.926,-0.127,1
0.312,0.743,0.538,1
0.587,0.121,1.62,1
0.842,-0.269,2.367,1
0.904,-0.978,3.858,1
0.462,-1.445,4.772,1
-0.116,-2.071,5.305,1
-0.558,-2.198,4.798,1
-0.787,-2.027,2.814,1
-0.755,-1.785,0.569,1
-0.981,-1.431,-2.139,1
-0.845,-1.307,-3.019,1
-0.198,-0.839,-3.407,1
0.031,-0.499,-3.048,1
0.231,-0.248,-1.95,1
0.359,-0.269,-1.301,1
0.218,-0.615,-0.539,1
0.192,-0.883,0.019,1
0.051,-1.224,0.806,1
-0.057,-1.334,1.153,0
-0.237,-1.38,1.329,0
-0.289,-1.319,1.065,0
-0.279,-1.187,-0.23,0
-0.215,-0.969,-1.181,0
-0.043,-0.654,-1.948,0
0.091,-0.497,-2.274,0
0.135,-0.355,-2.675,0
0.181,-0.249,-2.635,0
0.182,-0.146,-2.495,0
0.133,-0.194,-2.486,0
-0.305,-0.347,-1.576,0
-0.41,-0.353,-1.192,0
-0.625,-0.375,-0.836,0
-0.632,-0.328,-0.9,0
-0.322,-0.128,-0.763,0
-0.201,0.014,-0.557,0
-0.097,0.192,-0.45,0
-0.161,0.171,-0.535,0
-0.186,0.097,-0.79,0
-0.293,0.131,-0.547,0
-0.279,0.023,0.245,0
-0.102,-0.083,0.427,0
0.069,0.045,0.689,0
-0.037,0.038,1.18,0
-0.075,0.006,2.051,0
-0.136,0.105,2.266,0
-0.253,0.184,1.97,0
-0.143,0.222,1.457,0
0.077,0.369,0.363,0
0.134,0.407,0.096,0
0.236,0.529,0.097,0
0.318,0.567,0.174,0
-0.05,0.97,0.46,0
-0.293,1.023,0.371,0
0.065,0.711,0.205,1
0.409,0.541,0.443,1
0.801,0.487,1.418,1
1.068,0.351,1.988,1
1.301,-0.123,2.921,1
1.009,-0.349,3.59,1
0.238,-0.689,4.059,1
-0.054,-0.769,3.711,1
-0.366,-0.73,2.675,1
-0.372,-0.59,1.998,1
-0.17,-0.196,0.951,1
-0.075,-0.061,0.415,1
-0.089,-0.164,-0.201,1
-0.063,-0.231,-0.274,1
0.009,-0.439,-0.195,1
0.08,-0.596,-0.142,1
0.095,-0.582,-0.147,1
0.467,-0.723,0.105,1
0.764,-0.871,0.162,1
0.8,-0.972,0.131,1
0.739,-1.093,0.249,1
0.692,-1.166,0.177,0
0.454,-1.258,-0.072,0
0.24,-1.312,-0.304,0
-0.054,-1.297,-0.664,0
-0.018,-1.172,-0.916,0
0.235,-0.907,-1.561,0
0.381,-0.725,-1.966,0
0.44,-0.398,-2.11,0
0.541,-0.226,-2.118,0
0.625,0.042,-2.063,0
0.6,0.132,-2.034,0
0.412,0.059,-2.116,0
0.227,0.01,-2.272,0
0.019,-0.008,-2.005,0
0.061,-0.007,-1.586,0
0.059,-0.011,-1.584,0
0.163,0.11,-0.778,0
0.313,0.238,-0.677,0
0.376,0.284,-0.58,0
0.412,0.336,-0.158,0
0.458,0.303,0.06,0
0.642,0.333,0.188,0
0.624,0.294,0.311,0
0.506,0.213,0.423,0
0.261,0.087,0.555,0
0.276,0.069,0.561,0
-0.122,-0.146,0.856,0
-0.14,-0.131,1.368,0
-0.085,-0.132,1.496,0
-0.062,-0.009,1.52,0
-0.009,0.022,1.402,0
0.002,-0.021,1.42,0
0.108,0.011,1.724,0
-0.162,0.312,2.277,0
-0.618,0.678,2.233,0
-0.932,0.811,0.911,1
-0.832,0.725,0.041,1
-0.468,0.903,-0.838,1
-0.201,0.996,-0.969,1
0.144,0.888,-0.318,1
0.505,0.644,0.283,1
0.95,0.013,1.818,1
0.896,-0.447,3.011,1
0.798,-1.158,4.702,1
0.46,-1.327,5.065,1
-0.336,-1.517,3.702,1
-0.601,-1.422,2.196,1
-0.588,-1.116,-0.339,1
-0.602,-1.003,-1.652,1
-0.492,-0.821,-3.126,1
-0.49,-0.798,-3.199,1
-0.326,-0.827,-1.767,1
-0.126,-0.807,-0.728,1
0.068,-1.027,0.537,1
0.23,-1.255,1.084,1
0.274,-1.476,1.379,1
0.058,-1.609,1.027,0
-0.069,-1.663,0.11,0
-0.015,-1.577,-0.621,0
0.146,-1.301,-1.662,0
0.262,-1.075,-2.085,0
0.433,-0.819,-2.325,0
0.506,-0.735,-2.272,0
0.532,-0.49,-1.949,0
0.483,-0.453,-1.819,0
0.368,-0.422,-1.873,0
0.223,-0.387,-1.901,0
0.121,-0.326,-1.767,0
0.108,-0.318,-1.77,0
-0.01,-0.228,-1.353,0
-0.065,-0.194,-1.262,0
-0.076,-0.192,-1.345,0
-0.124,-0.185,-1.287,0
-0.181,-0.165,-0.635,0
-0.132,-0.141,-0.151,0
-0.159,-0.134,-0.152,0
-0.183,-0.056,0.976,0
-0.093,-0.075,1.426,0
0.029,-0.118,1.388,0
0.12,-0.059,1.216,0
0.134,0.094,1.216,0
0.413,0.257,1.086,0
0.328,0.384,1.088,0
0.183,0.482,1.076,0
0.215,0.496,1.019,0
0.08,0.429,1.342,0
0.026,0.339,1.653,0
0.148,0.258,1.687,0
0.106,0.169,1.676,0
-0.455,0.287,1.744,1
-0.717,0.321,1.248,1
-0.326,0.248,0.264,1
0.351,0.368,-0.101,1
1.021,0.622,0.008,1
1.41,0.689,0.528,1
1.608,0.545,1.878,1
1.191,0.342,2.759,1
0.56,-0.283,3.387,1
0.279,-0.547,3.248,1
-0.084,-0.793,2.402,1
-0.293,-0.855,1.978,1
-0.415,-0.753,1.266,1
-0.456,-0.658,0.517,1
-0.285,-0.527,-0.343,1
0.027,-0.424,-0.666,1
0.541,-0.282,-0.925,1
0.724,-0.191,-0.761,1
0.975,-0.244,-0.218,1
1.021,-0.359,0.057,1
1.016,-0.327,0.045,1
1.035,-0.616,0.569,0
0.873,-0.81,0.386,0
0.603,-0.929,0.087,0
0.29,-1.141,-0.519,0
0.245,-1.175,-0.995,0
0.285,-0.974,-1.609,0
0.317,-0.838,-1.848,0
0.27,-0.612,-2.016,0
0.247,-0.451,-2.166,0
0.201,-0.207,-2.476,0
0.122,-0.078,-2.48,0
0.071,0.021,-2.595,0
-0.014,0.06,-2.688,0
-0.195,0.116,-2.487,0
-0.197,0.138,-2.299,0
-0.102,0.282,-1.973,0
-0.076,0.383,-1.783,0
-0.051,0.399,-1.49,0
-0.01,0.367,-1.116,0
-0.023,0.295,-0.8,0
-0.06,0.274,-0.681,0
-0.129,0.185,-0.402,0
-0.133,0.156,-0.045,0
-0.105,0.16,0.818,0
-0.091,0.23,1.371,0
-0.19,0.274,1.711,0
-0.293,0.269,1.564,0
-0.276,0.256,1.569,0
-0.038,0.403,0.537,0
0.119,0.527,0.538,0
0.101,0.457,0.925,0
0.072,0.39,1.693,0
-0.047,0.229,2.106,0
0.071,0.148,2.823,0
0.052,0.215,3.185,0
-0.42,0.818,2.963,1
-0.404,1.193,1.612,1
0.088,1.344,-0.445,1
0.439,1.476,-1.037,1
1.015,1.732,-1.14,1
1.296,1.598,-0.561,1
1.478,0.947,1.003,1
1.479,0.326,1.977,1
1.037,-0.806,3.788,1
0.63,-1.381,4.466,1
-0.118,-1.879,4.822,1
-0.423,-1.916,4.21,1
-0.578,-1.821,1.844,1
-0.576,-1.546,0.024,1
-0.4,-1.145,-2.337,1
-0.25,-1.118,-3.091,1
-0.037,-0.895,-3.277,1
0.072,-0.697,-2.73,1
0.288,-0.706,-1.307,1
0.347,-0.819,-0.444,1
0.394,-1.17,0.416,1
0.345,-1.135,0.405,0
0.166,-1.479,0.908,0
0.008,-1.479,0.767,0
-0.19,-1.415,0.145,0
-0.231,-1.303,-0.499,0
-0.235,-1.069,-1.66,0
-0.208,-0.972,-2.274,0
-0.17,-0.863,-3.007,0
-0.227,-0.774,-3.101,0
0.013,-0.634,-2.524,0
0.019,-0.513,-1.934,0
-0.192,-0.383,-0.898,0
-0.214,-0.344,-0.526,0
-0.388,-0.261,-0.516,0
-0.458,-0.23,-0.853,0
-0.57,-0.165,-1.263,0
-0.594,-0.124,-1.234,0
-0.414,0.002,-1.012,0
-0.369,0.151,-0.591,0
-0.166,0.244,0.077,0
-0.145,0.267,0.333,0
0.018,0.326,0.697,0
0.12,0.246,0.955,0
0.115,0.251,0.953,0
-0.003,0.248,1.492,0
-0.143,0.124,1.362,0
-0.124,0.141,1.092,0
-0.111,0.125,1.097,0
0.315,0.332,0.415,0
0.434,0.372,0.911,0
0.428,0.411,1.485,0
0.194,0.52,2.253,0
-0.018,0.813,2.424,0
-0.628,1.404,1.395,1
-0.34,1.394,0.034,1
0.812,1.336,-1.434,1
1.172,1.409,-1.656,1
1.403,1.164,-0.357,1
1.197,0.648,1.144,1
0.649,-0.224,3.165,1
0.474,-0.709,3.904,1
0.293,-1.257,5.278,1
0.167,-1.394,5.825,1
0.006,-1.321,5.993,1
-0.074,-1.179,5.316,1
0.05,-0.905,2.928,1
0.222,-0.676,1.4,1
0.526,-0.435,-0.605,1
0.626,-0.391,-1.235,1
0.685,-0.449,-1.614,1
0.628,-0.466,-1.297,1
0.798,-0.551,-0.391,1
0.866,-0.666,0.187,1
0.822,-0.839,0.414,1
0.774,-0.906,0.362,0
0.79,-0.904,0.361,0
0.742,-0.945,-0.456,0
0.7,-0.896,-1.065,0
0.717,-0.845,-1.461,0
0.735,-0.869,-1.454,0
0.442,-0.671,-1.738,0
0.336,-0.599,-2.003,0
0.33,-0.535,-2.297,0
0.223,-0.425,-2.298,0
0.204,-0.366,-2.167,0
0.067,-0.412,-2.046,0
0.06,-0.402,-2.09,0
-0.037,-0.391,-1.804,0
-0.003,-0.372,-1.482,0
0.097,-0.199,-1.204,0
0.245,-0.13,-1.448,0
0.341,-0.049,-1.605,0
0.315,-0.125,-1.51,0
0.216,-0.221,-1.352,0
0.19,-0.203,-1.259,0
0.199,-0.171,-0.881,0
0.366,-0.084,-0.73,0
0.882,0.121,-0.393,0
0.984,0.293,0.425,0
0.981,0.345,1.124,0
0.997,0.338,1.126,0
0.65,0.163,0.934,0
-0.362,-0.312,0.25,0
-0.347,-0.342,0.262,0
-0.17,-0.11,1.263,0
-0.017,-0.017,2.436,0
0.08,0.004,2.841,0
0.222,0.078,2.659,0
0.061,0.363,2.133,0
-0.536,0.763,0.883,0
-0.561,0.847,-0.08,0
-0.327,0.977,-1.419,1
-0.088,1.086,-1.787,1
0.57,1.098,-1.158,1
0.897,0.913,-0.05,1
0.945,0.088,2.321,1
0.895,-0.413,3.548,1
0.583,-1.182,4.95,1
0.075,-1.493,5.286,1
-0.745,-1.646,4.631,1
-0.942,-1.558,3.712,1
-1.007,-1.441,1.162,1
-1.088,-1.177,-0.131,1
-0.99,-0.844,-1.434,1
-0.915,-0.668,-1.59,1
-0.803,-0.499,-1.184,1
-0.434,-0.442,-0.837,1
0.183,-0.35,-0.268,1
0.414,-0.42,0.026,1
0.684,-0.644,0.262,1
0.733,-0.728,0.232,1
0.694,-0.711,0.227,1
0.547,-0.944,0.077,0
0.436,-0.949,-0.751,0
0.312,-0.954,-1.35,0
0.021,-0.934,-2.195,0
-0.12,-0.933,-2.46,0
-0.297,-0.896,-2.844,0
-0.355,-0.779,-2.968,0
-0.497,-0.564,-2.604,0
-0.456,-0.476,-2.27,0
-0.507,-0.329,-1.96,0
-0.432,-0.2,-1.821,0
-0.216,0.022,-1.78,0
-0.133,0.081,-1.903,0
-0.137,0.122,-1.74,0
-0.144,0.136,-1.431,0
-0.136,0.053,-1.121,0
-0.241,0.071,-0.823,0
-0.261,0.05,-0.061,0
-0.229,-0.003,0.114,0
-0.271,-0.059,0.052,0
-0.516,-0.216,0.404,0
-0.518,-0.218,0.405,0
-0.442,-0.165,1.493,0
-0.504,-0.063,1.562,0
-0.593,-0.053,1.489,0
-0.584,-0.069,1.495,0
-0.346,0.107,0.882,0
-0.039,0.066,1.036,0
0.149,0.146,1.554,0
0.448,0.203,2.484,0
0.425,0.303,2.756,0
-0.059,0.717,2.114,0
0.01,0.779,1.126,0
0.526,0.609,0.057,1
0.66,0.812,0.132,1
1.046,0.993,0.741,1
1.136,0.878,1.147,1
0.623,0.526,1.808,1
0.443,0.142,1.934,1
0.366,-0.432,2.09,1
0.301,-0.577,2.439,1
0.123,-0.865,3.346,1
-0.139,-0.943,3.496,1
-0.637,-1.065,2.765,1
-0.726,-1.093,1.952,1
-0.545,-1.004,0.55,1
-0.297,-0.83,-0.12,1
-0.281,-0.834,-0.119,1
0.531,-0.475,-0.706,1
0.948,-0.422,-0.143,1
1.029,-0.499,0.213,1
1.039,-0.474,0.204,1
0.9,-0.952,0.591,1
0.947,-1.077,0.181,1
1.023,-1.038,-0.23,0
1.033,-1.044,-0.228,0
1.298,-0.667,-1.744,0
1.234,-0.509,-2.321,0
1.164,-0.339,-2.507,0
1.001,-0.18,-2.785,0
0.803,-0.169,-2.784,0
0.412,-0.135,-2.502,0
0.318,-0.179,-2.257,0
0.158,-0.167,-1.852,0
0.11,-0.103,-1.708,0
0.11,-0.04,-1.815,0
0.158,-0.05,-2.001,0
0.15,0.058,-1.986,0
0.183,0.089,-1.834,0
0.287,0.071,-1.607,0
0.285,0.044,-1.424,0
0.381,0.204,-0.96,0
0.548,0.334,-0.574,0
0.875,0.379,0.079,0
0.82,0.292,0.529,0
0.578,0.21,0.916,0
0.389,0.125,0.823,0
-0.101,0.116,0.597,0
-0.143,0.088,0.442,0
0.036,0.268,0.366,0
0.134,0.371,0.664,0
0.081,0.275,1.549,0
0.064,0.191,1.957,0
-0.224,0.021,2.549,0
-0.325,-0.217,3.034,0
-0.533,-0.093,3.348,0
-0.885,0.295,2.707,0
-1.038,0.602,0.824,0
-0.496,0.89,-0.312,0
0.217,1.38,-1.875,1
0.802,1.586,-2.362,1
1.218,1.322,-0.965,1
1.301,0.625,0.905,1
1.115,-0.247,3.534,1
0.735,-0.845,5.333,1
0.051,-1.524,6.925,1
-0.567,-1.771,6.686,1
-0.977,-1.589,4.328,1
-0.806,-1.413,2.121,1
-0.617,-0.968,-1.158,1
-0.534,-0.748,-2.224,1
-0.475,-0.662,-2.342,1
-0.404,-0.656,-1.317,1
-0.07,-0.719,0.281,1
0.049,-0.893,0.939,1
0.171,-1.311,1.652,1
0.116,-1.482,1.688,1
0.104,-1.556,1.019,1
0.144,-1.521,0.335,1
0.346,-1.374,-0.699,1
0.393,-1.278,-1.568,0
0.25,-1.223,-2.593,0
0.04,-1.213,-3.158,0
-0.014,-1.107,-3.761,0
-0.142,-0.976,-3.874,0
-0.242,-0.794,-3.666,0
-0.308,-0.629,-3.208,0
-0.42,-0.478,-2.277,0
-0.42,-0.373,-1.864,0
-0.446,-0.214,-1.556,0
-0.414,-0.112,-1.497,0
-0.423,-0.041,-1.535,0
-0.434,0.025,-1.486,0
-0.441,0.093,-1.101,0
-0.37,0.107,-0.856,0
-0.278,0.184,-0.303,0
-0.297,0.219,0.152,0
-0.314,0.233,0.148,0
-0.351,0.007,1.52,0
-0.503,-0.121,1.796,0
-0.626,-0.189,1.917,0
-0.632,-0.206,1.835,0
-0.525,-0.124,1.465,0
-0.395,0.147,0.631,0
-0.301,0.255,0.257,0
-0.097,0.359,0.143,0
0.102,0.38,0.364,0
0.371,0.408,1.083,0
0.436,0.457,1.499,0
0.507,0.598,1.856,0
0.248,0.809,1.718,0
0.229,0.778,1.732,1
0.139,0.696,0.356,1
0.455,0.73,-0.323,1
0.653,0.782,-0.38,1
1.171,0.488,0.424,1
1.248,0.276,1.407,1
0.827,0.04,2.793,1
0.486,-0.248,3.391,1
0.29,-0.436,3.276,1
0.111,-0.524,2.748,1
0.12,-0.508,1.892,1
0.248,-0.406,1.466,1
0.258,-0.372,1.066,1
0.312,-0.4,1.031,1
0.282,-0.559,1.157,1
0.189,-0.665,1.156,1
0.198,-0.65,1.15,1
0.152,-1.04,0.938,1
0.089,-1.258,0.721,1
0.107,-1.305,0.612,1
0.252,-1.286,0.496,1
0.3,-1.229,0.311,0
0.332,-1.081,-0.249,0
0.349,-0.996,-0.767,0
0.359,-0.782,-1.446,0
0.388,-0.645,-1.992,0
0.417,-0.385,-2.415,0
0.429,-0.263,-2.525,0
0.366,-0.194,-2.74,0
0.246,-0.149,-2.797,0
0.253,-0.163,-2.793,0
0.039,-0.124,-2.861,0
-0.168,-0.114,-2.665,0
-0.239,-0.098,-2.398,0
-0.263,0.001,-2.12,0
-0.34,0.075,-1.889,0
-0.347,0.154,-1.674,0
-0.227,0.254,-1.501,0
-0.083,0.452,-1.153,0
-0.03,0.455,-0.899,0
-0.053,0.385,-0.435,0
-0.084,0.331,0.068,0
-0.095,0.18,0.497,0
-0.323,0.019,0.81,0
-0.58,-0.153,1.192,0
-0.628,-0.181,1.538,0
-0.488,-0.071,1.56,0
-0.314,0.041,1.198,0
-0.292,-0.003,1.213,0
-0.075,0.284,0.615,0
0.528,0.714,0.601,0
0.852,0.771,1.002,0
1.006,0.772,1.8,0
1.053,0.695,2.228,0
0.422,0.822,2.579,0
-0.376,1.035,1.843,0
-0.471,0.974,-0.074,1
-0.106,1.007,-0.868,1
0.721,1.318,-2.069,1
0.956,1.411,-1.75,1
1.161,1.066,0.097,1
1.185,0.413,1.773,1
0.892,-0.558,3.985,1
0.407,-1.208,5.332,1
-0.63,-1.831,6.134,1
-1.063,-1.902,5.245,1
-1.2,-1.622,2.437,1
-1.047,-1.297,0.327,1
-1.11,-1,-1.699,1
-1.086,-0.865,-2.395,1
-0.919,-0.776,-2.273,1
-0.698,-0.749,-1.468,1
-0.2,-0.821,-0.335,1
0.08,-1.02,0.423,1
0.274,-1.376,1.174,1
0.335,-1.474,1.239,1
0.287,-1.497,0.6,1
0.251,-1.473,-0.236,0
0.33,-1.375,-1.344,0
0.377,-1.255,-2.068,0
0.258,-1.176,-2.641,0
0.087,-1.118,-2.609,0
-0.047,-0.943,-2.034,0
-0.085,-0.843,-1.596,0
-0.109,-0.656,-1.048,0
-0.111,-0.536,-0.911,0
-0.137,-0.409,-0.917,0
-0.165,-0.35,-1.104,0
-0.21,-0.354,-1.439,0
-0.188,-0.254,-1.789,0
-0.184,-0.166,-1.77,0
-0.197,-0.169,-1.66,0
-0.348,-0.171,-1.253,0
-0.483,-0.23,-0.955,0
-0.562,-0.26,-0.406,0
-0.441,-0.167,-0.024,0
-0.241,-0.073,0.372,0
-0.086,0.033,0.749,0
-0.111,0.323,1.401,0
-0.24,0.404,1.721,0
-0.568,0.317,1.806,0
-0.836,0.182,1.62,0
-1.068,-0.043,1.383,0
-1.01,-0.183,1.05,0
-0.51,-0.138,0.526,0
-0.099,0.074,0.177,0
0.5,0.372,-0.111,0
0.794,0.693,-0.057,0
0.507,1.25,0.409,0
0.483,1.258,0.618,0
0.489,1.25,0.621,0
1.209,1.1,1.195,0
1.483,0.97,1.618,1
1.737,0.644,2.013,1
1.458,0.416,2.642,1
0.99,0.392,2.801,1
0.809,0.342,2.114,1
0.903,0.32,1.212,1
0.958,0.182,0.578,1
0.942,-0.002,0.7,1
0.721,-0.504,1.27,1
0.524,-0.666,1.446,1
0.151,-1.166,1.369,1
-0.114,-1.491,1.13,1
-0.378,-1.726,0.638,1
-0.44,-1.826,0.231,1
-0.406,-1.793,0.218,1
0.223,-1.525,-0.351,1
0.694,-1.192,-0.498,1
0.803,-1.089,-0.487,1
0.682,-1.086,-0.506,1
0.524,-1.095,-0.74,1
0.468,-0.947,-1.023,1
0.554,-0.767,-1.272,0
0.741,-0.443,-1.573,0
0.813,-0.188,-1.807,0
0.789,0.087,-2.087,0
0.814,0.21,-2.314,0
0.733,0.409,-2.688,0
0.586,0.457,-2.636,0
0.311,0.314,-2.461,0
-0.075,0.103,-2.089,0
-0.377,-0.027,-1.373,0
-0.42,-0.078,-0.879,0
-0.421,-0.088,-0.427,0
-0.327,0.009,-0.302,0
0.137,0.179,-0.473,0
0.157,0.225,-0.478,0
0.289,0.393,0.025,0
0.446,0.396,0.37,0
0.387,0.416,0.75,0
0.244,0.317,0.825,0
-0.033,0.117,0.492,0
-0.369,0.007,0.228,0
-0.591,-0.086,-0.143,0
-0.604,-0.011,-0.123,0
-0.383,0.206,0.428,0
-0.21,0.311,1.062,0
-0.244,0.338,1.407,0
-0.286,0.419,1.675,0
0.103,0.518,1.932,0
0.073,0.721,1.791,0
-0.52,1.227,1.102,0
-0.591,1.311,0.163,0
-0.08,1.523,-1.075,1
0.352,1.665,-1.506,1
0.795,1.688,-1.26,1
1.08,1.35,-0.185,1
1.588,0.484,2.255,1
1.588,-0.366,4.34,1
1.19,-1.282,6.892,1
0.266,-2.016,8.438,1
-0.723,-2.562,7.628,1
-1.159,-2.268,5.664,1
-1.163,-1.795,1.036,1
-1.079,-1.376,-1.479,1
-0.592,-0.87,-3.291,1
-0.312,-0.531,-3.509,1
-0.265,-0.321,-2.437,1
-0.153,-0.351,-1.383,1
0.027,-0.558,-0.278,1
0.195,-0.822,0.181,1
0.444,-1.021,0.236,1
0.599,-1.049,-0.015,1
0.768,-0.978,-0.547,1
0.882,-0.906,-0.992,0
0.972,-0.806,-1.585,0
0.913,-0.807,-2,0
0.714,-0.755,-2.022,0
0.538,-0.846,-1.688,0
0.53,-0.834,-1.692,0
0.068,-0.867,-1.19,0
-0.356,-0.941,-0.987,0
-0.486,-0.897,-1.111,0
-0.446,-0.739,-1.478,0
-0.239,-0.526,-1.868,0
0.138,-0.242,-2.355,0
0.387,-0.041,-2.489,0
0.497,0.164,-2.459,0
0.557,0.223,-2.168,0
0.536,0.218,-2.165,0
0.265,0.181,-1.062,0
0.07,0.046,-0.406,0
-0.051,-0.027,-0.052,0
-0.035,0.033,0.33,0
0.109,0.066,0.581,0
0.172,0.134,0.752,0
0.192,0.178,0.598,0
0.224,0.239,0.2,0
0.233,0.199,0.194,0
0.064,0.187,0.562,0
-0.028,0.13,1.093,0
-0.037,0,1.697,0
0.086,-0.015,1.978,0
0.369,0.249,2.213,0
0.432,0.754,2.139,0
0.295,1.256,1.087,0
0.806,1.196,-0.051,0
1.609,1.146,-1.013,0
1.69,1.17,-0.578,1
1.482,0.746,1.515,1
0.944,0.377,2.906,1
0.088,-0.009,3.49,1
-0.001,-0.402,3.321,1
0.354,-0.645,3.388,1
0.637,-0.631,3.843,1
0.717,-0.623,4.327,1
0.558,-0.71,4.072,1
0.189,-0.955,2.693,1
0.21,-0.926,1.503,1
0.366,-0.849,0.377,1
0.358,-0.93,-0.453,1
0.297,-0.96,-1.31,1
0.453,-0.977,-1.634,1
0.801,-0.933,-1.972,1
0.936,-0.846,-1.694,1
0.936,-0.829,-1.7,1
1.125,-0.898,0.006,1
0.858,-0.92,0.218,1
0.745,-0.885,-0.113,1
0.647,-0.787,-0.81,0
0.616,-0.641,-1.591,0
0.55,-0.467,-2.444,0
0.515,-0.348,-2.946,0
0.404,-0.105,-3.487,0
0.362,-0.022,-3.495,0
0.324,0.073,-3.05,0
0.193,0.092,-2.682,0
-0.134,0.013,-2.316,0
-0.232,-0.072,-2.089,0
-0.209,0.053,-1.47,0
-0.164,0.105,-0.831,0
-0.131,0.118,-0.245,0
-0.095,0.102,-0.076,0
0.088,0.226,0.037,0
0.087,0.218,0.04,0
0.313,0.392,0.366,0
0.346,0.408,0.476,0
0.43,0.408,0.597,0
0.393,0.401,0.671,0
0.234,0.325,0.844,0
0.052,0.223,0.891,0
-0.349,-0.015,0.924,0
-0.464,-0.079,0.834,0
-0.281,0.107,0.687,0
-0.035,0.328,0.757,0
0.341,0.516,0.886,0
0.446,0.607,0.994,0
0.41,0.539,0.97,0
0.284,0.773,1.262,0
0.121,1.167,0.976,0
0.161,1.397,0.197,1
0.479,1.515,-0.915,1
0.736,1.502,-0.948,1
1.037,1.31,-0.034,1
1.037,0.812,1.019,1
1.14,-0.157,2.617,1
1.298,-0.727,3.985,1
1.208,-1.371,5.928,1
0.837,-1.726,7.01,1
0.284,-1.798,5.975,1
-0.036,-1.664,3.898,1
0.125,-0.998,0.097,1
-0.03,-0.849,-1.616,1
0.037,-0.705,-2.999,1
-0.01,-0.449,-3.129,1
0.032,-0.317,-2.55,1
0.194,-0.382,-1.788,1
0.511,-0.564,-0.978,1
0.581,-0.811,-0.382,1
0.659,-1.105,0.307,1
0.563,-1.239,0.671,1
0.258,-1.309,0.817,0
0.146,-1.252,0.547,0
0.126,-1.134,-0.178,0
0.11,-0.984,-0.955,0
0.099,-0.81,-1.96,0
0.066,-0.72,-2.577,0
-0.098,-0.636,-2.667,0
-0.153,-0.569,-2.515,0
-0.183,-0.541,-2.427,0
-0.25,-0.471,-2.098,0
-0.267,-0.377,-1.571,0
-0.204,-0.303,-1.374,0
0.016,-0.048,-1.441,0
0.159,0.033,-1.597,0
0.143,0.116,-1.781,0
0.046,0.096,-1.809,0
0.033,0.079,-1.64,0
-0.039,0.034,-1.126,0
-0.037,0.045,-0.387,0
-0.097,-0.012,-0.21,0
-0.109,-0.012,-0.21,0
-0.331,-0.39,-0.156,0
-0.432,-0.377,0.542,0
-0.341,-0.411,0.758,0
-0.279,-0.412,0.302,0
-0.228,-0.348,-0.015,0
-0.074,-0.201,0.245,0
0.052,-0.202,0.895,0
0.245,-0.143,1.987,0
0.361,-0.086,2.525,0
0.305,0.139,2.675,0
0.186,0.562,2.231,0
0.175,0.554,2.234,0
0.792,0.998,0.466,0
1.441,1.226,0.613,1
1.623,1.256,1.282,1
1.564,0.831,2.717,1
1.546,0.868,2.704,1
0.382,-0.145,4.104,1
0.147,-0.462,4.127,1
0.122,-0.638,3.99,1
0.263,-0.677,3.84,1
0.434,-0.532,3.296,1
0.535,-0.406,2.567,1
0.657,-0.23,0.935,1
0.684,-0.207,0.159,1
0.749,-0.23,-0.397,1
0.792,-0.254,-0.595,1
0.81,-0.251,-0.597,1
0.738,-0.38,-0.269,1
0.75,-0.475,-0.23,1
0.758,-0.579,-0.242,1
0.654,-0.82,-0.274,1
0.549,-0.969,-0.425,1
0.378,-1.019,-0.818,1
0.318,-1.027,-1.066,0
0.324,-0.97,-1.517,0
0.313,-0.907,-1.842,0
0.207,-0.761,-1.935,0
0.22,-0.609,-1.845,0
0.334,-0.283,-2.022,0
0.382,-0.171,-2.137,0
0.313,-0.003,-1.907,0
0.244,0.083,-1.75,0
0.089,0.127,-1.746,0
-0.039,0.053,-1.867,0
-0.124,0.089,-2.061,0
-0.049,0.14,-2.126,0
0.2,0.292,-1.871,0
0.389,0.417,-1.503,0
0.492,0.52,-0.907,0
0.381,0.475,-0.422,0
0.242,0.402,-0.077,0
0.178,0.34,-0.094,0
0.093,0.17,-0.148,0
0.094,0.147,-0.14,0
0.104,0.036,0.363,0
0.129,0.047,0.822,0
0.11,0.165,1.335,0
0.023,0.248,1.403,0
-0.162,0.342,1.102,0
-0.135,0.427,0.766,0
-0.104,0.506,0.542,0
0.002,0.477,0.665,0
-0.158,0.3,1.272,0
-0.467,0.34,1.937,0
-0.572,0.679,2.57,0
-0.414,0.904,2.051,0
-0.069,0.995,0.997,1
0.145,0.998,0.814,1
0.315,1.025,1.017,1
0.472,0.754,1.397,1
0.874,0.217,2.08,1
1.036,-0.19,3.073,1
1.171,-0.8,4.297,1
0.865,-1.197,5.037,1
-0.089,-1.751,5.157,1
-0.45,-1.86,3.982,1
-0.628,-1.766,0.771,1
-0.715,-1.486,-1.572,1
-0.697,-1.152,-3.063,1
-0.324,-0.914,-3.24,1
0.029,-0.228,-2.821,1
0.092,0.011,-2.187,1
0.292,0.015,-1.821,1
0.362,-0.058,-1.532,1
0.477,-0.401,-1.051,1
0.607,-0.54,-0.676,1
0.622,-0.71,0.028,1
0.609,-0.808,0.518,0
0.513,-0.901,0.7,0
0.175,-1.016,0.572,0
-0.172,-1.198,-0.214,0
-0.292,-1.222,-0.964,0
-0.234,-1.032,-1.607,0
-0.088,-0.893,-1.728,0
0.148,-0.646,-1.678,0
0.217,-0.507,-1.628,0
0.292,-0.372,-1.645,0
0.277,-0.315,-1.709,0
0.278,-0.27,-1.773,0
0.217,-0.258,-1.748,0
0.105,-0.26,-1.653,0
0.051,-0.359,-1.618,0
-0.105,-0.427,-1.465,0
-0.098,-0.423,-1.386,0
-0.113,-0.439,-1.297,0
-0.183,-0.418,-1.223,0
-0.097,-0.296,-1.118,0
-0.037,-0.172,-0.769,0
-0.027,-0.053,-0.077,0
-0.155,-0.037,0.285,0
-0.302,0.085,0.402,0
-0.358,0.185,0.603,0
-0.22,0.266,0.8,0
-0.173,0.247,0.972,0
-0.132,0.089,1.098,0
0.027,-0.051,1.194,0
0.156,-0.077,1.426,0
0.172,0.143,1.672,0
-0.189,0.798,1.698,0
-0.397,1.044,1.236,0
0.495,1.013,0.355,0
1.009,1.212,0.059,0
0.99,1.191,0.069,1
1.992,0.954,0.604,1
1.826,0.31,2.489,1
1.065,-0.132,3.868,1
0.478,-0.733,4.675,1
0.205,-1.157,4.403,1
-0.048,-1.199,3.525,1
-0.063,-1.088,2.997,1
0.121,-0.83,1.877,1
0.283,-0.573,0.915,1
0.315,-0.565,-0.064,1
0.415,-0.539,-0.687,1
0.435,-0.522,-0.941,1
0.578,-0.661,-0.827,1
0.658,-0.912,-0.25,1
0.6,-1.118,0.349,1
0.452,-1.378,1.044,1
0.386,-1.478,1.151,1
0.307,-1.411,0.785,1
0.318,-1.258,0.058,1
0.503,-0.873,-1.098,1
0.691,-0.555,-1.832,0
0.779,-0.251,-2.288,0
0.763,-0.042,-2.482,0
0.896,0.2,-2.751,0
0.88,0.345,-2.566,0
0.877,0.484,-2.211,0
0.726,0.499,-1.951,0
0.404,0.34,-1.625,0
0.18,0.269,-1.537,0
0.103,0.296,-1.677,0
0.217,0.339,-1.951,0
0.288,0.427,-1.992,0
0.307,0.411,-1.742,0
0.361,0.305,-1.324,0
0.429,0.327,-0.855,0
0.5,0.39,-0.185,0
0.53,0.295,0.086,0
0.611,0.315,0.124,0
0.642,0.318,0.268,0
0.701,0.257,0.437,0
0.723,0.257,0.411,0
0.421,0.321,0.795,0
0.342,0.281,1.028,0
0.257,0.357,1.272,0
0.22,0.45,1.074,0
0.228,0.513,0.837,0
0.255,0.498,0.952,0
0.434,0.565,1.121,0
0.536,0.613,1.406,0
0.735,0.679,1.983,0
0.566,0.842,2.203,1
0.054,1.324,1.385,1
0.144,1.298,0.319,1
0.49,1.396,-0.846,1
0.73,1.611,-1.357,1
1.18,1.465,-1.3,1
1.25,1.194,-0.38,1
1.202,0.468,1.428,1
1.117,-0.129,2.768,1
0.579,-1.067,4.148,1
0.016,-1.409,4.584,1
-0.607,-1.753,3.709,1
-0.881,-1.809,1.98,1
-0.571,-1.4,-0.502,1
-0.349,-1.022,-1.526,1
-0.094,-0.686,-1.531,1
0.095,-0.557,-0.896,1
0.34,-0.415,-0.349,1
0.496,-0.436,-0.276,1
0.737,-0.773,-0.148,1
0.737,-1.051,0.382,1
0.679,-1.359,1.16,0
0.673,-1.458,1.472,0
0.581,-1.504,1.239,0
0.594,-1.467,0.586,0
0.676,-1.255,-0.633,0
0.818,-1.064,-1.618,0
0.925,-0.78,-2.537,0
0.854,-0.722,-2.569,0
0.639,-0.724,-2.469,0
0.346,-0.69,-2.447,0
0.076,-0.699,-2.385,0
-0.084,-0.641,-2.225,0
-0.173,-0.545,-1.998,0
-0.081,-0.455,-1.879,0
-0.002,-0.212,-1.649,0
0.121,-0.023,-1.502,0
0.289,0.03,-1.566,0
0.193,0.047,-1.424,0
0.005,-0.052,-0.992,0
-0.119,-0.096,-0.637,0
-0.157,-0.056,-0.187,0
-0.092,-0.009,0.029,0
0.055,0.004,0.028,0
0.166,0.036,-0.014,0
0.38,0.115,0.007,0
0.365,0.185,0.215,0
0.465,0.206,0.784,0
0.539,0.219,1.005,0
0.439,0.168,1.198,0
0.433,0.145,1.245,0
0.483,0.306,1.048,0
0.625,0.482,0.901,0
0.8,0.717,1.098,0
0.773,1.08,1.53,0
0.41,1.607,1.352,0
0.619,1.715,0.581,1
1.053,1.549,-0.548,1
1.462,1.382,-1.026,1
1.433,1.384,-1.027,1
1.821,0.45,2.182,1
1.258,-0.033,4.309,1
0.926,-0.304,5.215,1
1.026,-0.501,5.212,1
0.989,-0.513,4.861,1
1.017,-0.548,3.636,1
1.201,-0.281,2.449,1
1.422,-0.01,1.101,1
1.414,0.018,0.423,1
1.223,0.027,-0.267,1
1.031,-0.077,-0.545,1
0.743,-0.3,-1.068,1
0.54,-0.402,-1.379,1
0.594,-0.508,-1.974,1
0.823,-0.501,-2.183,1
1.185,-0.514,-1.517,1
1.416,-0.591,-0.538,1
1.549,-0.677,0.647,0
1.465,-0.733,1.217,0
1.122,-0.777,1.479,0
0.764,-0.863,1.287,0
0.306,-1.047,0.142,0
0.154,-1.015,-0.767,0
0.227,-0.821,-2.187,0
0.432,-0.584,-3.042,0
0.498,-0.403,-3.526,0
0.701,-0.177,-3.408,0
0.867,0.073,-2.648,0
0.866,0.142,-2.103,0
0.758,0.147,-1.698,0
0.622,0.153,-1.382,0
0.468,0.078,-1.088,0
0.441,0.081,-1.14,0
0.524,0.169,-1.057,0
0.712,0.246,-0.923,0
0.724,0.334,-0.511,0
0.681,0.307,-0.133,0
0.685,0.338,0.109,0
0.725,0.395,0.327,0
0.73,0.389,0.766,0
0.642,0.325,1.078,0
0.38,0.242,1.219,0
0.252,0.254,1.079,0
0.115,0.154,1.07,0
0.242,0.222,1.121,0
0.583,0.416,1.402,0
0.781,0.413,1.829,0
0.774,0.376,1.843,0
0.672,0.412,2.222,0
0.682,0.376,2.236,0
0.165,0.981,0.643,0
0.103,1.318,-0.974,1
0.176,1.465,-1.79,1
0.245,1.358,-1.474,1
0.254,0.943,-0.264,1
0.476,0.232,1.608,1
0.694,-0.247,2.876,1
1.001,-0.873,4.613,1
1.08,-1.056,5.738,1
0.88,-1.385,6.334,1
0.407,-1.624,5.118,1
0.281,-1.387,1.798,1
0.307,-1.112,-0.293,1
0.088,-0.974,-1.908,1
0.09,-1.012,-2.606,1
-0.055,-0.861,-2.614,1
-0.188,-0.799,-1.859,1
0.061,-0.801,-0.707,1
0.154,-0.879,-0.367,1
0.139,-1.106,-0.203,1
0.05,-1.318,-0.22,1
-0.006,-1.458,-0.342,1
-0.079,-1.512,-0.505,0
-0.025,-1.399,-0.939,0
0.114,-1.255,-1.36,0
0.156,-1.146,-2.146,0
0.131,-1.042,-2.36,0
0.186,-0.805,-2.198,0
0.208,-0.652,-1.962,0
0.186,-0.503,-1.763,0
0.034,-0.384,-1.584,0
-0.001,-0.271,-1.54,0
0.065,-0.19,-1.587,0
0.108,-0.014,-1.472,0
0.295,0.105,-1.35,0
0.377,0.216,-1.275,0
0.292,0.306,-1.188,0
0.328,0.301,-1.253,0
0.14,0.335,-1.206,0
0.088,0.398,-0.963,0
0.122,0.377,-0.852,0
0.026,0.378,-0.397,0
0.031,0.33,0.085,0
0.143,0.238,0.685,0
0.126,0.35,1.053,0
0.032,0.389,1.633,0
-0.012,0.355,1.844,0
-0.197,0.441,1.821,0
-0.097,0.466,1.481,0
-0.104,0.437,1.492,0
0.336,0.835,0.51,0
0.455,0.942,0.656,0
0.314,1.076,0.887,0
0.168,1.281,0.331,0
0.44,1.337,-0.314,0
0.438,1.318,-0.307,1
0.985,1.224,-0.931,1
0.896,0.873,0.131,1
0.534,0.367,1.442,1
0.264,-0.196,2.671,1
0.355,-0.44,3.118,1
0.474,-0.717,3.851,1
0.471,-0.874,4.304,1
0.322,-0.99,4.524,1
0.24,-0.992,3.973,1
0.323,-0.917,2.717,1
0.594,-0.677,1.432,1
0.927,-0.486,-0.093,1
1.139,-0.312,-0.656,1
1.363,-0.203,-0.602,1
1.419,-0.116,-0.532,1
1.382,-0.138,-0.579,1
1.219,-0.365,-0.685,1
0.843,-0.54,-0.876,1
0.586,-0.751,-0.836,1
0.469,-0.896,-0.691,1
0.429,-0.812,-0.515,0
0.466,-0.681,-0.475,0
0.457,-0.631,-0.727,0
0.525,-0.549,-1.357,0
0.486,-0.516,-1.545,0
0.318,-0.514,-1.679,0
0.219,-0.455,-1.848,0
0.119,-0.416,-2.084,0
0.107,-0.37,-2.189,0
0.187,-0.126,-2.032,0
0.41,0.035,-1.841,0
0.631,0.232,-1.512,0
0.746,0.354,-1.282,0
0.942,0.434,-1.085,0
0.838,0.433,-0.876,0
0.753,0.405,-0.776,0
0.641,0.394,-0.901,0
0.5,0.313,-0.997,0
0.488,0.294,-0.883,0
0.604,0.373,-0.414,0
0.637,0.366,0.006,0
0.544,0.37,0.266,0
0.529,0.482,0.301,0
0.65,0.597,0.103,0
0.664,0.679,-0.049,0
0.581,0.668,-0.06,0
0.507,0.567,0.215,0
0.187,0.528,1.064,0
0.021,0.427,1.822,0
0.065,0.524,2.836,0
0.14,0.714,3.241,0
-0.066,0.98,2.59,0
0.084,1.099,1.169,0
0.444,1.307,-0.472,0
0.691,1.515,-1.215,0
0.858,1.404,-0.966,1
0.832,1.188,-0.068,1
0.904,0.634,1.318,1
1.048,0.201,2.379,1
1.04,-0.498,4.024,1
0.885,-1.009,5.163,1
0.621,-1.589,5.863,1
0.431,-1.673,5.152,1
0.317,-1.499,2.305,1
0.2,-1.257,0.033,1
-0.03,-0.855,-2.055,1
0.008,-0.867,-2.05,1
-0.104,-0.609,-3.068,1
-0.345,-0.43,-2.439,1
-0.348,-0.369,-0.971,1
-0.288,-0.39,-0.289,1
-0.317,-0.439,0.101,1
-0.25,-0.611,0.166,1
-0.156,-0.735,0.065,1
-0.071,-0.775,-0.119,1
0.036,-0.852,-0.217,1
0.022,-0.862,-0.228,0
-0.165,-0.91,-0.472,0
-0.286,-0.949,-0.793,0
-0.454,-0.989,-1.198,0
-0.505,-0.932,-1.378,0
-0.489,-0.82,-1.599,0
-0.442,-0.665,-1.783,0
-0.217,-0.458,-1.628,0
0.068,-0.32,-1.506,0
0.42,-0.008,-1.315,0
0.599,0.093,-1.194,0
0.743,0.185,-1.319,0
0.782,0.271,-1.593,0
0.655,0.295,-1.95,0
0.552,0.235,-2.176,0
0.315,0.134,-2.29,0
0.269,0.125,-2.216,0
0.166,0.158,-1.687,0
-0.048,0.075,-1.116,0
-0.203,0.13,-0.389,0
-0.279,0.214,0.179,0
-0.144,0.328,1.19,0
-0.184,0.462,1.816,0
-0.314,0.538,1.878,0
-0.304,0.502,1.521,0
-0.295,0.654,1.034,0
-0.131,0.802,0.987,0
0.065,0.887,1.543,0
-0.005,0.872,2.03,0
-0.339,0.978,2.095,0
-0.54,1.204,1.593,0
-0.278,1.306,0.44,0
0.122,1.343,-0.352,1
0.444,1.35,-0.455,1
0.534,1.187,0.283,1
0.456,0.612,2.187,1
0.444,0.661,2.17,1
0.144,0.027,4.266,1
0.014,-0.237,4.275,1
-0.1,-0.483,4.291,1
-0.058,-0.53,4.33,1
0.161,-0.496,3.807,1
0.271,-0.386,3.132,1
0.382,-0.252,1.974,1
0.426,-0.201,1.131,1
0.416,-0.143,-0.124,1
0.529,-0.124,-0.938,1
0.912,-0.036,-1.94,1
1.139,0.053,-2.374,1
1.347,0.142,-2.181,1
1.361,0.124,-2.175,1
1.127,-0.147,-1.061,1
0.859,-0.379,-0.679,1
0.559,-0.788,-0.52,0
0.297,-0.996,-0.484,0
0.279,-0.984,-0.522,0
0.288,-0.979,-0.756,0
0.319,-0.926,-1.376,0
0.395,-0.833,-1.908,0
0.628,-0.668,-2.442,0
0.736,-0.49,-2.518,0
0.953,-0.263,-2.267,0
1.033,-0.159,-2.079,0
0.837,-0.157,-1.855,0
0.699,-0.154,-1.913,0
0.537,-0.148,-1.931,0
0.5,-0.113,-1.826,0
0.609,0.082,-1.496,0
0.794,0.245,-1.191,0
0.992,0.38,-1.31,0
0.984,0.473,-1.528,0
1.029,0.554,-1.696,0
0.997,0.601,-1.51,0
0.746,0.561,-0.903,0
0.675,0.43,-0.435,0
0.517,0.34,0.251,0
0.434,0.407,0.858,0
0.299,0.395,1.124,0
0.38,0.451,1.045,0
0.485,0.573,0.738,0
0.571,0.718,0.587,0
0.835,0.943,0.366,0
0.959,1.096,0.487,0
0.983,1.189,1.127,0
0.741,1.057,1.596,0
-0.049,1.108,1.908,0
-0.661,1.233,1.438,0
-0.801,1.34,0.216,1
-0.82,1.361,-0.239,1
-0.231,1.558,-0.692,1
0.14,1.627,-0.647,1
0.717,1.022,0.435,1
1.115,0.436,2.178,1
1.088,-0.406,4.943,1
0.855,-1.041,6.526,1
0.37,-1.725,7.404,1
-0.21,-2.093,6.815,1
-0.326,-1.874,3.544,1
-0.067,-1.531,0.98,1
-0.145,-0.958,-2.391,1
0.142,-0.779,-4.192,1
0.48,-0.347,-5.197,1
0.345,-0.115,-4.577,1
0.352,-0.07,-2.726,1
0.432,-0.111,-1.36,1
0.35,-0.298,-0.284,1
0.341,-0.492,0.072,1
0.212,-0.74,0.051,1
-0.006,-0.999,-0.215,0
-0.144,-1.11,-0.507,0
-0.225,-1.13,-0.629,0
-0.361,-1.127,-0.819,0
-0.391,-1.074,-0.963,0
-0.402,-0.937,-0.985,0
-0.319,-0.763,-1.027,0
-0.224,-0.579,-1.234,0
-0.244,-0.525,-1.525,0
-0.232,-0.441,-1.836,0
-0.199,-0.397,-1.948,0
-0.118,-0.309,-1.979,0
-0.128,-0.241,-1.826,0
-0.151,-0.184,-1.628,0
-0.155,-0.181,-1.629,0
-0.199,-0.074,-1.28,0
-0.139,0.022,-1.06,0
-0.123,0.174,-0.687,0
-0.093,0.294,-0.394,0
0.153,0.403,-0.031,0
0.161,0.533,0.399,0
0.093,0.559,1.065,0
0.016,0.598,1.473,0
-0.033,0.694,1.615,0
-0.001,0.713,1.43,0
0.126,0.805,0.972,0
0.126,0.782,0.98,0
0.552,0.52,0.607,0
0.485,0.415,1.131,0
0.195,0.18,1.961,0
0.116,0.118,2.024,0
-0.427,0.411,1.482,0
-0.853,0.683,0.631,0
-0.638,0.705,-0.438,0
0.098,0.801,-1.031,0
0.991,1.043,-0.941,1
1.53,1.015,-0.335,1
1.818,0.869,0.999,1
1.368,0.66,1.93,1
0.758,0.258,2.009,1
0.512,0.048,1.128,1
0.476,-0.101,0.143,1
0.567,-0.075,0.112,1
0.52,-0.056,0.746,1
0.475,-0.079,1.108,1
0.343,-0.263,1.425,1
0.336,-0.359,1.381,1
0.213,-0.539,1.173,1
0.137,-0.69,0.846,1
0.2,-0.901,0.524,1
0.257,-0.997,0.334,1
0.43,-0.979,0.302,1
0.627,-0.928,0.218,1
0.84,-0.729,0.133,1
0.846,-0.697,0.122,1
1.271,-0.281,-0.452,1
1.292,-0.123,-1.004,0
1.306,0.029,-1.758,0
1.28,0.135,-2.097,0
1.154,0.276,-2.238,0
1.047,0.277,-2.334,0
1.054,0.282,-2.336,0
0.689,0.285,-1.584,0
0.52,0.45,-1.115,0
0.346,0.518,-1.265,0
0.103,0.547,-2.157,0
0.026,0.603,-2.646,0
0.057,0.778,-2.532,0
0.196,0.89,-2.141,0
0.348,0.864,-1.844,0
0.24,0.828,-1.411,0
0.139,0.743,-0.676,0
0.28,0.71,-0.066,0
0.355,0.667,1.046,0
0.431,0.584,1.382,0
0.5,0.61,1.05,0
0.202,0.483,0.955,0
0.209,0.458,0.963,0
0.142,0.456,0.711,0
0.213,0.559,0.844,0
0.254,0.57,1.009,0
0.297,0.655,1.379,0
0.289,0.671,1.633,0
0.083,0.559,2.061,0
0.076,0.394,2.254,0
-0.15,0.31,2.092,0
-0.713,0.489,1.802,0
-0.889,0.906,0.732,0
-0.526,1.328,-0.495,0
0.355,1.884,-2.137,1
0.973,2.285,-2.609,1
1.502,2.23,-1.409,1
1.661,1.776,0.355,1
1.34,0.615,3.24,1
1.26,-0.331,5.43,1
0.881,-0.97,7.346,1
0.385,-1.2,7.534,1
-0.143,-1.367,5.085,1
-0.157,-1.131,2.924,1
0.001,-0.634,-0.494,1
-0.068,-0.611,-1.729,1
-0.018,-0.638,-2.472,1
-0.014,-0.606,-2.048,1
0.024,-0.689,-0.676,1
0.266,-0.817,0.055,1
0.444,-0.919,0.339,1
0.45,-1.075,0.323,1
0.487,-1.2,0.051,1
0.509,-1.198,-0.357,1
0.538,-1.125,-1.185,1
0.6,-1.051,-1.82,0
0.612,-0.937,-2.385,0
0.503,-0.84,-2.602,0
0.363,-0.829,-2.791,0
0.206,-0.754,-2.814,0
0.17,-0.616,-2.6,0
0.196,-0.535,-2.429,0
0.299,-0.298,-2.117,0
0.399,-0.153,-1.996,0
0.414,0.037,-2.037,0
0.385,0.172,-2.117,0
0.347,0.321,-2.159,0
0.285,0.376,-2.169,0
0.287,0.359,-2.257,0
0.345,0.432,-2.06,0
0.395,0.453,-1.328,0
0.385,0.428,-0.884,0
0.202,0.39,-0.385,0
0.131,0.394,-0.103,0
0.284,0.46,0.05,0
0.39,0.64,0.334,0
0.37,0.73,0.654,0
0.464,0.708,0.823,0
0.332,0.542,1.522,0
0.29,0.386,1.862,0
0.433,0.178,2.188,0
0.431,0.153,2.381,0
0.373,0.21,2.75,0
0.527,0.347,2.716,0
0.433,0.818,2.204,0
0.137,1.274,1.294,0
0.321,1.51,0.164,0
0.744,1.538,-0.372,0
1.176,1.546,-0.153,1
1.336,1.331,0.801,1
0.799,0.731,2.523,1
0.182,0.343,3.156,1
-0.137,-0.06,2.95,1
0.001,-0.198,2.163,1
0.295,-0.222,1.678,1
0.442,-0.278,1.941,1
0.463,-0.242,1.928,1
0.301,-0.511,1.729,1
0.05,-0.817,0.938,1
-0.04,-0.989,0.397,1
-0.157,-1.105,-0.564,1
-0.133,-1.176,-0.94,1
0.006,-1.172,-0.941,1
0.119,-1.18,-0.738,1
0.213,-1.169,-0.401,1
0.331,-1.122,-0.063,1
0.392,-1.055,0.116,1
0.421,-0.998,-0.091,1
0.482,-0.764,-0.67,1
0.529,-0.538,-0.996,0
0.721,-0.19,-1.585,0
0.806,0.037,-2.151,0
0.748,0.223,-2.607,0
0.613,0.282,-2.699,0
0.41,0.066,-2.861,0
0.249,-0.011,-2.68,0
0.104,0.065,-1.914,0
0.058,0.095,-1.608,0
-0.115,0.082,-1.591,0
-0.171,0.104,-1.806,0
-0.089,0.117,-1.793,0
-0.026,0.141,-1.483,0
0.1,0.245,-1.202,0
0.232,0.283,-1.116,0
0.554,0.384,-1.181,0
0.699,0.475,-0.857,0
0.808,0.401,-0.027,0
0.804,0.339,0.326,0
0.463,0.287,0.601,0
0.271,0.133,0.648,0
-0.039,0.115,0.781,0
-0.219,0.193,0.791,0
-0.342,0.247,0.994,0
-0.337,0.283,1.183,0
-0.269,0.332,1.443,0
-0.145,0.525,1.826,0
0.244,0.723,2.457,0
0.488,0.819,2.736,0
0.312,1.199,2.876,0
0.202,1.398,2.321,0
0.246,1.55,0.742,1
0.216,1.629,-0.171,1
0.399,1.7,-1.036,1
0.393,1.581,-0.893,1
0.521,1.17,0.184,1
0.681,0.772,1.377,1
0.793,0.091,3.225,1
0.927,-0.384,4.592,1
0.595,-0.977,5.693,1
0.114,-1.283,5.411,1
-0.149,-1.287,3.216,1
-0.114,-1.112,1.546,1
-0.256,-0.791,-1.202,1
-0.273,-0.616,-2.3,1
-0.198,-0.545,-2.775,1
-0.186,-0.411,-2.35,1
-0.117,-0.46,-1.301,1
-0.056,-0.562,-0.571,1
-0.008,-0.778,0.097,1
0.004,-0.97,0.445,1
0.064,-1.161,0.721,1
0.091,-1.165,0.83,0
0.092,-1.075,0.411,0
0.069,-0.995,-0.272,0
0.064,-0.835,-1.453,0
-0.036,-0.736,-2.26,0
-0.24,-0.706,-3.11,0
-0.458,-0.653,-3.585,0
-0.662,-0.54,-3.782,0
-0.635,-0.4,-3.452,0
-0.274,-0.042,-2.883,0
-0.062,0.231,-2.514,0
0.103,0.4,-1.909,0
0.125,0.516,-1.444,0
-0.026,0.521,-0.815,0
-0.192,0.458,-0.538,0
-0.481,0.364,-0.376,0
-0.587,0.327,-0.342,0
-0.576,0.332,-0.344,0
-0.459,0.386,-0.321,0
-0.346,0.432,0.093,0
-0.356,0.402,0.466,0
-0.383,0.378,0.995,0
-0.358,0.374,1.321,0
-0.301,0.345,1.378,0
-0.359,0.281,1.41,0
-0.258,0.352,1.406,0
0.008,0.492,1.354,0
0.168,0.467,1.531,0
0.097,0.351,1.875,0
0.08,0.385,2.032,0
-0.099,0.573,2.167,0
-0.289,0.991,1.712,0
-0.066,1.199,0.522,0
0.309,1.323,-0.627,1
0.651,1.325,-1.009,1
1.133,1.131,-0.394,1
1.166,0.789,0.466,1
0.619,0.236,2.652,1
0.47,0.027,3.753,1
0.392,-0.198,4.006,1
0.376,-0.111,3.232,1
0.277,-0.081,2.063,1
0.316,-0.04,1.165,1
0.288,0.007,0.395,1
0.221,-0.063,0.337,1
0.274,-0.303,0.231,1
0.241,-0.402,0.2,1
0.139,-0.653,0.446,1
0.114,-0.824,0.772,1
0.092,-0.987,1.085,1
0.096,-0.967,1.078,1
0.207,-0.986,0.582,1
0.374,-0.882,-0.027,1
0.629,-0.656,-0.985,1
0.744,-0.551,-1.605,0
0.879,-0.439,-2.144,0
0.841,-0.346,-2.311,0
0.661,-0.32,-2.303,0
0.548,-0.307,-2.269,0
0.368,-0.347,-2.203,0
0.194,-0.341,-2.292,0
0.033,-0.334,-2.641,0
0.019,-0.263,-2.79,0
0.249,-0.055,-2.795,0
0.453,0.109,-2.688,0
0.513,0.277,-2.37,0
0.479,0.309,-2.07,0
0.442,0.369,-1.637,0
0.359,0.334,-1.27,0
0.304,0.311,-1.141,0
0.141,0.28,-1.181,0
-0.064,0.113,-0.924,0
-0.046,0.05,-0.757,0
0.033,0.159,-0.708,0
0.11,0.254,-0.537,0
0.306,0.371,-0.111,0
0.416,0.479,0.37,0
0.3,0.514,0.921,0
0.098,0.468,1.353,0
-0.275,0.309,2.064,0
-0.427,0.228,2.331,0
-0.456,0.275,2.086,0
-0.254,0.37,1.757,0
0.093,0.532,1.692,0
0.244,0.617,1.913,0
0.102,1.114,2.237,0
0.231,1.526,1.922,0
0.493,1.902,0.836,1
0.483,2.096,0.214,1
0.557,1.961,-0.147,1
0.532,1.708,-0.192,1
0.299,1.029,0.445,1
0.377,0.449,1.529,1
0.591,-0.159,3.363,1
0.535,-0.707,4.411,1
0.284,-1.262,4.966,1
-0.102,-1.552,4.503,1
-0.351,-1.59,2.146,1
-0.523,-1.397,0.664,1
-0.701,-0.997,-1.379,1
-0.628,-0.8,-1.953,1
-0.212,-0.521,-2.122,1
-0.055,-0.243,-2.005,1
0.236,-0.019,-1.485,1
0.526,0.047,-0.909,1
0.638,-0.156,-0.188,1
0.609,-0.376,0.13,1
0.604,-0.676,0.267,1
0.592,-0.789,0.222,0
0.477,-0.854,0.093,0
0.306,-0.923,-0.254,0
0.077,-0.93,-0.947,0
-0.093,-0.935,-1.571,0
-0.333,-0.906,-2.151,0
-0.458,-0.893,-2.526,0
-0.427,-0.767,-2.928,0
-0.419,-0.561,-2.66,0
-0.2,-0.251,-2.07,0
-0.195,-0.246,-2.072,0
0.275,0.31,-2.403,0
0.259,0.436,-2.514,0
0.28,0.524,-2.644,0
0.346,0.538,-2.889,0
0,0.515,-2.371,0
-0.16,0.453,-1.552,0
-0.351,0.309,-0.856,0
-0.513,0.192,-0.848,0
-0.767,0.08,-0.442,0
-0.786,0.086,0.548,0
-0.611,0.002,1.328,0
-0.459,0,1.18,0
-0.271,0.209,1.038,0
-0.085,0.327,1.275,0
-0.005,0.426,2.282,0
0.149,0.498,2.813,0
0.348,0.622,2.948,0
0.325,0.655,2.593,0
0.342,0.585,1.879,0
0.204,0.797,1.631,0
-0.267,1.354,1.278,0
-0.21,1.628,0.532,0
0.483,2.032,-0.603,1
0.954,2.328,-1.277,1
1.594,2.371,-0.975,1
1.786,2.053,0.03,1
1.263,1.07,2.434,1
0.92,0.256,4.189,1
0.359,-0.598,5.873,1
-0.26,-1.047,6.691,1
-0.909,-1.532,6.989,1
-1.078,-1.549,6.152,1
-0.963,-1.429,3.145,1
-0.744,-1.164,1.21,1
-0.267,-0.738,-1.22,1
0.232,-0.527,-2.343,1
0.615,-0.202,-2.578,1
0.917,-0.21,-2.044,1
1.057,-0.329,-0.886,1
1.06,-0.314,-0.891,1
0.904,-0.828,0.259,1
0.8,-0.902,0.27,1
0.768,-0.923,-0.371,1
0.858,-0.774,-1.049,0
1.063,-0.448,-2.116,0
1.078,-0.469,-2.109,0
1.15,-0.029,-3.018,0
1.049,0.044,-3.071,0
0.832,0.187,-3.057,0
0.648,0.23,-3.092,0
0.373,0.131,-3.126,0
0.2,0.13,-2.985,0
0.135,0.151,-2.55,0
0.136,0.19,-2.127,0
0.274,0.297,-1.495,0
0.381,0.367,-0.92,0
0.364,0.355,-0.426,0
0.409,0.4,-0.563,0
0.373,0.505,-0.879,0
0.289,0.535,-0.835,0
0.361,0.555,-0.472,0
0.395,0.617,-0.111,0
0.37,0.622,0.317,0
0.349,0.595,0.418,0
0.12,0.493,0.622,0
0,0.472,0.804,0
-0.258,0.468,1.179,0
-0.401,0.411,1.363,0
-0.357,0.409,1.301,0
-0.223,0.395,1.444,0
-0.204,0.368,1.455,0
0.275,0.5,1.926,0
0.429,0.467,2.026,0
0.331,0.729,2.077,0
0.156,1.264,1.492,0
0.176,1.467,0.308,0
0.03,1.652,-1.073,1
0.096,1.713,-1.456,1
0.259,1.285,-0.4,1
0.292,0.841,0.99,1
0.654,0.2,3.278,1
0.922,-0.216,4.352,1
0.82,-0.496,5.258,1
0.568,-0.695,5.411,1
0.253,-0.846,4.058,1
0.023,-0.763,2.082,1
-0.001,-0.402,-0.432,1
-0.075,-0.351,-1.439,1
-0.466,-0.493,-2.035,1
-0.587,-0.616,-1.728,1
-0.646,-0.775,-1.029,1
-0.539,-0.878,-0.624,1
-0.279,-0.981,-0.353,1
-0.114,-1.056,-0.196,1
0.133,-1.193,-0.001,1
0.211,-1.248,0.014,1
0.265,-1.278,-0.241,1
0.303,-1.185,-0.567,0
0.306,-1.096,-1.409,0
0.336,-0.989,-2.246,0
0.311,-0.823,-2.773,0
0.333,-0.643,-3.087,0
0.19,-0.399,-3.463,0
0.134,-0.384,-3.793,0
-0.111,-0.309,-3.64,0
-0.21,-0.269,-2.936,0
-0.105,-0.091,-2.226,0
-0.06,-0.008,-2.3,0
0.159,0.294,-2.171,0
0.335,0.37,-1.897,0
0.215,0.414,-1.393,0
0.04,0.373,-0.636,0
0.039,0.447,0.418,0
-0.051,0.465,0.716,0
-0.301,0.363,0.918,0
-0.401,0.193,0.886,0
-0.441,0.01,0.727,0
-0.519,0.014,0.822,0
-0.515,0.008,1.348,0
-0.409,0.06,1.648,0
-0.324,0.221,1.497,0
-0.144,0.345,1.234,0
-0.142,0.325,1.241,0
0.152,0.583,0.699,0
0.303,0.643,1.006,0
0.253,0.626,1.474,0
-0.168,1.08,2.007,0
-0.287,1.305,1.694,1
-0.294,1.273,1.706,1
0.324,1.689,-0.727,1
0.666,1.833,-1.525,1
0.826,1.695,-0.881,1
0.394,0.926,1.603,1
0.123,0.311,2.97,1
-0.118,-0.274,4.347,1
-0.33,-0.677,4.937,1
-0.304,-0.904,5.229,1
-0.272,-0.881,4.827,1
-0.001,-0.706,3.247,1
0.25,-0.524,2.017,1
0.527,-0.267,0.234,1
0.717,-0.214,-0.704,1
0.757,-0.226,-0.7,1
1.029,-0.18,-1.738,1
1.024,-0.231,-1.376,1
1.017,-0.353,-0.904,1
0.913,-0.577,-0.274,1
0.814,-0.691,-0.095,1
0.603,-0.866,-0.129,0
0.486,-0.914,-0.423,0
0.444,-0.816,-1.082,0
0.498,-0.719,-1.626,0
0.617,-0.578,-2.239,0
0.578,-0.493,-2.292,0
0.491,-0.508,-2.337,0
0.344,-0.477,-2.551,0
0.029,-0.455,-2.218,0
0.016,-0.462,-2.144,0
-0.065,-0.284,-2.409,0
0,-0.178,-2.745,0
0.054,-0.02,-2.846,0
-0.024,0.025,-2.69,0
-0.05,0.068,-2.342,0
0.073,0.142,-2.126,0
0.213,0.237,-1.612,0
0.248,0.266,-1.175,0
0.357,0.34,-0.351,0
0.32,0.347,-0.058,0
0.482,0.437,0.047,0
0.439,0.362,0.199,0
0.209,0.245,0.585,0
0.144,0.258,0.941,0
0.15,0.262,0.94,0
0.108,0.493,1.282,0
0.281,0.76,1.025,0
0.333,0.823,1.136,0
0.396,0.91,1.547,0
0.313,0.922,1.966,0
0.231,0.782,2.878,0
0.21,0.674,3.305,0
0.236,0.769,3.457,0
-0.024,1.01,2.998,0
-0.153,1.405,1.074,1
0.049,1.625,-0.277,1
0.342,1.935,-1.999,1
0.432,1.926,-2.39,1
0.313,1.275,-0.887,1
0.118,0.54,1.241,1
0.115,-0.233,3.604,1
0.161,-0.739,4.808,1
-0.025,-0.996,5.414,1
-0.228,-1.044,4.595,1
-0.306,-0.777,1.591,1
-0.31,-0.479,-0.399,1
-0.589,-0.132,-2.264,1
-0.625,-0.181,-2.566,1
-0.952,-0.231,-2.102,1
-1.007,-0.33,-1.285,1
-0.698,-0.46,-0.013,1
-0.748,-0.43,-0.023,1
-0.4,-0.842,1.202,1
-0.286,-0.912,1.318,1
-0.143,-1.023,1.216,1
-0.072,-1.081,0.896,0
0.035,-1.103,-0.039,0
0.031,-1.097,-0.041,0
0.093,-1.003,-1.77,0
0.046,-1.037,-2.514,0
-0.092,-1.079,-3.222,0
-0.274,-1.038,-3.286,0
-0.314,-0.906,-2.583,0
-0.291,-0.807,-2.184,0
-0.371,-0.509,-1.855,0
-0.385,-0.369,-1.937,0
-0.341,-0.12,-2.13,0
-0.256,-0.012,-2.358,0
-0.307,0.079,-2.506,0
-0.283,0.079,-2.328,0
-0.373,0.066,-1.552,0
-0.438,0.091,-0.965,0
-0.513,0.064,-0.444,0
-0.637,0.122,-0.197,0
-0.675,0.141,0.291,0
-0.68,0.065,0.579,0
-0.728,0.181,1.088,0
-0.648,0.332,1.325,0
-0.456,0.517,1.38,0
-0.289,0.639,1.246,0
0.022,0.71,0.998,0
-0.008,0.758,1.365,0
0.236,0.805,2.21,0
0.395,0.875,2.636,0
0.621,0.896,3.097,0
0.812,0.866,2.836,0
0.268,1.106,1.66,0
-0.103,1.262,0.907,0
0.365,1.604,-0.879,1
0.625,1.711,-1.615,1
0.948,1.835,-1.297,1
1.254,1.772,-0.202,1
1.124,1.496,2.424,1
0.769,1.089,3.91,1
0.737,0.563,4.568,1
0.684,0.276,4.303,1
0.38,0.04,3.638,1
0.286,-0.058,3.253,1
0.176,-0.103,2.488,1
0.173,-0.094,1.791,1
0.039,-0.253,0.306,1
-0.069,-0.303,-0.569,1
-0.238,-0.44,-1.514,1
-0.28,-0.57,-1.521,1
-0.147,-0.717,-1.161,1
-0.061,-0.775,-0.822,1
0.004,-0.912,-0.552,1
-0.022,-0.984,-0.522,1
0.062,-0.991,-0.661,1
0.164,-0.882,-1.025,0
0.248,-0.686,-1.952,0
0.246,-0.643,-2.577,0
0.166,-0.584,-3.098,0
0.101,-0.484,-2.969,0
0.064,-0.388,-2.403,0
-0.017,-0.31,-2.045,0
-0.261,-0.301,-1.554,0
-0.405,-0.28,-1.413,0
-0.37,-0.152,-1.441,0
-0.379,-0.053,-1.524,0
-0.134,0.21,-1.69,0
-0.013,0.33,-1.934,0
0.007,0.413,-2.044,0
0.157,0.5,-1.828,0
0.345,0.512,-1.373,0
0.399,0.51,-1.035,0
0.437,0.368,-0.59,0
0.305,0.313,-0.362,0
0.291,0.306,-0.36,0
-0.203,-0.101,0.588,0
-0.28,-0.115,0.965,0
-0.282,-0.014,1.049,0
-0.242,0.091,0.825,0
-0.102,0.291,0.394,0
-0.083,0.261,0.405,0
0.278,0.716,0.305,0
0.218,0.737,0.862,0
0.083,0.665,1.57,0
0.178,0.466,2.827,0
0.165,0.437,2.838,0
-0.1,0.691,2.965,0
-0.555,1.085,1.965,0
-0.45,1.45,-0.453,1
-0.05,1.762,-1.889,1
-0.026,1.714,-1.869,1
0.941,2.196,-2.667,1
1.463,1.434,-0.257,1
1.667,0.569,2.207,1
1.533,-0.742,5.963,1
0.776,-1.689,8.285,1
-0.518,-2.5,8.622,1
-1.303,-2.608,6.676,1
-0.784,-2.056,2.478,1
-0.493,-1.382,-0.33,1
-0.164,-0.707,-3.485,1
0.071,-0.327,-3.967,1
0.223,0.129,-3.192,1
0.194,0.144,-2.269,1
0.155,0.173,-2.279,1
0.07,-0.332,-0.762,1
0.096,-0.725,0.094,1
0.167,-0.833,0.268,1
0.291,-0.818,0.327,1
0.351,-0.804,0.128,0
0.578,-0.647,-0.614,0
0.626,-0.532,-1.071,0
0.622,-0.53,-1.071,0
0.372,-0.431,-1.756,0
0.151,-0.454,-2.013,0
-0.142,-0.497,-1.906,0
-0.371,-0.512,-1.687,0
-0.48,-0.501,-1.574,0
-0.55,-0.299,-1.18,0
-0.409,-0.096,-1.068,0
-0.302,0.144,-1.176,0
-0.195,0.229,-1.465,0
-0.146,0.359,-2.081,0
-0.162,0.363,-2.269,0
-0.087,0.372,-2.151,0
-0.047,0.301,-1.871,0
0.015,0.227,-1.403,0
0.122,0.262,-1.247,0
-0.081,0.231,-0.387,0
-0.16,0.142,0.233,0
-0.197,0.079,1.04,0
-0.266,0.126,1.696,0
-0.192,0.213,1.568,0
-0.219,0.298,1.029,0
-0.001,0.413,0.093,0
0.248,0.46,-0.085,0
0.383,0.497,0.607,0
0.484,0.504,1.422,0
0.53,0.536,2.419,0
0.51,0.516,2.428,0
-0.678,1.143,1.177,0
-0.883,1.143,0.072,0
-0.194,1.053,-1.071,0
0.199,1.198,-1.339,0
0.504,1.046,-0.232,1
0.629,0.71,1.443,1
0.345,0.391,3.761,1
0.185,-0.12,4.919,1
0.219,-0.666,5.385,1
0.046,-0.858,5.432,1
-0.409,-1.018,5.161,1
-0.664,-0.986,4.275,1
-0.645,-0.798,2.143,1
-0.513,-0.58,0.85,1
-0.293,-0.337,-0.971,1
-0.269,-0.339,-1.669,1
-0.032,-0.308,-2.038,1
0.248,-0.278,-1.821,1
0.436,-0.383,-1.002,1
0.465,-0.418,-0.503,1
0.406,-0.562,-0.204,1
0.307,-0.621,-0.307,1
0.171,-0.561,-0.717,1
0.096,-0.542,-0.94,1
0.11,-0.54,-0.941,1
-0.166,-0.42,-1.57,0
-0.207,-0.337,-2.102,0
-0.16,-0.18,-2.355,0
0.085,0.022,-2.54,0
0.183,0.12,-2.305,0
0.18,0.115,-2.303,0
-0.047,0.1,-1.015,0
-0.209,0.035,-0.558,0
-0.312,-0.038,-0.706,0
-0.405,-0.006,-1.361,0
-0.359,0.039,-1.825,0
-0.296,0.204,-2.13,0
-0.203,0.231,-2.194,0
-0.079,0.27,-1.986,0
-0.015,0.362,-1.436,0
0.164,0.401,-0.723,0
0.141,0.387,-0.332,0
0.012,0.265,0.205,0
-0.051,0.085,0.456,0
-0.126,-0.009,0.61,0
-0.209,0.034,0.512,0
-0.224,0.116,0.139,0
-0.239,0.237,-0.039,0
-0.052,0.455,-0.115,0
0.147,0.616,0.046,0
0.374,0.863,0.602,0
0.374,0.854,0.958,0
0.375,0.911,1.783,0
0.595,0.873,2.307,0
0.36,1.058,2.777,0
-0.047,1.388,2.438,0
-0.221,1.699,0.387,0
-0.071,1.684,-0.67,1
0.138,1.898,-1.399,1
0.383,1.813,-1.266,1
0.528,1.43,-0.301,1
0.567,0.783,1.07,1
0.708,-0.291,3.357,1
0.485,-0.906,4.487,1
-0.039,-1.717,5.566,1
-0.661,-1.977,5.172,1
-1.168,-1.899,2.128,1
-1.187,-1.64,-0.051,1
-1.315,-1.235,-2.888,1
-1.067,-1.014,-3.746,1
-0.744,-0.543,-3.282,1
-0.537,-0.413,-1.837,1
-0.394,-0.41,0.005,1
-0.266,-0.508,0.702,1
0.17,-0.76,1.271,1
0.159,-0.892,1.296,1
0.187,-1.002,0.785,1
0.33,-0.924,0.382,1
0.507,-0.825,-0.275,0
0.537,-0.703,-0.776,0
0.564,-0.547,-1.565,0
0.421,-0.457,-1.777,0
0.343,-0.298,-1.785,0
0.303,-0.138,-1.817,0
0.19,0.05,-1.891,0
0.15,0.187,-1.867,0
0.157,0.192,-1.869,0
0.33,0.53,-1.839,0
0.32,0.604,-1.705,0
0.219,0.583,-1.539,0
-0.061,0.406,-1.274,0
-0.209,0.328,-1.113,0
-0.356,0.237,-0.769,0
-0.322,0.21,-0.518,0
-0.217,0.257,0.133,0
-0.145,0.345,0.415,0
0.085,0.476,0.289,0
0.161,0.55,-0.035,0
0.138,0.675,-0.159,0
0.153,0.642,-0.149,0
0.145,0.684,-0.033,0
0.078,0.659,0.106,0
0.112,0.648,0.09,0
0.188,0.63,0.195,0
0.323,0.479,1.054,0
0.302,0.284,1.686,0
0.261,0.403,2.252,0
0.284,0.614,2.017,0
-0.281,1.059,1.083,0
-0.275,1.026,1.095,0
-0.082,1.095,-1.057,0
0.368,1.109,-1.37,0
0.6,1.097,-0.664,1
0.773,0.918,0.454,1
0.687,0.723,2.508,1
0.573,0.426,3.511,1
0.891,-0.046,3.921,1
0.834,-0.234,3.987,1
0.497,-0.588,4.034,1
0.134,-0.733,3.802,1
-0.231,-0.906,2.825,1
-0.211,-0.918,2.009,1
-0.22,-0.976,0.676,1
-0.223,-0.983,0.073,1
-0.117,-0.941,-0.45,1
0.068,-0.839,-0.457,1
0.437,-0.702,-0.275,1
0.568,-0.633,-0.314,1
0.726,-0.559,-0.792,1
0.899,-0.47,-1.127,1
1.232,-0.35,-1.536,1
1.3,-0.251,-1.438,1
1.227,-0.276,-0.968,1
1.094,-0.302,-0.872,0
0.868,-0.299,-0.801,0
0.788,-0.297,-0.874,0
0.594,-0.286,-1.144,0
0.423,-0.343,-1.413,0
0.159,-0.32,-1.672,0
0.093,-0.302,-1.83,0
0.064,-0.21,-2.148,0
0.061,-0.126,-2.365,0
0.047,0.048,-2.29,0
0.117,0.123,-2.064,0
0.122,0.117,-2.062,0
0.008,0.178,-1.356,0
-0.157,0.109,-0.793,0
-0.214,0.064,-0.52,0
-0.309,0.048,-0.228,0
-0.213,0.1,-0.21,0
0.228,0.362,-0.463,0
0.525,0.539,-0.509,0
0.769,0.67,-0.323,0
0.716,0.714,-0.054,0
0.659,0.746,0.448,0
0.541,0.642,0.735,0
0.235,0.468,1.064,0
0.083,0.389,1.431,0
-0.166,0.237,2.212,0
-0.113,0.15,2.641,0
-0.109,0.112,2.656,0
0.234,0.352,1.764,0
-0.339,1.061,0.209,0
-0.425,1.39,-1.088,0
-0.081,1.797,-2.757,0
0.116,1.941,-3.274,1
0.202,1.973,-2.971,1
0.366,1.676,-2.093,1
1.032,0.586,0.457,1
1.309,-0.312,2.945,1
0.958,-1.378,7.139,1
0.565,-1.714,8.824,1
-0.283,-2.042,8.261,1
-0.853,-1.928,5.816,1
-0.563,-1.149,1.132,1
-0.489,-0.689,-1.279,1
-0.413,-0.262,-3.671,1
-0.222,0.053,-4.017,1
-0.176,0.257,-3.087,1
-0.259,0.099,-1.565,1
-0.309,-0.355,0.232,1
-0.409,-0.653,0.745,1
-0.476,-1.004,0.978,1
-0.338,-1.004,0.822,1
0.188,-0.821,0.229,1
0.491,-0.654,-0.344,1
0.662,-0.529,-1.221,0
0.517,-0.59,-1.499,0
0.192,-0.649,-1.435,0
-0.156,-0.767,-1.2,0
-0.792,-1.078,-0.935,0
-1.027,-1.055,-1.014,0
-1.017,-1.049,-1.016,0
-0.723,-0.478,-1.502,0
-0.046,0.155,-1.649,0
0.253,0.416,-1.459,0
0.254,0.412,-1.458,0
0.257,0.489,-1.097,0
0.047,0.322,-0.957,0
-0.171,0.192,-0.931,0
-0.507,0.017,-0.951,0
-0.633,-0.082,-0.859,0
-0.713,-0.114,-0.622,0
-0.579,-0.056,-0.511,0
-0.386,0.098,-0.148,0
-0.348,0.178,0.289,0
-0.348,0.167,0.292,0
-0.219,0.375,0.479,0
-0.169,0.524,0.3,0
-0.043,0.603,0.246,0
0.075,0.671,0.398,0
0.049,0.611,0.709,0
0.022,0.565,1.352,0
0.033,0.481,1.834,0
0.171,0.519,1.775,0
0.037,0.785,1.376,0
-0.326,1.233,0.267,0
-0.084,1.283,-0.681,0
0.699,1.211,-1.303,0
1.07,1.172,-0.899,0
1.052,1.174,-0.899,1
1.109,0.629,1.488,1
0.351,-0.065,3.197,1
-0.202,-0.498,3.681,1
-0.274,-0.73,3.29,1
-0.18,-0.711,3.017,1
0.036,-0.511,2.542,1
0.11,-0.343,1.845,1
-0.091,-0.274,0.755,1
-0.206,-0.333,0.305,1
-0.132,-0.469,0.027,1
-0.168,-0.674,0.268,1
-0.253,-0.866,0.908,1
-0.184,-0.952,1.456,1
0.05,-0.971,1.748,1
0.16,-0.905,1.57,1
0.38,-0.806,0.945,1
0.46,-0.703,0.475,1
0.529,-0.551,-0.445,1
0.573,-0.462,-1.111,1
0.531,-0.346,-1.885,1
0.578,-0.274,-2.461,0
0.58,-0.128,-3.112,0
0.454,-0.038,-3.196,0
0.419,-0.069,-3.256,0
0.208,-0.091,-2.816,0
-0.033,-0.143,-1.996,0
-0.049,-0.07,-1.839,0
-0.137,-0.071,-2.046,0
-0.034,0.065,-2.146,0
0.078,0.23,-2.129,0
0.062,0.283,-2.287,0
0.239,0.362,-2.568,0
0.257,0.441,-2.145,0
0.155,0.47,-1.19,0
0,0.411,-0.742,0
-0.16,0.266,-0.498,0
-0.172,0.195,-0.17,0
-0.035,0.203,0.58,0
0.11,0.186,0.842,0
0.066,0.242,0.952,0
-0.091,0.314,1.123,0
-0.08,0.3,1.128,0
-0.115,0.499,0.675,0
-0.011,0.6,0.534,0
0.119,0.671,0.672,0
0.069,0.742,1.263,0
0.028,0.714,1.835,0
0.212,0.716,2.379,0
0.266,0.721,2.441,0
-0.289,1.165,1.394,0
-0.386,1.348,0.193,0
0.109,1.506,-1.586,0
0.439,1.608,-2.133,0
0.855,1.739,-1.891,1
0.867,1.579,-0.692,1
0.693,0.772,1.935,1
0.695,0.248,3.573,1
0.49,-0.677,5.794,1
0.262,-1.017,6.511,1
-0.252,-1.276,5.932,1
-0.458,-1.09,3.841,1
-0.481,-0.578,0.365,1
-0.682,-0.364,-1.488,1
-0.958,-0.305,-3.201,1
-0.897,-0.217,-3.651,1
-1.029,-0.132,-2.889,1
-1.008,-0.221,-1.721,1
-0.657,-0.388,-0.284,1
-0.467,-0.569,0.186,1
-0.301,-0.873,0.52,1
-0.129,-0.912,0.487,1
0.123,-0.945,0.408,1
0.196,-0.949,0.427,1
0.198,-0.934,0.137,1
0.047,-0.932,-0.394,0
-0.196,-0.869,-1.195,0
-0.378,-0.908,-1.554,0
-0.635,-0.942,-2.099,0
-0.829,-0.916,-2.372,0
-0.909,-0.685,-2.15,0
-0.875,-0.486,-1.934,0
-0.781,-0.184,-1.719,0
-0.644,0.02,-1.77,0
-0.485,0.212,-2.027,0
-0.459,0.314,-2.14,0
-0.57,0.314,-1.807,0
-0.629,0.232,-1.442,0
-0.682,0.156,-0.738,0
-0.795,0.058,-0.322,0
-0.624,0.148,0.276,0
-0.501,0.245,0.721,0
-0.478,0.256,1.108,0
-0.37,0.22,1.033,0
-0.41,0.124,1.022,0
-0.394,0.181,0.993,0
-0.391,0.165,0.999,0
-0.421,0.454,0.615,0
-0.157,0.629,0.546,0
0.103,0.64,0.583,0
0.188,0.578,1.092,0
0.183,0.555,1.101,0
0.165,0.847,1.9,0
-0.188,1.331,1.635,0
-0.151,1.424,0.398,0
0.186,1.284,-0.164,0
0.721,1.419,-0.448,1
1.065,1.437,0.01,1
1.41,0.814,1.826,1
1.242,0.331,3.354,1
0.497,-0.277,5.162,1
0.045,-0.601,5.486,1
-0.417,-1.02,4.826,1
-0.402,-0.981,3.898,1
-0.149,-0.553,2.079,1
-0.008,-0.301,1.071,1
0.234,-0.118,-0.254,1
0.265,-0.121,-0.684,1
0.243,-0.295,-0.855,1
0.269,-0.402,-0.795,1
0.371,-0.532,-0.496,1
0.596,-0.725,-0.153,1
0.737,-0.913,0.134,1
0.73,-1.012,0.169,1
0.683,-1.108,0.165,1
0.618,-1.135,0.108,1
0.586,-1.025,0.037,1
0.516,-0.946,-0.052,0
0.454,-0.794,-0.586,0
0.413,-0.659,-1.164,0
0.357,-0.422,-2.065,0
0.33,-0.293,-2.495,0
0.359,-0.08,-2.951,0
0.42,0.096,-3.029,0
0.431,0.083,-3.025,0
0.61,0.217,-2.954,0
0.415,0.258,-2.298,0
0.23,0.152,-2.081,0
-0.035,-0.064,-2.045,0
-0.16,-0.039,-1.924,0
-0.158,-0.039,-1.924,0
-0.336,-0.237,-1.619,0
-0.346,-0.076,-1.22,0
-0.161,0.093,-1.013,0
0.284,0.335,-0.946,0
0.33,0.43,-0.773,0
0.235,0.515,-0.259,0
0.246,0.542,0.103,0
0.106,0.573,0.547,0
-0.099,0.572,0.705,0
-0.351,0.387,0.429,0
-0.451,0.359,0.142,0
-0.341,0.507,0.264,0
0.004,0.61,0.55,0
0.045,0.676,1.2,0
0.254,0.755,1.56,0
0.837,0.801,2.06,0
1.072,0.806,2.444,0
0.929,1.031,2.068,0
0.31,1.272,1.338,0
-0.275,1.604,-0.39,1
-0.101,1.662,-1.561,1
0.313,1.92,-2.921,1
0.857,2.027,-2.879,1
1.507,1.82,-1.011,1
1.707,1.144,1.038,1
2.222,0.153,4.711,1
2.128,-0.368,6.727,1
1.507,-1.207,8.521,1
0.744,-1.559,7.928,1
-0.138,-1.681,4.46,1
-0.151,-1.336,1.875,1
-0.313,-0.961,-1.675,1
-0.063,-0.703,-3.151,1
0.071,-0.334,-3.762,1
0.013,-0.295,-3.264,1
-0.144,-0.427,-1.483,1
-0.068,-0.637,-0.654,1
0.034,-0.952,-0.054,1
-0.197,-1.23,0.092,1
-0.263,-1.502,0.433,1
-0.292,-1.517,0.63,0
-0.098,-1.385,0.643,0
0.21,-1.153,0.25,0
0.204,-1.133,0.243,0
0.355,-0.696,-1.031,0
0.128,-0.583,-1.646,0
-0.009,-0.543,-1.974,0
-0.16,-0.422,-2.435,0
-0.181,-0.343,-2.638,0
-0.177,-0.147,-2.701,0
-0.057,-0.023,-2.638,0
0.139,0.252,-2.352,0
0.224,0.438,-2.02,0
0.252,0.559,-1.69,0
0.184,0.583,-1.59,0
-0.056,0.534,-1.178,0
-0.167,0.41,-0.707,0
-0.181,0.415,-0.708,0
-0.392,0.334,0.388,0
-0.374,0.313,0.21,0
-0.411,0.365,0.296,0
-0.265,0.362,0.443,0
-0.252,0.374,0.613,0
-0.25,0.366,0.616,0
-0.386,0.248,1.272,0
-0.601,0.045,1.331,0
-0.597,0.002,1.142,0
-0.437,0.084,0.829,0
-0.265,0.088,0.816,0
-0.258,0.055,0.827,0
0.087,0.235,1.117,0
0.325,0.459,1.471,0
0.289,0.793,1.359,0
0.019,1.248,0.579,0
0.125,1.418,-0.137,0
0.503,1.469,-0.792,1
0.711,1.489,-0.752,1
1.041,1.268,0.216,1
1.067,1.143,1.349,1
0.539,0.813,2.659,1
0.385,0.576,2.84,1
0.375,0.23,2.301,1
0.372,0.109,2.073,1
0.314,-0.005,2.17,1
0.252,-0.027,2.286,1
0.123,-0.199,2.145,1
0.023,-0.317,1.917,1
-0.008,-0.499,1.549,1
0.034,-0.608,1.302,1
0.04,-0.877,0.477,1
0.114,-0.909,-0.109,1
0.333,-0.971,-0.484,1
0.558,-0.99,-0.42,1
0.83,-0.873,-0.185,1
0.908,-0.893,-0.013,1
0.894,-0.917,-0.113,1
0.826,-0.897,-0.807,0
0.797,-0.685,-2.125,0
0.714,-0.607,-2.739,0
0.556,-0.484,-3.558,0
0.407,-0.483,-3.989,0
0.096,-0.312,-3.738,0
0.091,-0.234,-3.476,0
0.069,-0.076,-3.264,0
-0.031,0.011,-2.81,0
0.017,0.139,-1.927,0
0.011,0.195,-1.585,0
-0.137,0.274,-1.68,0
-0.252,0.312,-1.736,0
-0.331,0.195,-1.812,0
-0.463,0.149,-1.646,0
-0.433,0.304,-0.849,0
-0.306,0.33,-0.371,0
-0.124,0.363,-0.028,0
-0.104,0.417,0.182,0
-0.052,0.384,0.241,0
0.141,0.47,0.395,0
0.3,0.512,0.915,0
0.182,0.481,1.019,0
-0.059,0.422,1.184,0
-0.202,0.366,1.054,0
-0.315,0.382,0.814,0
-0.274,0.48,0.83,0
-0.077,0.635,1.108,0
0.025,0.726,1.528,0
0.589,1.044,2.272,0
0.949,1.188,2.617,0
0.9,1.4,2.886,1
0.45,1.597,2.687,1
-0.058,1.707,1.053,1
-0.337,1.68,-0.162,1
-0.584,1.712,-1.636,1
-0.343,1.597,-2.032,1
0.211,1.467,-1.17,1
0.475,1.2,0.037,1
0.552,0.548,2.516,1
0.536,0.028,4.09,1
0.485,-0.577,6.162,1
0.049,-0.871,6.503,1
-0.71,-1.281,4.94,1
-0.917,-1.073,2.854,1
-0.902,-0.752,0.185,1
-1.03,-0.561,-1.338,1
-0.646,-0.245,-2.368,1
-0.461,-0.079,-2.37,1
0.037,0.145,-1.693,1
0.312,0.125,-1.132,1
0.404,-0.206,-0.193,1
0.326,-0.562,0.364,0
0.367,-0.899,0.757,0
0.251,-1.054,0.678,0
0.052,-1.182,-0.04,0
-0.018,-1.169,-0.548,0
0.03,-1.017,-1.465,0
0.029,-0.897,-1.932,0
0.047,-0.902,-1.931,0
-0.026,-0.616,-2.506,0
-0.096,-0.438,-2.769,0
-0.106,-0.261,-2.831,0
-0.167,-0.194,-2.81,0
-0.218,-0.107,-2.915,0
-0.258,0.04,-2.778,0
-0.241,0.113,-2.634,0
-0.092,0.281,-2.591,0
-0.082,0.388,-2.09,0
-0.053,0.36,-1.126,0
-0.068,0.36,-0.902,0
-0.294,0.34,-0.877,0
-0.627,0.145,-0.535,0
-0.76,-0.101,-0.054,0
-0.744,-0.134,-0.013,0
-0.809,-0.141,0.23,0
-0.699,-0.081,0.472,0
-0.262,0.152,0.759,0
-0.108,0.315,0.894,0
-0.114,0.311,0.896,0
0.137,0.361,0.931,0
0.206,0.276,1.102,0
0.3,0.25,1.622,0
0.431,0.335,2.807,0
0.563,0.384,3.183,0
0.528,0.666,3.123,0
0.222,0.981,2.346,0
-0.007,1.445,0.446,0
0.324,1.67,-0.689,0
0.809,1.796,-1.948,1
1.063,1.843,-1.944,1
1.249,1.315,0.35,1
0.726,0.792,2.071,1
-0.196,0.192,3.994,1
-0.525,-0.123,4.369,1
-0.825,-0.376,3.507,1
-0.783,-0.363,2.832,1
-0.528,-0.323,2.316,1
-0.445,-0.342,2.072,1
-0.41,-0.321,2.062,1
-0.779,-0.645,1.054,1
-1.039,-0.941,0.251,1
-1.067,-1.042,-0.144,1
-0.848,-1.142,-0.287,1
-0.595,-1.151,-0.226,1
-0.105,-1.081,-0.399,1
0.21,-1.05,-0.428,1
0.37,-1.052,-0.265,1
0.488,-1.004,-0.276,1
0.567,-0.906,-0.544,1
0.619,-0.811,-0.933,0
0.817,-0.597,-1.927,0
0.826,-0.448,-2.329,0
0.939,-0.193,-2.695,0
0.964,-0.085,-2.834,0
0.971,-0.085,-2.834,0
0.772,0.216,-2.844,0
0.646,0.247,-2.554,0
0.606,0.294,-2.496,0
0.714,0.426,-2.061,0
0.724,0.446,-1.71,0
0.695,0.424,-1.41,0
0.594,0.418,-1.221,0
0.334,0.332,-1.032,0
0.168,0.299,-1.042,0
-0.085,0.182,-1.149,0
-0.193,0.179,-1.096,0
-0.011,0.207,-0.661,0
0.114,0.273,-0.387,0
0.18,0.373,0.12,0
0.267,0.391,0.424,0
0.063,0.396,0.642,0
-0.06,0.401,0.794,0
-0.153,0.346,1.128,0
-0.139,0.356,1.382,0
-0.073,0.385,1.707,0
-0.039,0.412,1.818,0
-0.009,0.454,1.892,0
0.107,0.516,1.922,0
0.402,0.821,2.084,0
0.196,1.205,2.106,0
-0.087,1.712,1.077,1
0.113,1.977,-0.14,1
0.376,2.348,-1.641,1
0.738,2.419,-2.039,1
1.429,2.136,-1.04,1
1.355,1.543,0.679,1
1.435,0.411,3.769,1
1.242,-0.107,5.122,1
0.438,-0.994,6.511,1
-0.035,-1.426,6.306,1
-0.491,-1.448,3.53,1
-0.557,-1.204,1.53,1
-0.543,-0.805,-1.445,1
-0.665,-0.667,-2.589,1
-0.68,-0.616,-2.959,1
-0.739,-0.567,-2.535,1
-0.779,-0.61,-1.089,1
-0.573,-0.753,-0.478,1
-0.404,-0.867,0.058,1
-0.206,-0.849,0.34,1
0.035,-0.919,0.577,1
0.05,-0.962,0.627,0
0.078,-0.963,0.367,0
0.13,-0.911,-0.077,0
0.148,-0.861,-0.84,0
0.17,-0.847,-1.515,0
-0.069,-0.78,-1.767,0
-0.188,-0.731,-1.673,0
-0.228,-0.615,-1.745,0
-0.284,-0.496,-1.97,0
-0.174,-0.236,-2.283,0
-0.009,-0.048,-2.596,0
0.031,0.097,-2.769,0
0.066,0.222,-2.8,0
0.144,0.355,-2.655,0
0.057,0.371,-2.116,0
0.052,0.375,-2.118,0
-0.236,0.366,-0.453,0
-0.281,0.375,0.184,0
-0.171,0.433,0.085,0
-0.405,0.289,-0.059,0
-0.396,0.191,-0.093,0
-0.22,0.057,-0.114,0
-0.179,0.018,0.241,0
-0.181,0.012,0.243,0
0.134,0.067,1.65,0
-0.064,0.05,2.194,0
-0.005,-0.024,2.434,0
0.063,0.051,2.725,0
0.26,0.123,2.831,0
0.5,0.314,2.533,0
0.303,0.589,2.302,0
0.296,0.534,2.324,0
-0.055,1.34,0.417,0
0.826,1.944,-1.27,0
1.246,2.147,-1.934,0
1.656,1.804,-0.779,1
1.521,1.12,1.232,1
0.61,0.118,3.729,1
0.052,-0.455,4.9,1
-0.541,-0.832,5.163,1
-0.679,-0.993,4.855,1
-0.69,-1.004,4.337,1
-0.573,-0.87,3.762,1
-0.322,-0.588,2.278,1
-0.144,-0.467,1.092,1
0.106,-0.387,-0.407,1
0.26,-0.459,-1.417,1
0.478,-0.583,-2.464,1
0.533,-0.692,-2.289,1
0.716,-0.786,-1.019,1
0.833,-0.723,-0.521,1
0.955,-0.582,-0.18,1
0.97,-0.56,-0.19,1
0.978,-0.487,-0.753,1
0.89,-0.405,-1.145,1
0.622,-0.462,-1.453,1
0.464,-0.442,-1.582,0
0.487,-0.3,-1.813,0
0.369,-0.296,-2.14,0
0.189,-0.361,-2.584,0
0.021,-0.359,-2.67,0
0.03,-0.319,-2.647,0
0.153,-0.176,-2.473,0
0.274,0.021,-2.1,0
0.404,0.129,-1.971,0
0.426,0.164,-1.852,0
0.329,0.233,-1.594,0
0.276,0.233,-1.216,0
0.272,0.242,-1.004,0
0.212,0.256,-0.626,0
0.13,0.215,-0.445,0
0.105,0.191,-0.625,0
0.103,0.147,-0.934,0
0.238,0.157,-1.28,0
0.337,0.231,-1.178,0
0.371,0.343,-0.487,0
0.318,0.399,0.017,0
0.151,0.502,0.418,0
0.161,0.497,0.419,0
-0.028,0.511,1.256,0
0.042,0.52,1.671,0
0.16,0.564,1.489,0
0.342,0.581,1.153,0
0.379,0.617,1.527,0
0.378,0.612,2.253,0
-0.325,1.135,2.79,0
-0.736,1.452,1.884,0
-0.719,1.421,1.898,1
-0.539,1.484,-0.162,1
-0.07,1.759,-0.971,1
0.107,1.775,-1.134,1
0.569,1.41,-0.789,1
0.843,0.725,0.362,1
0.843,-0.213,2.739,1
0.737,-0.768,4.331,1
0.073,-1.269,4.93,1
-0.495,-1.339,3.977,1
-0.747,-1.114,1.336,1
-0.702,-0.962,-0.608,1
-1.008,-0.832,-2.271,1
-1.029,-0.729,-2.423,1
-0.948,-0.573,-1.253,1
-0.76,-0.483,-0.169,1
-0.231,-0.546,0.492,1
-0.096,-0.686,0.763,1
0.118,-0.939,1.07,1
0.191,-0.932,0.868,1
0.19,-0.947,0.257,1
0.283,-0.932,-0.347,0
0.428,-0.856,-1.129,0
0.523,-0.772,-1.615,0
0.482,-0.639,-1.71,0
0.449,-0.562,-1.511,0
0.318,-0.425,-1.32,0
0.057,-0.418,-1.181,0
-0.295,-0.472,-0.889,0
-0.398,-0.441,-0.626,0
-0.482,-0.385,-0.862,0
-0.502,-0.321,-1.376,0
-0.35,-0.155,-1.994,0
-0.119,0.068,-2.137,0
0.086,0.26,-1.753,0
0.125,0.284,-1.379,0
-0.025,0.265,-0.577,0
-0.127,0.196,-0.11,0
-0.315,0.037,0.309,0
-0.496,-0.135,0.482,0
-0.511,-0.123,0.725,0
-0.426,-0.109,0.879,0
-0.414,-0.117,0.881,0
-0.338,0.004,0.545,0
-0.384,0.076,-0.005,0
-0.453,0.132,-0.271,0
-0.274,0.328,-0.466,0
0.058,0.362,-0.176,0
0.38,0.563,1.038,0
0.471,0.549,2.138,0
0.501,0.481,2.944,0
0.347,0.518,2.722,0
-0.336,0.787,1.337,0
-0.643,0.847,0.38,0
-0.19,0.843,-0.78,0
0.37,0.884,-1.233,0
1.073,1.143,-1.275,1
1.402,1.311,-0.385,1
1.301,1.353,1.426,1
1.018,1.056,2.659,1
1.082,0.472,3.48,1
0.973,0.073,3.823,1
0.595,-0.368,4.208,1
0.288,-0.536,4.287,1
-0.049,-0.654,3.386,1
-0.136,-0.607,2.057,1
0,-0.42,0.353,1
-0.007,-0.29,-0.701,1
-0.189,-0.247,-1.79,1
-0.093,-0.207,-2.418,1
0.202,-0.147,-2.698,1
0.291,-0.111,-2.313,1
0.461,-0.195,-1.327,1
0.571,-0.277,-0.813,1
0.59,-0.364,-0.551,1
0.583,-0.398,-0.507,1
0.597,-0.424,-0.708,1
0.605,-0.419,-0.882,0
0.605,-0.343,-1.106,0
0.615,-0.263,-1.321,0
0.644,-0.18,-1.88,0
0.509,-0.148,-1.841,0
0.319,-0.095,-1.508,0
0.212,-0.071,-1.438,0
-0.059,-0.054,-1.807,0
-0.093,-0.002,-2.309,0
-0.006,0.089,-2.823,0
0.035,0.176,-2.839,0
0.269,0.252,-2.613,0
0.332,0.28,-2.18,0
0.235,0.299,-1.384,0
0.251,0.356,-1.108,0
0.17,0.41,-0.515,0
0.22,0.399,-0.122,0
0.18,0.33,0.084,0
0.093,0.305,0.199,0
0.073,0.372,0.08,0
0.144,0.437,-0.195,0
0.139,0.604,-0.141,0
0.163,0.587,0.117,0
0.064,0.514,0.745,0
0.069,0.607,1.273,0
-0.093,0.61,2.54,0
-0.066,0.533,3.525,0
0.067,0.475,4.002,0
0.256,0.383,3.824,0
0.302,0.406,2.795,0
-0.182,0.701,2.016,0
-0.88,1.184,0.162,1
-0.559,1.294,-1.312,1
-0.032,1.586,-2.388,1
0.276,1.8,-2.154,1
0.474,1.643,-0.977,1
0.505,1.465,0.312,1
0.671,0.635,1.96,1
0.629,-0.007,2.888,1
0.648,-0.659,4.193,1
0.377,-0.798,4.654,1
0.356,-0.753,4.635,1
-0.115,-0.766,2.098,1
-0.063,-0.415,-0.169,1
-0.121,-0.327,-1.378,1
-0.432,-0.334,-1.995,1
-0.615,-0.295,-1.72,1
-0.526,-0.388,-0.651,1
-0.382,-0.511,-0.014,1
-0.23,-0.803,0.613,1
-0.202,-1.01,0.832,1
-0.055,-1.194,1.081,1
0.11,-1.17,0.832,0
0.1,-1.148,0.824,0
0.517,-0.886,-0.404,0
0.526,-0.875,-0.409,0
0.645,-0.575,-2.058,0
0.437,-0.492,-2.761,0
0.261,-0.479,-3.064,0
-0.048,-0.454,-3.066,0
-0.272,-0.504,-2.703,0
-0.444,-0.531,-2.33,0
-0.574,-0.519,-2.105,0
-0.566,-0.393,-1.493,0
-0.455,-0.251,-1.305,0
-0.286,0.036,-1.436,0
-0.085,0.198,-1.766,0
-0.031,0.359,-1.883,0
-0.103,0.396,-1.524,0
-0.12,0.384,-0.994,0
-0.177,0.419,-0.584,0
-0.223,0.368,-0.252,0
-0.196,0.276,-0.162,0
-0.361,0.107,0.468,0
-0.3,0.046,0.949,0
-0.307,0.046,0.949,0
-0.307,0.077,0.703,0
-0.09,0.197,0.437,0
0.24,0.369,0.269,0
0.286,0.386,0.503,0
0.334,0.35,0.867,0
0.682,0.499,1.845,0
0.906,0.668,2.355,0
0.92,0.931,2.447,0
0.456,1.134,1.927,0
-0.136,1.119,0.387,0
0.057,0.963,-0.324,0
0.482,1.074,-0.532,1
0.816,1.158,-0.357,1
0.968,1.077,0.658,1
0.887,1.012,1.689,1
0.796,0.689,2.366,1
0.868,0.388,2.553,1
0.868,0.043,2.945,1
0.762,-0.116,3.285,1
0.317,-0.327,3.393,1
-0.047,-0.473,3.264,1
-0.253,-0.606,2.807,1
-0.284,-0.637,2.162,1
-0.255,-0.645,1.027,1
-0.237,-0.623,0.34,1
-0.107,-0.568,-0.285,1
0.043,-0.577,-0.56,1
0.316,-0.539,-0.835,1
0.566,-0.564,-0.922,1
0.838,-0.478,-0.882,1
0.983,-0.486,-0.641,1
0.988,-0.541,-0.342,1
0.881,-0.558,-0.383,0
0.718,-0.558,-0.726,0
0.608,-0.53,-1.099,0
0.331,-0.552,-1.898,0
0.168,-0.464,-2.34,0
0.104,-0.304,-2.697,0
0.08,-0.197,-2.819,0
0.036,-0.017,-2.833,0
-0.046,0.07,-2.885,0
-0.201,0.128,-2.787,0
-0.245,0.192,-2.656,0
-0.261,0.29,-2.438,0
-0.29,0.289,-2.297,0
-0.309,0.335,-1.965,0
-0.309,0.304,-1.569,0
-0.385,0.274,-0.776,0
-0.267,0.314,-0.334,0
-0.013,0.346,-0.173,0
0.077,0.412,0.088,0
0.295,0.457,0.599,0
0.449,0.56,0.814,0
0.382,0.626,0.675,0
0.384,0.689,0.318,0
0.262,0.749,-0.101,0
0.108,0.694,-0.151,0
-0.112,0.554,0.35,0
-0.258,0.508,1.109,0
-0.215,0.569,1.839,0
-0.216,0.572,2.501,0
0.089,0.558,3.195,0
-0.216,0.718,2.949,0
-1.184,1.138,1.493,0
-1.212,1.333,-0.077,0
-0.813,1.716,-1.923,1
-0.436,1.89,-2.513,1
-0.02,2.061,-2.113,1
0.368,1.699,-1.12,1
1.064,0.712,1.407,1
1.365,-0.209,3.929,1
0.915,-1.258,7.259,1
0.173,-1.781,8.176,1
-0.764,-2.06,6.482,1
-0.896,-1.846,3.705,1
-0.554,-1.121,-0.146,1
-0.597,-0.829,-2.416,1
-0.35,-0.346,-3.871,1
-0.215,-0.019,-3.947,1
-0.57,0.106,-2.551,1
-0.621,0.134,-2.56,1
-0.332,-0.327,0,1
-0.217,-0.473,0.681,1
0.07,-0.593,1.381,1
0.227,-0.59,1.498,1
0.318,-0.612,0.956,1
0.337,-0.618,0.309,0
0.318,-0.601,-0.877,0
0.213,-0.598,-1.669,0
0.151,-0.548,-2.659,0
0.004,-0.512,-2.676,0
-0.305,-0.679,-2.204,0
-0.564,-0.71,-1.7,0
-0.565,-0.703,-1.703,0
-0.696,-0.451,-1.262,0
-0.594,-0.145,-1.585,0
-0.463,-0.01,-1.925,0
-0.23,0.215,-2.25,0
-0.133,0.311,-2.193,0
-0.21,0.298,-1.78,0
-0.269,0.211,-1.33,0
-0.461,0.034,-0.737,0
-0.537,-0.016,-0.278,0
-0.519,-0.061,0.175,0
-0.554,-0.011,0.625,0
-0.489,0.068,1.019,0
-0.387,0.107,1.086,0
-0.232,0.175,0.577,0
-0.218,0.18,0.232,0
-0.261,0.101,0.1,0
-0.275,0.102,0.25,0
-0.296,0.149,0.958,0
-0.21,0.166,1.681,0
-0.115,0.232,2.351,0
-0.129,0.286,2.407,0
-0.255,0.488,1.821,0
-0.403,0.755,1.199,0
-0.562,1.349,0.105,0
0.033,1.439,-0.58,1
0.877,1.596,-1.448,1
0.877,1.573,-1.438,1
1.097,0.946,0.755,1
0.632,0.114,2.534,1
-0.593,-0.625,4.323,1
-0.986,-0.76,4.514,1
-1.016,-0.848,3.882,1
-0.939,-0.795,3.857,1
-0.119,-0.064,2.2,1
-0.026,0.164,1.544,1
-0.262,0.019,0.835,1
-0.356,-0.15,0.319,1
-0.267,-0.27,-0.237,1
-0.304,-0.54,-0.561,1
-0.358,-0.869,-0.712,1
-0.194,-0.987,-0.551,1
0.105,-1.037,-0.284,1
0.487,-0.908,-0.229,1
0.987,-0.686,-0.425,1
1.282,-0.491,-0.559,1
1.288,-0.482,-0.562,0
1.375,-0.296,-0.791,0
1.06,-0.295,-0.934,0
0.802,-0.273,-1.167,0
0.686,-0.083,-1.747,0
0.689,0.084,-2.216,0
0.498,0.209,-2.387,0
0.422,0.213,-2.539,0
0.334,0.233,-3.185,0
0.272,0.288,-3.543,0
0.195,0.391,-2.769,0
0.207,0.411,-2.135,0
0.18,0.468,-1.723,0
0.154,0.506,-1.643,0
-0.02,0.524,-1.314,0
-0.088,0.443,-1.151,0
-0.211,0.433,-1.121,0
-0.145,0.369,-1.3,0
0.008,0.496,-1.057,0
0.208,0.492,-0.732,0
0.337,0.549,-0.66,0
0.271,0.451,-0.935,0
0.061,0.531,-0.736,0
-0.041,0.619,-0.241,0
-0.023,0.729,0.107,0
-0.038,0.802,0.233,0
-0.164,0.846,0.603,0
-0.301,0.658,0.939,0
-0.515,0.665,2.132,0
-0.216,0.653,3.27,0
0.304,0.814,3.936,0
0.314,1.007,3.551,0
-0.289,1.487,2.09,0
-0.593,1.731,0.538,0
-0.809,1.907,-1.187,1
-0.593,1.922,-1.516,1
-0.193,1.765,-0.713,1
-0.046,1.483,1.134,1
0.287,0.659,3.756,1
0.588,0.07,5.549,1
0.978,-0.669,7.098,1
1.064,-1.007,6.943,1
0.749,-1.331,4.608,1
0.39,-1.283,2.217,1
0.029,-1.081,-0.289,1
-0.468,-1.093,-1.708,1
-1.191,-1.216,-2.734,1
-1.439,-1.194,-2.847,1
-1.562,-1.029,-1.969,1
-1.275,-1.009,-1.214,1
-0.555,-0.873,-0.274,1
-0.3,-0.896,0.207,1
-0.026,-1.041,0.686,1
0.051,-1.124,0.801,1
0.051,-1.178,0.389,1
0.051,-1.194,-0.034,0
0.079,-1.213,-0.967,0
0.084,-1.113,-1.787,0
0.075,-1.047,-2.768,0
-0.001,-0.962,-3.097,0
-0.079,-0.815,-3.289,0
-0.097,-0.665,-3.065,0
-0.14,-0.473,-2.374,0
-0.031,-0.283,-2.181,0
0.038,0.111,-2.103,0
0.084,0.201,-2.134,0
0.093,0.403,-2.104,0
0.103,0.427,-2.09,0
0.057,0.481,-1.842,0
-0.07,0.441,-1.425,0
-0.233,0.306,-0.99,0
-0.438,0.218,-0.568,0
-0.652,0.109,-0.034,0
-0.766,0.054,0.325,0
-0.922,0.047,0.635,0
-0.936,0.103,0.644,0
-0.726,0.268,0.696,0
-0.502,0.457,0.886,0
-0.325,0.602,1.063,0
-0.192,0.676,1.144,0
0.166,0.746,1.362,0
0.353,0.718,1.476,0
0.436,0.667,1.852,0
0.44,0.596,2.043,0
0.034,0.708,2.172,0
-0.466,1.015,1.995,0
-0.642,1.423,0.584,0
-0.313,1.758,-0.566,0
-0.294,1.736,-0.558,1
0.712,1.863,-0.619,1
0.773,1.391,1.302,1
0.47,0.878,2.695,1
0.194,0.267,4.075,1
-0.004,-0.087,4.568,1
-0.161,-0.669,5.294,1
-0.219,-0.896,5.562,1
-0.215,-0.93,4.939,1
-0.095,-0.889,3.614,1
0.083,-0.837,1.424,1
0.241,-0.701,0.027,1
0.252,-0.629,-0.785,1
0.246,-0.663,-0.705,1
0.315,-0.67,-0.19,1
0.375,-0.73,0.121,1
0.442,-0.849,0.521,1
0.506,-0.925,0.565,1
0.524,-0.987,0.259,1
0.544,-0.99,-0.214,1
0.561,-1.002,-0.21,1
0.677,-0.818,-1.69,0
0.763,-0.649,-2.571,0
0.744,-0.487,-2.995,0
0.751,-0.521,-2.983,0
0.64,-0.124,-3.766,0
0.531,-0.053,-3.64,0
0.324,-0.065,-3.295,0
0.048,-0.042,-2.699,0
-0.13,-0.008,-2.154,0
0.009,0.081,-1.812,0
0.1,0.209,-1.838,0
0.083,0.314,-1.889,0
0.053,0.284,-1.998,0
-0.14,0.239,-2.081,0
-0.212,0.122,-2.008,0
-0.182,0.088,-1.736,0
-0.146,0.104,-1.343,0
-0.016,0.085,-0.935,0
0.024,0.044,-0.634,0
-0.117,-0.125,0.002,0
-0.174,-0.169,0.474,0
-0.166,-0.169,0.473,0
-0.37,-0.223,0.76,0
-0.22,-0.004,0.566,0
-0.025,0.035,0.53,0
-0.142,0.064,0.687,0
-0.294,0.172,1.288,0
-0.148,0.253,2.197,0
0.039,0.401,2.335,0
0.203,0.516,2.31,0
0.024,0.648,2.004,0
0.038,0.616,2.017,0
-0.903,1.276,0.046,0
-0.509,1.564,-1.337,1
0.093,1.791,-2.002,1
0.835,1.697,-1.652,1
0.911,1.347,0.117,1
1.004,0.525,2.918,1
0.853,-0.142,4.903,1
0.755,-0.662,7.026,1
0.707,-0.856,7.426,1
0.508,-0.851,5.944,1
0.425,-0.54,3.534,1
0.212,-0.188,0.636,1
0.13,0.069,-1.051,1
0.231,0.264,-2.552,1
0.16,0.354,-2.73,1
0.172,0.274,-1.829,1
0.108,0.027,-0.783,1
0.03,-0.374,0.222,1
-0.037,-0.679,0.616,1
-0.083,-1.031,0.734,1
-0.18,-1.21,0.577,1
-0.184,-1.345,0.068,1
-0.11,-1.289,-0.411,0
0.009,-1.154,-1.386,0
0.09,-1.014,-2.199,0
0.11,-0.925,-3.13,0
-0.01,-0.941,-3.29,0
-0.181,-0.956,-3.093,0
-0.321,-0.878,-2.646,0
-0.437,-0.806,-1.789,0
-0.401,-0.654,-1.316,0
-0.228,-0.329,-1.093,0
-0.111,-0.165,-1.186,0
0.032,0.138,-1.446,0
-0.081,0.207,-1.521,0
-0.251,0.201,-1.662,0
-0.216,0.251,-1.629,0
-0.192,0.317,-1.364,0
-0.174,0.334,-1.098,0
-0.083,0.322,-0.539,0
-0.134,0.309,-0.12,0
-0.115,0.235,0.373,0
-0.089,0.163,0.914,0
-0.195,0.168,1.36,0
-0.414,0.028,1.374,0
-0.659,-0.101,1.18,0
-0.723,-0.004,1.005,0
-0.474,0.28,0.866,0
-0.119,0.452,0.674,0
0.249,0.63,0.762,0
0.394,0.723,1.057,0
0.188,0.899,1.306,0
-0.23,1.162,0.91,0
-0.268,1.365,-0.265,0
0.259,1.473,-1.318,0
0.761,1.696,-2.063,1
1.196,1.612,-1.221,1
1.194,0.815,1.851,1
0.829,0.497,3.721,1
0.385,0.226,5.522,1
0.123,0.064,6.039,1
-0.004,-0.077,5.288,1
-0.176,-0.175,4.355,1
-0.264,-0.198,2.961,1
-0.194,-0.11,1.892,1
-0.059,-0.072,0.498,1
-0.035,-0.123,-0.639,1
-0.063,-0.18,-1.738,1
-0.037,-0.256,-1.993,1
0.208,-0.302,-1.732,1
0.378,-0.288,-1.333,1
0.586,-0.34,-0.377,1
0.794,-0.355,0.265,1
0.714,-0.517,0.645,1
0.575,-0.613,0.553,1
0.572,-0.608,0.552,1
0.204,-0.716,-0.292,0
-0.051,-0.797,-0.903,0
-0.117,-0.838,-1.269,0
-0.05,-0.762,-2.046,0
0.041,-0.631,-2.342,0
0.322,-0.366,-2.175,0
0.528,-0.119,-1.758,0
0.541,0.08,-1.537,0
0.411,0.074,-1.731,0
0.073,-0.025,-2.192,0
-0.201,-0.141,-2.27,0
-0.415,-0.258,-2.083,0
-0.538,-0.267,-1.599,0
-0.54,-0.279,-1.595,0
-0.12,0.013,-0.828,0
0.292,0.298,-0.803,0
0.561,0.414,-0.863,0
0.64,0.457,-0.657,0
0.609,0.436,-0.14,0
0.55,0.3,0.626,0
0.027,0.243,1.213,0
-0.631,-0.117,1.802,0
-0.802,-0.297,1.458,0
-0.714,-0.165,0.564,0
-0.342,0.108,0.157,0
0.007,0.328,0.316,0
-0.033,0.335,0.721,0
0.234,0.495,1.24,0
0.283,0.575,1.422,0
-0.017,0.751,1.336,0
-0.589,1.162,0.549,0
-0.948,1.628,-1.137,0
-0.75,1.616,-1.641,0
-0.735,1.587,-1.628,1
0.435,1.829,-0.954,1
1.241,1.848,1.506,1
1.731,1.564,2.794,1
2.182,0.692,4.273,1
2.278,0.136,5.014,1
1.477,-0.584,5.651,1
