accelX,accelY,accelZ,label
-0.242,1.191,0.139,1
-0.328,1.687,0.249,0
-0.508,1.862,0.508,0
-0.504,1.438,0.532,0
-0.599,1.001,0.884,0
-0.718,0.547,1.985,0
-0.668,0.303,2.82,0
-0.648,0.017,3.623,0
-0.747,-0.094,4.105,0
-0.985,-0.165,3.846,0
-0.944,-0.087,2.895,0
-0.587,0.228,1.362,0
-0.307,0.572,0.33,0
-0.188,0.938,-0.734,0
-0.214,0.933,-1.211,0
-0.403,0.67,-1.325,0
-0.54,0.48,-1.152,0
-0.586,0.202,-0.743,0
-0.583,0.221,-0.749,0
-0.706,-0.238,-0.154,0
-0.535,-0.391,-0.093,0
-0.154,-0.329,-0.531,0
0.024,-0.324,-0.983,0
0.011,-0.345,-1.284,0
-0.34,-0.495,-1.346,0
-0.332,-0.49,-1.347,0
-0.809,-0.668,-1.327,0
-0.974,-0.707,-1.207,0
-0.873,-0.629,-1.198,0
-0.685,-0.439,-1.313,0
-0.599,-0.243,-1.154,0
-0.205,0.146,-0.889,0
0.056,0.421,-1.07,0
0.069,0.42,-1.07,0
-0.063,0.547,-2.14,0
-0.382,0.422,-2.391,0
-0.757,0.264,-2.261,0
-1.027,0.18,-1.88,0
-1.07,0.156,-1.472,0
-0.986,0.251,-1.145,0
-0.795,0.44,-1.235,0
-0.576,0.637,-1.429,0
-0.266,0.72,-1.657,0
0.311,0.998,-1.539,0
0.43,1.118,-0.994,0
0.325,1.052,-0.175,0
0.091,0.91,0.71,0
-0.506,0.583,1.59,0
-0.778,0.464,1.525,0
-1.049,0.361,1.202,0
-1.247,0.223,1.097,0
-1.396,0.164,1.302,0
-1.457,0.194,1.667,0
-1.079,0.352,1.923,0
-0.774,0.579,1.799,0
-0.76,0.551,1.809,0
-0.683,1.84,0.61,0
-0.682,1.798,0.625,1
-0.427,1.942,-1.046,0
-0.741,1.868,-1.002,0
-0.954,1.67,-0.293,0
-0.71,1.29,0.959,0
-0.222,0.805,1.942,0
0.102,0.08,3.491,0
-0.1,-0.487,4.924,0
-0.496,-1.181,6.366,0
-0.864,-1.458,6.457,0
-1.415,-1.314,5.21,0
-1.363,-0.899,2.932,0
-0.791,-0.297,-0.415,0
-0.362,0.138,-2.846,0
-0.177,0.556,-5.027,0
-0.349,0.633,-5.453,0
-0.889,0.569,-4.543,0
-1.131,0.387,-3,0
-1.28,-0.043,-1.039,0
-1.288,-0.372,0.272,0
-1.219,-0.634,1.196,0
-1.133,-0.669,1.133,0
-1.02,-0.608,0.444,0
-0.738,-0.411,-0.288,0
-0.332,0.007,-1.205,0
-0.213,0.186,-1.695,0
-0.137,0.361,-2.31,0
-0.142,0.439,-2.463,0
-0.467,0.37,-2.33,0
-0.834,0.199,-2.18,0
-1.094,0.088,-1.881,0
-1.173,0.136,-1.653,0
-1.099,0.198,-1.753,0
-1.112,0.222,-1.904,0
-0.982,0.455,-1.696,0
-0.649,0.698,-1.366,0
-0.23,0.987,-1.083,0
-0.221,1.05,-1.115,0
-0.43,0.959,-1.34,0
-0.57,0.846,-1.331,0
-0.721,0.799,-0.808,0
-0.884,0.742,-0.24,0
-0.95,0.598,0.46,0
-1.116,0.432,0.818,0
-1.207,0.4,1.297,0
-0.98,0.621,1.76,0
-0.719,0.734,2.392,0
-0.711,0.728,2.393,0
-0.433,0.953,2.204,0
-0.175,0.938,2.065,0
0.024,0.799,2.044,0
-0.019,0.828,2.057,0
-0.695,1.144,1.676,0
-1.177,1.394,0.953,0
-1.083,1.198,-0.165,1
-0.629,1.06,-0.552,0
-0.038,1.17,-0.231,0
0.562,1.171,0.519,0
0.585,0.904,1.817,0
0.176,0.497,2.806,0
-0.128,-0.246,3.538,0
-0.189,-0.541,3.685,0
-0.261,-0.685,3.613,0
-0.33,-0.694,3.379,0
-0.341,-0.399,2.511,0
-0.238,-0.213,1.586,0
-0.126,-0.214,0.156,0
-0.187,-0.184,-0.905,0
-0.126,-0.195,-0.902,0
-0.451,-0.312,-2.349,0
-0.571,-0.568,-2.576,0
-0.477,-0.641,-2.368,0
-0.026,-0.567,-1.772,0
0.211,-0.512,-1.307,0
0.328,-0.484,-0.98,0
0.254,-0.506,-0.831,0
0.059,-0.383,-0.562,0
-0.204,-0.385,-0.457,0
-0.195,-0.37,-0.462,0
-0.749,-0.304,-0.919,0
-0.646,-0.044,-1.364,0
-0.582,0.12,-1.701,0
-0.553,0.29,-2.054,0
-0.6,0.362,-2.19,0
-0.479,0.488,-2.251,0
-0.241,0.664,-2.202,0
0.155,0.879,-1.755,0
0.19,0.897,-1.535,0
0.018,0.802,-1.413,0
-0.334,0.579,-1.41,0
-0.948,0.228,-1.378,0
-1.177,0.118,-1.417,0
-1.085,0.189,-1.432,0
-0.722,0.376,-1.355,0
-0.151,0.687,-1.177,0
0.021,0.741,-1.087,0
0.114,0.91,-0.72,0
0.311,1.077,0.084,0
0.302,1.076,0.084,0
-0.155,0.833,1.129,0
-0.706,0.589,0.973,0
-0.953,0.389,0.958,0
-0.947,0.363,0.967,0
-1.07,0.269,1.745,0
-1.044,0.337,2.119,0
-0.743,0.475,2.253,0
-0.362,0.894,2.235,0
-0.471,1.413,1.693,0
-0.738,1.694,0.368,1
-0.741,1.583,-0.655,0
-0.841,1.593,-1.721,0
-0.771,1.544,-1.911,0
-0.611,1.376,-1.255,0
-0.618,1.125,-0.293,0
-0.458,0.244,1.47,0
-0.403,-0.273,2.414,0
-0.632,-0.882,3.999,0
-0.875,-1.201,4.768,0
-1.352,-1.36,4.722,0
-1.461,-1.18,3.312,0
-1.192,-0.781,0.853,0
-0.904,-0.538,-1.121,0
-0.84,-0.302,-2.966,0
-0.836,-0.262,-3.176,0
-0.945,-0.21,-2.145,0
-0.899,-0.055,-1.066,0
-0.375,-0.045,0.409,0
-0.134,-0.072,0.846,0
-0.091,-0.212,0.763,0
-0.075,-0.251,0.257,0
-0.163,-0.233,-0.531,0
-0.239,-0.273,-1.048,0
-0.26,-0.187,-1.57,0
-0.363,-0.095,-1.922,0
-0.377,-0.116,-2.301,0
-0.364,-0.053,-2.345,0
-0.355,-0.041,-2.348,0
-0.128,0.21,-1.502,0
-0.106,0.309,-0.783,0
-0.115,0.433,-0.544,0
-0.433,0.514,-0.876,0
-0.738,0.476,-1.272,0
-1.011,0.444,-1.909,0
-1.011,0.445,-2.173,0
-1.016,0.436,-2.051,0
-0.93,0.45,-1.787,0
-0.789,0.581,-1.396,0
-0.575,0.691,-1.04,0
-0.281,0.867,-0.642,0
-0.114,1.055,-0.414,0
-0.119,1.095,-0.216,0
-0.351,0.97,-0.042,0
-0.736,0.808,0.128,0
-0.899,0.7,0.369,0
-1.084,0.645,1.034,0
-1.073,0.618,1.697,0
-1.198,0.598,2.181,0
-1.067,0.674,2.246,0
-0.51,0.737,2.383,0
-0.173,0.845,2.653,0
0.183,1.261,2.855,0
0.095,1.807,2.73,0
-0.075,2.008,1.736,0
-0.036,1.672,1.007,1
-0.007,1.645,1.014,0
0.081,1.387,0.589,0
0.21,0.993,1.464,0
0.04,0.713,2.391,0
-0.382,0.209,3.205,0
-0.391,-0.245,3.327,0
-0.349,-0.666,3.157,0
-0.319,-0.778,3.086,0
-0.225,-0.624,2.648,0
-0.088,-0.477,1.913,0
0.213,-0.192,0.731,0
0.345,-0.125,-0.293,0
0.361,-0.137,-1.586,0
0.328,-0.214,-1.919,0
0.205,-0.501,-1.83,0
0.104,-0.735,-1.579,0
0.038,-0.855,-0.847,0
0.045,-0.961,-0.426,0
0.088,-0.998,-0.523,0
0.181,-0.909,-0.865,0
0.201,-0.9,-0.867,0
0.476,-0.566,-1.825,0
0.474,-0.387,-2.4,0
0.405,-0.243,-2.511,0
0.294,-0.111,-2.285,0
0.25,-0.057,-2.252,0
0.142,0.046,-2.153,0
0.032,0.116,-1.904,0
0.013,0.215,-1.656,0
0.017,0.343,-1.657,0
0.215,0.542,-1.635,0
0.288,0.62,-1.799,0
0.313,0.688,-2.1,0
0.344,0.665,-2.149,0
0.247,0.602,-1.816,0
0.139,0.483,-1.407,0
-0.045,0.237,-0.91,0
-0.159,0.215,-0.591,0
-0.05,0.219,-0.111,0
0.098,0.295,0.146,0
0.301,0.485,0.426,0
0.413,0.601,0.422,0
0.292,0.688,0.1,0
0.094,0.673,-0.18,0
-0.161,0.653,-0.318,0
-0.084,0.757,-0.297,0
-0.209,0.799,0.299,0
-0.337,0.801,0.859,0
-0.354,0.784,0.864,0
-0.183,0.846,2.098,0
0.208,0.887,2.412,0
0.216,1.081,2.536,0
-0.493,1.367,2.124,1
-0.655,1.322,1.027,0
-0.442,1.125,-0.118,0
-0.243,1.093,-0.603,0
-0.017,1.029,-0.21,0
-0.042,0.765,1.101,0
-0.101,0.301,3.052,0
-0.072,-0.001,4.486,0
-0.121,-0.427,5.755,0
0.042,-0.386,5.957,0
0.455,0.038,4.391,0
0.321,0.353,2.022,0
-0.115,0.263,-1.029,0
-0.193,0.191,-2.513,0
-0.496,0.288,-3.746,0
-0.782,0.218,-4.013,0
-1.305,-0.04,-3.446,0
-1.355,-0.174,-2.564,0
-0.604,-0.29,-0.936,0
-0.219,-0.379,-0.108,0
0.054,-0.552,0.587,0
0.146,-0.701,0.807,0
0.138,-0.821,0.451,0
-0.018,-0.792,-0.132,0
-0.176,-0.763,-0.721,0
-0.231,-0.762,-1.337,0
-0.571,-0.719,-2.273,0
-0.665,-0.549,-2.759,0
-0.649,-0.555,-2.758,0
-0.446,0.025,-2.947,0
-0.144,0.407,-2.667,0
-0.033,0.717,-2.467,0
-0.059,0.962,-1.919,0
-0.244,0.922,-1.569,0
-0.631,0.813,-1.276,0
-0.915,0.689,-1.081,0
-1.214,0.458,-0.567,0
-1.168,0.437,-0.456,0
-1.121,0.525,-0.276,0
-1.069,0.562,-0.134,0
-0.981,0.602,-0.255,0
-0.854,0.676,-0.301,0
-0.675,0.696,0.092,0
-0.509,0.659,0.433,0
-0.271,0.84,1.126,0
-0.184,0.921,1.894,0
-0.123,0.865,2.481,0
-0.3,0.692,2.333,0
-0.529,0.453,1.631,0
-0.405,0.351,1.06,0
-0.059,0.358,0.947,0
0.078,0.283,1.155,0
0.075,0.538,1.773,0
-0.29,0.854,1.96,1
-0.558,0.924,1.077,0
-0.472,0.744,0.315,0
-0.452,0.723,0.321,0
0.165,0.858,-0.235,0
0.157,0.859,-0.235,0
0.471,0.164,1.631,0
-0.124,-0.164,2.993,0
-0.509,-0.369,3.216,0
-0.55,-0.415,2.673,0
-0.408,-0.346,2.065,0
-0.012,-0.033,0.945,0
0.373,0.262,0.145,0
0.437,0.28,-0.298,0
0.303,0.094,-0.239,0
0.131,-0.166,-0.148,0
0.039,-0.271,-0.155,0
-0.054,-0.545,-0.21,0
-0.048,-0.678,-0.229,0
0.049,-0.789,-0.376,0
0.202,-0.746,-0.467,0
0.337,-0.698,-0.659,0
0.378,-0.617,-0.727,0
0.303,-0.479,-0.748,0
0.059,-0.533,-0.843,0
-0.172,-0.549,-1.086,0
-0.26,-0.447,-1.468,0
-0.231,-0.299,-2.032,0
-0.099,-0.182,-2.329,0
0.052,0.076,-2.441,0
0.211,0.294,-2.414,0
0.396,0.542,-2.102,0
0.541,0.725,-1.888,0
0.605,0.836,-1.845,0
0.476,0.815,-1.889,0
0.247,0.719,-1.853,0
0.037,0.577,-1.792,0
0.02,0.563,-1.789,0
-0.105,0.492,-1.229,0
-0.047,0.542,-0.916,0
-0.01,0.548,-0.687,0
0.326,0.606,-0.597,0
0.637,0.793,-0.332,0
0.744,0.873,0.246,0
0.799,0.983,0.784,0
0.8,0.978,0.785,0
0.159,0.798,0.975,0
-0.421,0.56,0.079,0
-0.57,0.471,-0.336,0
-0.242,0.55,-0.165,0
0.08,0.634,0.541,0
0.353,0.642,1.747,0
0.365,0.489,2.271,0
0.332,0.156,2.668,0
0.239,0.197,2.967,0
-0.153,0.777,2.833,1
-0.423,0.953,1.573,0
-0.565,0.889,-0.405,0
-0.334,0.972,-1.424,0
0.106,1.083,-2.248,0
0.295,1.022,-2.055,0
0.148,0.618,-0.24,0
0.089,0.171,1.132,0
0.002,-0.69,3.01,0
-0.112,-0.875,3.828,0
-0.239,-0.778,4.035,0
-0.22,-0.675,3.114,0
-0.236,-0.441,1.009,0
-0.206,-0.198,-0.365,0
-0.323,-0.04,-1.543,0
-0.427,0.014,-1.627,0
-0.775,-0.111,-1.149,0
-0.819,-0.25,-0.615,0
-0.535,-0.512,0.43,0
-0.382,-0.576,0.926,0
-0.196,-0.688,1.058,0
-0.083,-0.614,0.731,0
0.297,-0.351,-0.256,0
0.465,-0.163,-1.035,0
0.53,0.078,-2.048,0
0.507,0.158,-2.416,0
0.527,0.241,-2.833,0
0.472,0.295,-2.897,0
0.256,0.274,-2.403,0
0.166,0.203,-1.979,0
0.049,0.208,-1.531,0
-0.101,0.249,-1.308,0
-0.02,0.363,-1.164,0
0.014,0.496,-1.255,0
-0.007,0.594,-1.683,0
-0.109,0.566,-1.866,0
-0.361,0.488,-1.873,0
-0.424,0.453,-1.783,0
-0.532,0.474,-1.371,0
-0.489,0.529,-1.027,0
-0.467,0.666,-0.534,0
-0.403,0.753,-0.412,0
-0.199,0.813,0.042,0
-0.169,0.82,0.344,0
-0.281,0.855,0.743,0
-0.352,0.798,1.184,0
-0.369,0.732,1.723,0
-0.343,0.666,1.771,0
-0.114,0.475,1.549,0
0.192,0.405,1.624,0
0.352,0.224,2.452,0
0.305,0.229,3.038,0
-0.027,0.64,4.323,0
-0.135,1.003,4.52,0
0.27,1.485,2.851,1
0.228,1.491,1.749,0
0.142,1.217,0.535,0
0.281,1.021,0.358,0
0.27,0.702,1.035,0
-0.083,0.243,2.108,0
-0.393,-0.285,2.996,0
-0.385,-0.417,3.165,0
-0.185,-0.704,3.194,0
-0.046,-0.707,3.152,0
0.044,-0.603,2.623,0
0.252,-0.486,1.724,0
0.359,-0.529,0.248,0
0.443,-0.582,-0.654,0
0.674,-0.51,-1.47,0
0.745,-0.51,-1.695,0
0.516,-0.692,-1.771,0
0.398,-0.896,-1.635,0
0.319,-1.008,-1.308,0
0.294,-1.013,-1.227,0
0.335,-0.939,-1.479,0
0.268,-0.884,-1.875,0
0.284,-0.69,-2.572,0
0.283,-0.575,-2.882,0
0.302,-0.314,-2.764,0
0.32,-0.162,-2.423,0
0.152,-0.002,-1.825,0
0.04,0.151,-1.364,0
0.007,0.294,-1.032,0
-0.02,0.4,-1.03,0
-0.163,0.439,-1.553,0
-0.217,0.484,-2.112,0
-0.171,0.579,-2.473,0
-0.108,0.579,-2.482,0
0.086,0.661,-2.382,0
0.209,0.706,-2.151,0
0.327,0.768,-1.311,0
0.308,0.756,-0.839,0
0.064,0.574,0.126,0
-0.008,0.567,0.6,0
-0.143,0.523,1.291,0
-0.33,0.399,1.428,0
-0.187,0.501,0.618,0
0.025,0.684,0.168,0
0.259,0.876,-0.321,0
0.31,0.969,-0.43,0
0.274,0.978,0.129,0
0.208,0.844,1.078,0
0.08,0.627,2.286,0
0.092,0.42,3.157,0
0.049,0.246,4.323,0
0.178,0.163,4.57,1
0.377,0.273,4.188,0
0.307,0.716,3.289,0
0.014,1.335,1.713,0
0.126,1.48,0.186,0
0.347,1.725,-1.923,0
0.405,1.778,-2.517,0
0.158,1.246,-1.69,0
-0.208,0.444,0.098,0
-0.314,-0.365,2.892,0
-0.023,-0.744,4.395,0
0.21,-0.917,5.569,0
0.263,-0.741,5.195,0
0.371,-0.521,3.326,0
0.33,-0.364,1.575,0
0.267,-0.074,-0.823,0
0.297,0.075,-2.075,0
0.145,0.152,-3.136,0
-0.06,0.161,-3.351,0
-0.519,-0.181,-3.055,0
-0.669,-0.5,-2.796,0
-0.654,-0.814,-2.154,0
-0.462,-0.881,-1.517,0
0.071,-0.868,-0.81,0
0.284,-0.769,-0.647,0
0.401,-0.654,-0.58,0
0.395,-0.608,-0.699,0
0.096,-0.575,-1.231,0
-0.092,-0.553,-1.493,0
-0.16,-0.533,-2.128,0
-0.208,-0.384,-2.372,0
-0.268,-0.218,-1.988,0
-0.302,-0.175,-1.576,0
-0.264,-0.078,-1.227,0
-0.266,0.104,-0.979,0
-0.226,0.277,-0.706,0
-0.273,0.278,-0.61,0
-0.462,0.321,-0.688,0
-0.52,0.333,-0.7,0
-0.489,0.263,-0.687,0
-0.459,0.284,-0.774,0
-0.436,0.215,-1.057,0
-0.439,0.196,-1.279,0
-0.488,0.114,-1.415,0
-0.46,0.074,-1.12,0
-0.39,0.022,-0.268,0
-0.376,0.077,0.27,0
-0.52,0.148,0.84,0
-0.458,0.189,0.837,0
-0.515,0.219,1.118,0
-0.494,0.174,1.317,0
-0.256,0.201,1.449,0
-0.122,0.329,1.72,0
-0.094,0.37,1.979,0
-0.213,0.561,2.017,0
-0.464,1.314,1.982,0
-0.35,1.509,1.645,0
0.474,1.706,0.432,1
0.917,1.812,-0.388,0
1.404,1.463,-0.193,0
1.286,1.064,0.954,0
0.45,0.296,3.142,0
-0.131,-0.174,4.351,0
-0.13,-0.289,4.837,0
0.067,-0.146,4.723,0
0.544,0.025,3.489,0
0.846,0.203,2.039,0
1.063,0.321,0.345,0
1.008,0.161,-0.614,0
0.915,-0.096,-1.466,0
0.759,-0.182,-1.614,0
0.65,-0.358,-1.249,0
0.637,-0.523,-0.951,0
0.435,-0.82,-0.51,0
0.425,-0.924,-0.383,0
0.562,-0.952,-0.267,0
0.564,-0.942,-0.213,0
0.569,-0.921,-0.218,0
0.547,-0.826,-0.181,0
0.484,-0.714,-1.016,0
0.496,-0.57,-1.578,0
0.505,-0.352,-2.059,0
0.517,-0.36,-2.055,0
0.485,-0.056,-2.149,0
0.417,0.07,-2.149,0
0.384,0.11,-2.216,0
0.416,0.226,-2.206,0
0.425,0.419,-1.993,0
0.509,0.474,-1.702,0
0.63,0.608,-1.272,0
0.624,0.608,-1.032,0
0.528,0.476,-0.728,0
0.543,0.447,-0.45,0
0.601,0.439,-0.222,0
0.606,0.407,-0.284,0
0.589,0.377,-0.404,0
0.589,0.415,-0.308,0
0.764,0.5,-0.21,0
0.875,0.649,-0.078,0
0.945,0.681,0.185,0
0.878,0.654,0.235,0
0.398,0.544,0.807,0
0.07,0.402,1.529,0
0.008,0.213,2.624,0
0.11,0.241,3.267,0
0.461,0.329,3.171,0
0.595,0.312,2.515,0
0.475,0.633,1.71,0
0.244,0.973,1.342,0
-0.267,1.357,0.407,0
-0.355,1.399,-0.255,0
-0.002,1.387,-1.047,1
0.393,1.26,-0.907,0
0.774,1.067,0.427,0
0.974,0.808,1.434,0
1.291,0.242,2.916,0
1.345,-0.246,3.514,0
0.837,-0.833,4.231,0
0.424,-1.083,4.289,0
-0.132,-1.151,3.135,0
-0.109,-1.023,1.616,0
0.28,-0.718,-0.513,0
0.332,-0.466,-1.783,0
0.208,-0.418,-2.576,0
0.079,-0.44,-2.856,0
-0.042,-0.543,-2.786,0
-0.037,-0.669,-2.465,0
0.019,-0.797,-1.671,0
0.032,-0.89,-1.242,0
0.027,-1.017,-0.781,0
0.099,-0.987,-0.892,0
0.155,-0.889,-1.364,0
0.097,-0.819,-1.585,0
0.005,-0.722,-1.936,0
-0.071,-0.619,-2.098,0
-0.246,-0.468,-2.168,0
-0.149,-0.306,-1.996,0
-0.007,-0.04,-1.814,0
0.011,0.135,-1.708,0
0.159,0.308,-1.637,0
0.08,0.411,-1.692,0
-0.039,0.495,-2.04,0
0.076,0.539,-2.24,0
-0.055,0.515,-1.928,0
-0.217,0.544,-1.537,0
-0.21,0.721,-0.574,0
-0.18,0.752,-0.237,0
-0.116,0.781,0.386,0
-0.131,0.879,0.587,0
-0.192,0.787,0.273,0
-0.159,0.78,0.179,0
0.036,0.92,0.725,0
0.153,0.995,1.237,0
0.022,0.908,1.483,0
-0.157,0.79,1.587,0
-0.43,0.495,1.783,0
-0.362,0.396,2.057,0
0.189,0.505,2.803,0
0.375,0.485,3.12,0
0.506,0.51,3.137,0
0.636,0.445,3.148,0
0.626,0.402,3.158,1
0.143,1.074,2.715,0
0.51,1.291,1.56,0
1.059,1.331,0.738,0
1.491,1.249,0.054,0
1.583,0.797,0.599,0
1.194,0.169,2.277,0
0.478,-0.208,3.652,0
0.187,-0.583,4.306,0
0.355,-0.43,3.391,0
0.628,-0.182,1.108,0
0.88,-0.051,-0.05,0
1.096,-0.082,-1.255,0
1.12,-0.172,-1.667,0
0.742,-0.486,-1.436,0
0.428,-0.84,-0.757,0
0.15,-1.12,0.05,0
-0.147,-1.369,0.283,0
-0.57,-1.813,0.356,0
-0.581,-1.939,0.167,0
-0.473,-1.882,-0.358,0
-0.204,-1.643,-0.747,0
0.3,-1.148,-1.205,0
0.52,-0.853,-1.368,0
0.528,-0.579,-1.635,0
0.472,-0.509,-1.814,0
0.429,-0.314,-2.086,0
0.394,-0.191,-2.207,0
0.501,-0.021,-2.148,0
0.664,0.104,-2.06,0
0.805,0.399,-1.458,0
1.01,0.535,-1.179,0
1.028,0.614,-0.983,0
0.869,0.667,-0.691,0
0.855,0.659,-0.69,0
0.821,0.795,-0.676,0
0.634,0.722,-0.738,0
0.623,0.629,-0.748,0
0.75,0.661,-0.608,0
0.788,0.66,-0.498,0
0.903,0.629,-0.372,0
0.92,0.575,-0.144,0
0.846,0.446,0.217,0
0.752,0.404,0.577,0
0.461,0.275,1.373,0
0.107,0.135,1.93,0
-0.314,-0.015,2.164,0
-0.3,-0.008,1.914,0
-0.055,0.19,1.376,0
0.099,0.238,1.222,0
0.313,0.216,1.25,0
0.336,0.237,1.716,0
0.466,0.229,2.343,0
0.411,0.262,2.52,0
-0.377,0.731,2.019,1
-0.693,1.07,0.852,0
-0.946,1.284,-1.333,0
-0.681,1.33,-2.247,0
-0.367,1.671,-2.655,0
-0.102,1.654,-1.943,0
0.42,0.907,0.284,0
0.675,0.178,1.757,0
0.911,-0.923,4.139,0
0.496,-1.388,6.018,0
-0.2,-1.804,7.749,0
-0.54,-1.853,7.402,0
-0.671,-1.595,4.113,0
-0.57,-1.282,1.575,0
-0.387,-0.879,-1.075,0
-0.315,-0.727,-2.327,0
-0.247,-0.658,-3.217,0
-0.051,-0.641,-3.486,0
0.069,-0.88,-2.612,0
0.196,-1,-1.695,0
0.333,-1.058,-0.777,0
0.242,-1.178,-0.717,0
0.02,-1.305,-1.298,0
0,-1.275,-1.792,0
-0.077,-1.105,-2.253,0
-0.052,-0.988,-2.512,0
0.008,-0.806,-2.819,0
0.106,-0.62,-2.959,0
0.236,-0.383,-2.829,0
0.341,-0.248,-2.648,0
0.555,0.059,-2.227,0
0.515,0.218,-1.827,0
0.384,0.265,-1.587,0
0.162,0.261,-1.517,0
-0.281,0.036,-1.322,0
-0.408,-0.024,-1.482,0
-0.488,0.04,-1.665,0
-0.455,0.054,-1.574,0
-0.116,0.237,-1.289,0
0.053,0.371,-0.934,0
0.151,0.395,-0.396,0
0.084,0.432,-0.041,0
0.068,0.452,-0.048,0
-0.493,0.201,0.925,0
-0.935,0.068,1.454,0
-0.935,0.18,1.98,0
-0.619,0.287,2.309,0
-0.625,0.283,1.995,0
-0.523,0.301,1.442,0
-0.285,0.33,1.521,0
0.113,0.398,2,0
0.184,0.431,2.468,0
0.157,0.675,2.713,0
-0.087,1.178,2.418,1
-0.102,1.133,2.431,0
0.19,1.508,0.323,0
0.715,1.463,-0.772,0
0.894,1.386,-0.752,0
0.576,0.951,0.873,0
-0.057,0.526,2.495,0
-0.675,-0.09,3.472,0
-0.587,-0.447,3.316,0
-0.15,-0.593,2.702,0
0.204,-0.608,2.445,0
0.37,-0.546,2.454,0
0.309,-0.587,2.444,0
0.176,-0.778,1.945,0
0.056,-0.829,1.276,0
-0.048,-0.85,0.405,0
0.138,-0.849,-0.128,0
0.466,-0.835,-0.424,0
0.584,-0.861,-0.283,0
0.599,-0.842,-0.288,0
0.422,-0.941,-0.168,0
-0.217,-1.061,-0.306,0
-0.452,-1.131,-0.533,0
-0.544,-0.949,-1.331,0
-0.343,-0.611,-2.092,0
0.197,-0.102,-2.841,0
0.582,0.27,-3.047,0
0.787,0.693,-2.862,0
0.887,0.782,-2.692,0
0.767,0.702,-2.352,0
0.49,0.626,-2.12,0
-0.024,0.457,-1.759,0
-0.233,0.368,-1.534,0
-0.222,0.425,-1.48,0
0.001,0.553,-1.664,0
0.371,0.757,-1.813,0
0.645,0.85,-1.711,0
0.951,0.98,-1.262,0
0.98,0.924,-0.934,0
0.776,0.678,-0.45,0
0.669,0.487,-0.065,0
0.271,0.176,0.586,0
0.064,-0.162,1.085,0
-0.23,-0.365,1.615,0
-0.283,-0.26,1.42,0
-0.176,-0.085,0.783,0
-0.127,0.001,0.273,0
0.113,0.341,-0.327,0
0.092,0.305,-0.236,0
0.11,0.275,-0.225,0
0.413,0.127,1.836,0
0.402,0.077,3.325,0
0.273,-0.104,4.47,0
-0.279,0.156,4.761,0
-0.725,0.49,3.239,0
-0.704,0.712,0.587,1
-0.349,0.715,-0.722,0
0.517,1.137,-1.706,0
0.939,1.308,-1.5,0
0.754,0.953,-0.032,0
0.409,0.288,1.333,0
0.095,-0.806,2.673,0
-0.151,-1.171,3.296,0
-0.474,-1.242,3.694,0
-0.576,-1.109,3.078,0
-0.397,-0.662,0.731,0
-0.261,-0.38,-0.488,0
-0.498,-0.29,-1.665,0
-0.732,-0.398,-1.837,0
-1.115,-0.438,-1.721,0
-1.335,-0.546,-1.371,0
-1.268,-0.869,-0.503,0
-0.791,-0.856,0.216,0
0.022,-0.706,0.757,0
0.277,-0.698,0.905,0
0.533,-0.712,0.539,0
0.468,-0.67,-0.058,0
0.304,-0.607,-1.282,0
0.247,-0.614,-1.902,0
0.195,-0.606,-2.702,0
0.036,-0.665,-3.015,0
-0.212,-0.693,-2.862,0
-0.182,-0.616,-2.402,0
0.11,-0.235,-1.652,0
0.143,0.011,-1.482,0
0.095,0.241,-1.696,0
0,0.296,-2.008,0
-0.192,0.362,-2.558,0
-0.477,0.318,-2.742,0
-0.513,0.228,-2.47,0
-0.646,0.127,-1.891,0
-0.794,0.116,-0.982,0
-0.819,0.096,-0.571,0
-0.828,0.121,0.144,0
-0.591,0.333,0.366,0
-0.353,0.512,0.559,0
-0.325,0.595,0.854,0
-0.327,0.595,1.283,0
-0.358,0.565,1.303,0
-0.661,0.436,1.383,0
-0.774,0.326,1.566,0
-0.882,0.119,1.936,0
-0.918,0.016,2.27,0
-0.626,0.028,2.668,0
-0.63,0.017,2.671,0
0.076,0.504,3.71,0
-0.188,0.748,2.802,0
-1.184,1.084,1.375,1
-1.214,0.835,0.455,0
-0.545,0.694,-0.486,0
-0.263,0.839,-0.41,0
0.604,0.902,0.6,0
0.654,0.732,1.458,0
-0.014,0.722,2.428,0
-0.338,0.352,2.457,0
-0.28,-0.076,1.677,0
-0.193,-0.191,1.263,0
0.064,-0.279,0.982,0
0.19,-0.298,1.092,0
0.067,-0.353,1.397,0
-0.017,-0.458,1.263,0
0.058,-0.494,0.652,0
0.149,-0.517,0.226,0
0.192,-0.735,-0.095,0
0.291,-0.78,0.038,0
0.438,-0.769,0.382,0
0.441,-0.81,0.388,0
0.35,-0.782,-0.002,0
0.374,-0.763,-0.361,0
0.252,-0.777,-1.091,0
0.058,-0.766,-1.507,0
-0.243,-0.898,-2.011,0
-0.197,-0.844,-2.551,0
0.103,-0.629,-3.112,0
0.295,-0.381,-3.007,0
0.592,-0.047,-2.508,0
0.602,0.162,-2.187,0
0.526,0.392,-1.981,0
0.404,0.463,-1.897,0
0.087,0.374,-1.921,0
-0.131,0.303,-2.036,0
-0.428,0.246,-1.921,0
-0.362,0.264,-1.599,0
-0.151,0.326,-1.318,0
-0.14,0.347,-1.193,0
-0.115,0.278,-1.092,0
-0.089,0.276,-1.035,0
0.022,0.247,-0.396,0
0.037,0.178,0.242,0
-0.027,0.224,1.375,0
-0.26,0.206,1.804,0
-0.707,0.067,1.51,0
-0.918,0.049,0.759,0
-0.859,0.17,-0.207,0
-0.651,0.235,-0.31,0
-0.534,0.204,0.798,0
-0.607,0.036,1.923,0
-0.87,-0.16,3.093,0
-0.994,-0.039,4.086,0
-1.252,0.192,5.244,0
-1.273,0.479,4.13,0
-0.986,0.799,1.476,1
-0.362,0.808,-0.226,0
0.503,1.133,-1.613,0
0.623,1.204,-1.375,0
0.179,0.456,0.992,0
-0.019,-0.202,2.372,0
-0.104,-0.851,4.421,0
-0.198,-1.051,5.506,0
-0.296,-1.316,5.889,0
-0.289,-1.184,4.665,0
-0.145,-0.586,1.629,0
0.087,-0.261,-0.457,0
0.332,-0.049,-2.691,0
0.1,-0.109,-3.255,0
-0.576,-0.241,-2.799,0
-0.93,-0.483,-1.866,0
-0.913,-0.79,-0.338,0
-0.778,-0.87,0.211,0
-0.64,-1.012,0.599,0
-0.468,-1.102,0.572,0
-0.206,-0.931,-0.003,0
-0.14,-0.775,-0.43,0
-0.159,-0.7,-1.178,0
-0.158,-0.697,-1.631,0
-0.188,-0.677,-2.172,0
-0.159,-0.719,-2.36,0
-0.132,-0.683,-2.082,0
-0.079,-0.602,-1.625,0
0.016,-0.476,-1.197,0
-0.121,-0.378,-1.08,0
-0.18,-0.202,-1.258,0
-0.129,-0.098,-1.576,0
-0.046,0.117,-2.279,0
-0.15,0.129,-2.661,0
-0.446,0.001,-2.87,0
-0.479,0.015,-2.712,0
-0.481,0.011,-2.711,0
-0.642,0.084,-1.405,0
-0.78,0.163,-0.655,0
-0.89,0.214,-0.294,0
-1.089,0.22,0.37,0
-1.194,0.156,0.732,0
-1.13,0.226,0.954,0
-1.214,0.244,0.958,0
-1.223,0.236,0.96,0
-1.161,0.389,1.64,0
-1.148,0.197,2.354,0
-1.057,0.026,2.84,0
-0.717,0.054,3.724,0
-0.397,0.083,3.927,0
-0.13,0.376,3.41,0
-0.281,0.717,2.666,0
-0.335,1.089,0.88,0
-0.043,1.171,-0.055,0
0.399,1.343,-0.659,1
0.64,1.269,-0.458,0
0.643,0.747,0.797,0
0.263,0.272,1.856,0
-0.405,-0.447,3.045,0
-0.709,-0.682,3.428,0
-0.931,-1.046,3.722,0
-0.804,-1.12,3.541,0
-0.46,-0.854,2.713,0
-0.102,-0.694,1.817,0
0.255,-0.463,0.403,0
0.397,-0.325,-0.443,0
0.384,-0.444,-1.282,0
0.303,-0.508,-1.557,0
0.277,-0.632,-1.639,0
0.269,-0.728,-1.406,0
0.384,-0.72,-0.916,0
0.373,-0.776,-0.728,0
0.355,-0.776,-0.653,0
0.366,-0.771,-0.998,0
0.305,-0.661,-1.534,0
0.272,-0.631,-1.752,0
0.175,-0.628,-2.06,0
0.085,-0.625,-2.195,0
0.048,-0.437,-2.14,0
0.218,-0.179,-2.005,0
0.585,0.136,-2.096,0
0.584,0.236,-2.06,0
0.45,0.249,-1.934,0
0.401,0.224,-1.953,0
0.214,0.278,-1.756,0
0.214,0.334,-1.292,0
0.119,0.347,-0.895,0
-0.081,0.312,-0.946,0
-0.068,0.314,-1.331,0
0.342,0.479,-1.621,0
0.641,0.645,-1.632,0
0.753,0.608,-1.621,0
0.768,0.521,-1.368,0
0.693,0.434,-0.934,0
0.604,0.212,-0.112,0
0.555,0.192,0.507,0
0.464,0.233,1.534,0
0.216,0.121,1.894,0
-0.142,0.054,1.974,0
-0.266,0.172,1.837,0
-0.042,0.33,1.695,0
0.058,0.474,1.858,0
0.21,0.656,2.242,0
0.22,0.652,2.576,0
-0.099,0.943,2.774,0
-0.257,1.129,2.635,0
0.149,1.555,1.528,1
0.52,1.805,0.722,0
1.004,1.89,0.099,0
1.149,1.73,0.044,0
1.378,0.971,1.16,0
1.404,0.284,2.293,0
0.485,-0.912,4.905,0
-0.072,-1.651,6.482,0
-0.995,-2.246,8.051,0
-1.48,-2.24,7.395,0
-1.195,-1.674,4.515,0
-0.472,-1.122,1.777,0
0.22,-0.336,-1.502,0
0.512,-0.057,-3.372,0
0.457,0.163,-4.829,0
0.178,0.145,-4.841,0
-0.17,-0.159,-3.444,0
-0.28,-0.433,-2.011,0
-0.231,-0.66,-0.059,0
-0.137,-0.825,0.858,0
-0.106,-1.023,1.015,0
-0.007,-0.968,0.187,0
0.108,-0.724,-1.525,0
0.074,-0.649,-2.182,0
0.085,-0.577,-3.066,0
0.157,-0.462,-3.499,0
0.066,-0.259,-3.917,0
-0.051,-0.235,-3.906,0
-0.207,-0.23,-3.461,0
-0.358,-0.212,-2.71,0
-0.461,-0.239,-1.897,0
-0.519,-0.134,-1.505,0
-0.518,-0.009,-1.266,0
-0.478,0.094,-1.378,0
-0.377,0.254,-1.915,0
-0.408,0.305,-2.156,0
-0.418,0.295,-2.153,0
-0.266,0.397,-1.726,0
-0.426,0.241,-0.693,0
-0.5,0.143,-0.117,0
-0.708,-0.02,0.569,0
-0.836,-0.165,1.139,0
-0.869,-0.419,1.825,0
-0.781,-0.31,2.024,0
-0.607,-0.06,2.25,0
-0.478,0.143,2.257,0
-0.482,0.132,2.261,0
0.014,0.441,1.556,0
0.169,0.416,1.2,0
0.266,0.3,1.052,0
-0.181,0.119,1.74,0
-0.182,0.101,1.746,0
-0.807,0.695,2.122,0
-0.756,0.83,1.532,0
-0.249,0.937,0.187,1
0.245,0.994,-0.326,0
1.097,0.935,0.208,0
1.316,0.59,1.54,0
0.685,-0.058,3.541,0
0.158,-0.291,4.408,0
-0.839,-0.845,4.725,0
-1.336,-1.188,4.25,0
-1.321,-1.255,2.855,0
-0.87,-1.077,1.627,0
-0.157,-0.561,0.202,0
0.216,-0.336,-0.567,0
0.454,-0.351,-1.332,0
0.607,-0.344,-1.833,0
0.835,-0.387,-2.179,0
0.868,-0.489,-2.123,0
0.738,-0.728,-1.601,0
0.746,-0.864,-1.198,0
0.587,-1.087,-0.573,0
0.504,-1.144,-0.36,0
0.478,-1.15,-0.546,0
0.327,-1.131,-0.779,0
0.281,-0.929,-1.212,0
0.229,-0.885,-1.46,0
0.17,-0.697,-1.763,0
0.121,-0.569,-1.866,0
0.077,-0.383,-1.782,0
0.081,-0.279,-1.608,0
-0.004,-0.144,-1.431,0
-0.163,-0.091,-1.587,0
-0.163,-0.1,-1.584,0
-0.351,-0.001,-1.983,0
0.035,0.287,-1.838,0
0.185,0.385,-1.749,0
0.147,0.376,-1.497,0
0.092,0.306,-1.212,0
0.093,0.31,-1.214,0
0.12,0.058,-0.021,0
0.216,0.097,0.805,0
0.227,0.063,1.365,0
0.026,0.028,1.493,0
-0.128,0.105,1.235,0
-0.346,0.207,0.671,0
-0.283,0.366,0.258,0
-0.262,0.342,0.267,0
-0.412,0.414,0.43,0
-0.324,0.327,1.66,0
-0.198,0.239,2.466,0
-0.024,0.273,3.31,0
0.064,0.222,3.58,0
-0.404,0.339,2.83,0
-0.799,0.54,1.8,0
-1.047,0.645,0.27,1
-0.76,0.792,-0.725,0
-0.12,1.291,-2.13,0
0.262,1.447,-2.295,0
0.529,1.167,-1.146,0
0.517,0.647,0.242,0
0.4,-0.216,2.8,0
0.204,-0.739,4.292,0
-0.667,-1.403,6.068,0
-1.173,-1.63,6.119,0
-1.312,-1.561,3.949,0
-0.853,-1.047,1.779,0
-0.288,-0.444,-0.676,0
0.119,-0.188,-2.096,0
0.208,0.07,-2.978,0
-0.078,0.075,-2.877,0
-0.44,-0.245,-1.978,0
-0.594,-0.461,-1.136,0
-0.713,-0.88,0.019,0
-0.703,-0.994,0.336,0
-0.824,-1.204,0.402,0
-0.782,-1.223,0.027,0
-0.404,-0.943,-0.854,0
-0.011,-0.74,-1.597,0
0.196,-0.531,-2.162,0
0.098,-0.551,-2.245,0
-0.259,-0.53,-1.893,0
-0.508,-0.533,-1.474,0
-0.745,-0.512,-1.175,0
-0.747,-0.381,-1.271,0
-0.574,-0.039,-1.7,0
-0.491,0.089,-2.048,0
-0.471,0.275,-2.217,0
-0.272,0.426,-2.155,0
-0.054,0.572,-1.825,0
-0.138,0.538,-1.536,0
-0.149,0.535,-1.535,0
-0.846,0.068,-0.269,0
-1.283,-0.054,0.643,0
-1.403,-0.186,1.185,0
-1.351,-0.29,1.302,0
-1.119,-0.314,1.097,0
-0.751,-0.182,0.614,0
-0.635,-0.104,0.584,0
-0.415,0.059,1.042,0
-0.484,0.108,1.387,0
-0.784,0.185,1.911,0
-0.915,0.137,2.126,0
-0.816,0.105,2.032,0
-0.74,0.164,2.04,0
-0.579,0.241,2.172,0
-0.793,0.309,1.984,0
-0.797,0.277,1.994,0
-0.33,1.062,0.439,1
0.412,1.624,-0.872,0
0.783,1.873,-1.387,0
1.21,1.868,-1.598,0
0.902,1.432,-0.526,0
-0.04,0.453,1.583,0
-0.542,-0.147,2.482,0
-1.486,-0.948,3.61,0
-1.737,-1.259,4.068,0
-1.527,-1.181,4.094,0
-1.166,-0.93,3.851,0
-0.332,-0.481,2.714,0
0.07,-0.181,1.468,0
0.229,-0.084,0.032,0
0.409,-0.042,-0.77,0
0.421,-0.076,-1.209,0
0.115,-0.344,-1.01,0
-0.284,-0.837,-0.039,0
-0.362,-0.894,0.419,0
-0.421,-0.936,0.534,0
-0.414,-0.95,0.291,0
-0.226,-0.879,-0.505,0
-0.052,-0.71,-1.169,0
0.079,-0.506,-1.8,0
0.142,-0.335,-2.353,0
0.225,-0.116,-2.772,0
0.22,-0.078,-2.853,0
0.095,-0.073,-2.601,0
-0.068,-0.172,-2.277,0
-0.382,-0.288,-1.672,0
-0.444,-0.318,-1.361,0
-0.333,-0.182,-1.352,0
-0.195,-0.028,-1.737,0
0.035,0.177,-2.346,0
0.145,0.332,-2.63,0
0.156,0.435,-2.581,0
0.14,0.437,-2.363,0
-0.004,0.326,-1.891,0
-0.076,0.21,-1.505,0
-0.132,0.065,-1.009,0
-0.197,0.017,-0.613,0
-0.257,-0.147,0.134,0
-0.265,-0.179,0.681,0
-0.349,-0.046,1.089,0
-0.336,0.068,1.081,0
-0.119,0.203,0.582,0
-0.044,0.279,0.334,0
-0.035,0.251,0.74,0
0.048,0.098,1.564,0
0.104,-0.045,2.49,0
0.069,-0.153,2.897,0
-0.153,-0.274,3.478,0
-0.316,-0.082,3.55,0
-0.356,0.405,2.275,0
-0.317,0.565,1.109,0
0.191,0.87,-0.588,0
0.498,1.155,-1.306,0
1.135,1.417,-1.717,1
1.279,1.206,-0.878,0
1.236,0.549,1.049,0
1.018,0.022,2.442,0
0.441,-0.874,4.488,0
-0.121,-1.29,5.298,0
-0.92,-1.577,4.939,0
-0.94,-1.409,3.674,0
-0.683,-1.038,0.7,0
-0.358,-0.66,-1.373,0
0.088,-0.398,-3.148,0
0.137,-0.273,-3.531,0
-0.195,-0.15,-2.804,0
-0.099,-0.251,-1.406,0
0.154,-0.346,0.255,0
0.088,-0.354,0.801,0
-0.248,-0.769,1.027,0
-0.588,-0.976,0.809,0
-0.72,-1.045,0.213,0
-0.561,-0.875,-0.304,0
-0.495,-0.785,-1.126,0
-0.419,-0.62,-1.866,0
-0.462,-0.503,-2.016,0
-0.443,-0.477,-1.595,0
-0.303,-0.366,-1.033,0
-0.267,-0.265,-1.053,0
-0.369,-0.125,-1.168,0
-0.321,-0.048,-1.348,0
-0.201,0.142,-1.786,0
-0.158,0.24,-2.038,0
0.034,0.426,-2.293,0
0.104,0.584,-2.328,0
0.182,0.698,-2.042,0
0.154,0.758,-1.672,0
-0.052,0.659,-1.012,0
-0.218,0.596,-0.437,0
-0.623,0.443,0.331,0
-0.824,0.187,0.785,0
-0.766,0.101,1.17,0
-0.864,0.113,1.141,0
-0.634,0.24,1.114,0
-0.38,0.403,1.213,0
0.01,0.642,1.272,0
0.071,0.594,1.498,0
0.103,0.398,1.952,0
0.025,0.279,2.182,0
-0.137,0.038,2.504,0
-0.533,0.202,2.792,0
-0.624,0.585,2.628,0
-0.112,0.566,1.792,0
0.541,0.459,0.842,0
0.828,0.558,0.562,0
1.137,0.534,0.458,1
0.834,0.312,0.837,0
-0.318,-0.311,1.322,0
-0.774,-0.721,1.304,0
-0.573,-0.907,1.219,0
-0.081,-0.899,1.493,0
0.447,-0.735,2.001,0
0.404,-0.657,2.187,0
-0.009,-0.781,1.866,0
-0.198,-0.912,1.28,0
-0.344,-1.031,0.181,0
-0.262,-1.078,-0.283,0
-0.057,-0.952,-0.775,0
0.071,-0.919,-1.033,0
0.387,-0.911,-1.057,0
0.703,-0.749,-0.815,0
1.023,-0.645,-0.51,0
1.132,-0.668,-0.557,0
1.134,-0.666,-0.864,0
0.987,-0.641,-0.979,0
0.726,-0.688,-1.305,0
0.422,-0.772,-1.64,0
0.039,-0.813,-1.759,0
-0.095,-0.855,-1.628,0
0.093,-0.566,-1.481,0
0.096,-0.572,-1.479,0
0.126,-0.135,-1.486,0
0.05,-0.082,-1.523,0
-0.074,0.066,-1.8,0
-0.045,0.179,-1.937,0
0.082,0.302,-2.258,0
0.095,0.327,-2.413,0
0.054,0.293,-2.408,0
0.108,0.311,-2.077,0
0.033,0.195,-0.945,0
0.106,0.224,-0.386,0
-0.198,0.166,0.461,0
-0.406,0.012,0.862,0
-0.442,-0.09,1.113,0
-0.476,0.006,0.948,0
-0.42,0.183,0.207,0
-0.095,0.423,-0.581,0
0.406,0.768,-1.259,0
0.617,0.819,-1.022,0
0.525,0.798,0.551,0
0.329,0.52,1.943,0
-0.213,0.091,3.511,0
-0.761,-0.251,4.209,0
-1.115,-0.546,4.899,0
-1.257,-0.322,4.412,0
-1.326,0.693,2.453,1
-0.955,0.92,1.065,0
0.214,1.443,-1.432,0
0.665,1.769,-2.517,0
0.874,1.846,-2.823,0
0.791,1.403,-1.964,0
0.759,0.112,0.865,0
0.758,-0.515,2.928,0
0.491,-1.162,5.58,0
0.108,-1.356,6.98,0
-0.246,-1.342,6.393,0
-0.251,-1.143,4.143,0
-0.048,-0.472,0.439,0
0.105,-0.177,-1.287,0
0.104,-0.02,-2.901,0
-0.048,0.13,-3.386,0
-0.184,-0.005,-3.045,0
-0.077,-0.281,-1.969,0
0.167,-0.475,-0.712,0
0.154,-0.595,-0.03,0
-0.071,-0.904,0.518,0
-0.19,-0.948,0.343,0
-0.21,-0.879,-0.517,0
-0.206,-0.927,-1.005,0
-0.197,-0.962,-1.735,0
-0.215,-0.869,-1.986,0
-0.332,-0.815,-1.67,0
-0.357,-0.735,-1.335,0
-0.438,-0.438,-1.2,0
-0.669,-0.336,-1.271,0
-0.926,-0.16,-1.625,0
-0.889,-0.022,-1.93,0
-0.562,0.28,-2.354,0
-0.293,0.408,-2.586,0
-0.065,0.497,-2.294,0
-0.239,0.489,-1.456,0
-0.693,0.185,-0.344,0
-0.927,0.057,0.054,0
-0.964,0.051,0.084,0
-1.031,-0.004,-0.192,0
-0.859,0.119,-0.807,0
-0.69,0.247,-0.911,0
-0.589,0.15,-0.367,0
-0.513,0.187,0.325,0
-0.277,0.331,1.256,0
-0.291,0.33,1.521,0
-0.806,0.154,1.811,0
-0.93,0.043,1.852,0
-0.822,0.071,1.656,0
-0.671,0.232,1.427,0
-0.523,0.344,1.104,0
-0.701,0.723,1.053,0
-0.988,1.336,0.65,0
-0.725,1.312,-0.106,0
0.058,1.335,-0.74,0
0.572,1.639,-0.993,0
0.685,1.426,-0.304,1
0.416,0.993,0.843,0
0.029,0.165,2.437,0
-0.155,-0.278,3.254,0
-0.374,-1.233,4.648,0
-0.72,-1.645,5.526,0
-1.173,-1.814,6.013,0
-1.225,-1.654,5.403,0
-0.82,-1.306,2.947,0
-0.407,-1.054,1.191,0
0.226,-0.617,-0.899,0
0.518,-0.524,-1.427,0
0.471,-0.54,-1.522,0
0.335,-0.657,-1.094,0
0.1,-0.825,-0.156,0
0.034,-0.943,0.212,0
-0.055,-1.01,-0.079,0
-0.057,-0.978,-0.743,0
0.199,-0.81,-1.698,0
0.486,-0.563,-2.084,0
0.751,-0.211,-2.417,0
0.807,-0.149,-2.511,0
0.727,0.015,-2.335,0
0.613,0.129,-2.114,0
0.418,0.059,-2.193,0
0.191,-0.019,-2.45,0
-0.243,-0.16,-2.374,0
-0.233,-0.173,-2.037,0
-0.091,0.037,-1.424,0
-0.097,0.052,-1.226,0
-0.056,0.186,-0.949,0
0.12,0.291,-0.96,0
0.33,0.464,-1.011,0
0.226,0.452,-0.891,0
0.353,0.518,-0.788,0
0.247,0.503,-0.53,0
0.099,0.377,0.198,0
0.101,0.385,0.472,0
-0.004,0.294,0.631,0
-0.071,0.223,0.554,0
-0.367,0.213,0.27,0
-0.601,0.087,0.121,0
-0.588,0.101,0.196,0
-0.431,0.233,0.487,0
-0.375,0.184,0.959,0
-0.261,0.304,1.216,0
-0.285,0.234,2.322,0
-0.359,0.209,2.858,0
-0.541,0.487,3.01,0
-0.907,0.94,2.482,0
-1.058,1.177,0.637,0
-0.791,1.117,-0.474,0
-0.225,1.119,-1.204,1
0.099,0.982,-1.054,0
0.024,0.5,0.499,0
-0.132,-0.031,1.896,0
-0.103,-0.745,3.749,0
-0.124,-1.06,4.66,0
-0.138,-1.393,5.294,0
-0.412,-1.401,4.524,0
-0.592,-1.255,1.845,0
-0.541,-1.062,-0.119,0
-0.577,-0.826,-2.067,0
-0.573,-0.643,-2.706,0
-0.748,-0.546,-2.691,0
-0.743,-0.478,-2.359,0
-0.658,-0.621,-1.675,0
-0.423,-0.617,-1.112,0
-0.265,-0.738,-0.348,0
-0.281,-0.853,-0.201,0
-0.428,-1.02,-0.474,0
-0.54,-1.125,-0.789,0
-0.482,-1.189,-1.074,0
-0.545,-1.156,-1.366,0
-0.416,-1.021,-1.838,0
-0.42,-0.874,-1.93,0
-0.552,-0.732,-2.169,0
-0.749,-0.684,-2.197,0
-0.77,-0.513,-2.142,0
-0.828,-0.419,-2.078,0
-0.792,-0.194,-1.872,0
-0.744,-0.067,-1.741,0
-0.763,0.081,-1.315,0
-0.804,0.201,-0.898,0
-0.726,0.333,-0.36,0
-0.685,0.391,-0.229,0
-0.709,0.516,-0.306,0
-0.83,0.439,-0.45,0
-0.966,0.272,-0.936,0
-1.102,0.159,-1.097,0
-1.123,0.248,-0.752,0
-1.051,0.249,-0.195,0
-1.021,0.309,0.683,0
-0.896,0.44,1.202,0
-0.637,0.533,2.031,0
-0.722,0.436,2.364,0
-0.952,0.4,2.469,0
-0.812,0.28,2.393,0
-0.723,0.067,2.059,0
-0.73,0.126,1.838,0
-0.681,0.761,1.572,0
-0.741,1.206,1.129,1
-0.72,1.185,1.135,0
0.207,1.494,-0.594,0
0.528,1.404,-0.269,0
0.607,1.033,1.316,0
0.163,0.37,3.493,0
-0.428,-0.158,4.498,0
-0.642,-0.905,4.838,0
-0.583,-1.138,4.66,0
-0.532,-1.268,3.999,0
-0.576,-1.136,3.44,0
-0.644,-0.971,2.381,0
-0.664,-1.009,1.487,0
-0.543,-0.948,0.617,0
-0.351,-0.927,0.119,0
-0.174,-0.883,-0.652,0
-0.063,-0.973,-1.01,0
0.177,-1.157,-1.395,0
0.367,-1.137,-1.672,0
0.44,-1.149,-1.969,0
0.452,-1.144,-1.97,0
0.41,-1.215,-1.546,0
0.676,-0.937,-0.498,0
0.624,-0.735,-0.644,0
0.49,-0.62,-1.12,0
0.296,-0.366,-2.113,0
0.191,-0.205,-2.564,0
0.207,-0.048,-3.025,0
0.175,0.151,-3.169,0
0.336,0.328,-2.905,0
0.256,0.396,-2.315,0
0.1,0.436,-1.149,0
-0.124,0.285,-0.394,0
-0.627,-0.006,0.24,0
-0.922,-0.13,0.313,0
-1.205,-0.397,0.083,0
-1.157,-0.371,-0.337,0
-0.789,-0.114,-1.077,0
-0.474,0.078,-1.457,0
0.008,0.271,-1.734,0
0.323,0.401,-1.669,0
0.574,0.452,-1.559,0
0.708,0.483,-1.2,0
0.516,0.476,0.337,0
0.233,0.321,1.053,0
-0.565,0.02,1.738,0
-1.004,-0.284,1.901,0
-0.925,-0.191,1.339,0
-0.796,-0.031,0.795,0
-0.171,0.213,0.393,0
0.356,0.56,0.742,0
0.79,0.848,2.081,0
0.806,0.829,2.836,0
0.039,0.872,3.688,0
-0.527,0.956,3.312,0
-1.33,0.807,1.273,1
-1.293,0.637,0.293,0
-0.479,0.92,-1.343,0
0.236,1.23,-2.028,0
1.052,1.419,-1.536,0
1.502,1.213,0.088,0
1.403,0.406,2.715,0
1.185,-0.195,4.057,0
0.281,-1.026,5.454,0
-0.442,-1.333,5.482,0
-0.983,-1.41,3.614,0
-1.052,-1.412,1.698,0
-0.852,-1.006,-0.835,0
-0.454,-0.606,-2.275,0
-0.075,-0.308,-3.236,0
0.033,-0.055,-3.162,0
0.334,-0.001,-2.29,0
0.51,-0.129,-1.75,0
0.349,-0.494,-0.563,0
0.202,-0.832,-0.09,0
-0.046,-1.34,0.414,0
-0.455,-1.585,0.541,0
-0.726,-1.646,0.444,0
-0.723,-1.529,0.234,0
-0.541,-1.243,-0.505,0
-0.356,-0.96,-1.18,0
-0.153,-0.661,-2.185,0
-0.137,-0.536,-2.628,0
-0.038,-0.216,-3.042,0
0.021,-0.071,-2.906,0
-0.034,-0.031,-2.244,0
-0.102,0.003,-1.661,0
-0.39,-0.018,-1.25,0
-0.459,0.004,-1.185,0
-0.369,0.146,-1.27,0
-0.328,0.284,-1.338,0
-0.429,0.271,-1.092,0
-0.477,0.305,-0.813,0
-0.312,0.526,-0.466,0
-0.254,0.636,-0.35,0
-0.325,0.558,0.022,0
-0.377,0.501,0.508,0
-0.473,0.551,1.299,0
-0.459,0.585,1.691,0
-0.503,0.46,2.15,0
-0.571,0.441,2.206,0
-0.67,0.431,1.676,0
-0.751,0.328,1.374,0
-0.616,0.279,1.328,0
-0.451,0.287,1.386,0
-0.37,0.332,1.399,0
-0.51,0.63,1.212,0
-0.655,1.094,0.548,0
-0.252,1.253,-0.055,0
0.502,1.494,-0.668,1
0.785,1.468,-0.512,0
0.48,0.905,0.862,0
-0.272,0.103,2.36,0
-0.944,-0.63,3.49,0
-1.247,-1.016,3.997,0
-1.086,-1.536,4.644,0
-0.867,-1.461,4.626,0
-0.857,-1.222,3.811,0
-0.751,-1.032,2.779,0
-0.456,-0.62,0.724,0
-0.247,-0.478,-0.355,0
0.19,-0.318,-1.476,0
0.368,-0.2,-1.896,0
0.415,-0.365,-1.785,0
0.387,-0.55,-1.276,0
0.235,-0.787,-0.234,0
0.169,-0.908,0.197,0
0.073,-1.124,-0.009,0
0.144,-1.026,-0.528,0
0.367,-0.825,-1.634,0
0.534,-0.69,-2.098,0
0.55,-0.53,-2.582,0
0.434,-0.482,-2.819,0
0.174,-0.379,-2.664,0
0.081,-0.321,-2.465,0
-0.053,-0.309,-2.229,0
-0.162,-0.266,-1.895,0
0.002,-0.035,-1.48,0
0.183,0.2,-1.49,0
0.415,0.379,-1.6,0
0.612,0.471,-1.584,0
0.511,0.427,-1.449,0
0.343,0.303,-1.199,0
0.343,0.306,-1.2,0
-0.131,-0.069,-0.516,0
-0.146,-0.075,-0.389,0
-0.061,-0.011,-0.419,0
0.065,0.098,-0.359,0
0.083,0.067,-0.261,0
0.131,0.102,-0.06,0
0.189,0.273,0.124,0
0.297,0.358,0.083,0
0.215,0.368,-0.076,0
0.136,0.335,0.03,0
0.213,0.36,0.372,0
0.309,0.398,1.036,0
0.339,0.381,1.172,0
0.538,0.52,1.441,0
0.668,0.576,2.039,0
0.873,0.78,2.802,0
0.503,0.909,3.009,1
-0.253,1.056,2.374,0
-0.34,1.227,1.47,0
-0.316,1.199,1.479,0
0.189,1.329,-0.288,0
0.704,1.207,-0.026,0
0.768,0.787,1.05,0
0.957,-0.098,3.106,0
0.729,-0.628,4.773,0
-0.036,-1.617,6.387,0
-0.537,-2.01,6.705,0
-0.98,-2.074,5.568,0
-0.786,-1.675,3.644,0
-0.311,-0.97,0.143,0
-0.135,-0.604,-1.801,0
0.202,-0.373,-3.463,0
0.36,-0.186,-3.989,0
0.288,-0.124,-3.255,0
0.266,-0.248,-2.074,0
0.324,-0.608,-0.508,0
0.305,-0.719,-0.229,0
0.064,-1.083,-0.274,0
0.064,-1.154,-0.575,0
0.218,-1.054,-1.197,0
0.401,-0.849,-1.619,0
0.331,-0.733,-1.68,0
0.208,-0.605,-1.623,0
0.045,-0.496,-1.663,0
-0.066,-0.449,-1.715,0
-0.206,-0.312,-1.792,0
-0.186,-0.249,-1.847,0
-0.125,-0.124,-1.605,0
-0.097,-0.09,-1.346,0
-0.022,0.024,-1.296,0
-0.115,0.025,-1.27,0
-0.195,0.016,-0.714,0
-0.16,0.04,-0.459,0
-0.149,0.085,-0.514,0
-0.106,0.122,-0.689,0
-0.299,-0.017,-0.69,0
-0.3,-0.018,-0.635,0
0.051,0.222,-0.412,0
0.219,0.384,-0.178,0
0.257,0.529,-0.081,0
0.225,0.511,-0.166,0
0.031,0.386,-0.281,0
-0.119,0.281,0.033,0
-0.222,0.048,1.109,0
-0.269,-0.159,1.528,0
-0.173,-0.301,1.592,0
-0.168,-0.319,1.597,0
0.491,-0.256,1.54,0
0.446,-0.166,1.657,0
0.055,0.131,1.859,0
-0.111,0.585,1.569,0
-0.162,1.16,0.465,0
0.142,1.252,-0.27,0
0.15,1.226,-0.262,1
1.083,1.123,-0.337,0
0.735,0.405,1.766,0
0.281,-0.239,3.342,0
-0.458,-0.862,4.619,0
-0.672,-1.208,4.942,0
-0.689,-1.312,4.739,0
-0.399,-1.128,4.073,0
0.42,-0.461,2.328,0
0.876,-0.087,1.03,0
1.323,0.037,-0.309,0
1.496,0.025,-0.96,0
1.494,0.078,-1.249,0
1.401,-0.141,-1.12,0
1.237,-0.496,-0.714,0
1.195,-0.668,-0.362,0
1.177,-0.962,0.023,0
1.207,-1.087,-0.035,0
1.125,-1.029,-0.505,0
1.108,-1.005,-0.909,0
1.155,-0.969,-1.723,0
1.032,-0.96,-2.219,0
0.674,-0.821,-2.733,0
0.701,-0.736,-2.913,0
0.524,-0.601,-2.495,0
0.502,-0.464,-2.103,0
0.503,-0.193,-1.6,0
0.396,-0.064,-1.488,0
0.295,0.072,-1.758,0
0.314,0.247,-2.17,0
0.446,0.346,-2.562,0
0.444,0.294,-2.679,0
0.444,0.352,-2.088,0
0.443,0.243,-1.495,0
0.415,0.246,-1.499,0
0.396,0.089,-0.028,0
0.131,-0.212,1.014,0
0.183,-0.33,1.257,0
0.265,-0.249,1.575,0
0.309,-0.134,1.533,0
0.403,0.01,0.891,0
0.252,0.135,0.441,0
0.236,0.142,0.116,0
0.431,0.202,0.103,0
0.463,0.287,0.622,0
0.651,0.236,0.932,0
0.675,0.195,1.739,0
0.498,0.037,2.431,0
0.502,-0.055,2.856,0
0.593,0.136,3.211,0
-0.057,0.471,2.979,0
-0.275,0.666,2.02,1
-0.301,0.953,0.26,0
0.023,0.995,-0.615,0
0.955,1.153,-1.29,0
1.386,1.112,-0.922,0
1.436,0.522,1.157,0
1.211,-0.177,2.656,0
0.71,-0.936,4.401,0
0.074,-1.48,5.588,0
-0.356,-1.647,6.187,0
-0.53,-1.472,5.453,0
-0.098,-1.053,2.563,0
0.286,-0.687,0.894,0
0.649,-0.22,-1.186,0
0.929,-0.106,-1.848,0
1.184,0.029,-2.05,0
1.1,-0.043,-1.599,0
0.977,-0.495,-0.688,0
0.955,-0.656,-0.397,0
0.86,-0.866,-0.375,0
0.87,-0.975,-0.596,0
0.873,-0.88,-1.192,0
0.789,-0.813,-1.617,0
0.483,-0.788,-2.13,0
0.368,-0.672,-2.401,0
0.239,-0.489,-2.693,0
0.186,-0.435,-2.895,0
0.211,-0.386,-2.724,0
0.184,-0.262,-2.356,0
0.239,-0.098,-1.492,0
0.303,-0.055,-1.048,0
0.308,-0.043,-1.051,0
0.332,0.073,-1.041,0
0.294,0.101,-1.599,0
0.289,0.118,-2.095,0
0.434,0.249,-2.511,0
0.446,0.283,-2.215,0
0.445,0.284,-2.216,0
0.366,0.222,-0.689,0
0.141,0.167,-0.259,0
0.013,0.112,-0.202,0
-0.073,0.006,-0.245,0
0.052,-0.027,-0.293,0
0.225,0.014,-0.059,0
0.297,0.023,0.208,0
0.385,0.156,0.263,0
0.308,0.269,0.162,0
0.109,0.304,0.386,0
0.142,0.174,0.556,0
0.184,0.014,1.033,0
0.251,-0.099,1.673,0
0.34,-0.027,2.35,0
0.083,0.272,2.581,0
-0.411,0.572,2.039,0
-0.297,0.711,1.237,0
0.227,0.95,0.202,0
0.654,0.876,-0.006,0
0.931,0.752,0.51,1
0.687,0.49,1.692,0
0.585,-0.356,3.897,0
0.675,-0.747,4.955,0
0.634,-1.185,6.252,0
0.558,-1.445,6.988,0
0.355,-1.453,6.401,0
0.373,-1.247,4.645,0
0.625,-0.913,1.265,0
0.755,-0.653,-0.287,0
1.327,-0.231,-2.186,0
1.542,-0.044,-2.802,0
1.526,0.059,-2.663,0
1.421,-0.098,-1.854,0
1.096,-0.607,-0.416,0
0.933,-0.881,0.134,0
0.871,-1.13,0.406,0
0.789,-1.219,0.312,0
0.68,-1.353,-0.408,0
0.795,-1.236,-1,0
0.968,-0.909,-1.923,0
0.999,-0.703,-2.311,0
0.966,-0.479,-2.446,0
1.017,-0.278,-2.444,0
1.077,-0.055,-2.411,0
1.081,0.069,-2.087,0
1.022,0.203,-1.496,0
1,0.217,-1.222,0
0.858,0.217,-0.775,0
0.819,0.279,-0.652,0
0.964,0.384,-0.705,0
1.042,0.441,-0.828,0
1.18,0.51,-0.776,0
1.165,0.505,-0.579,0
1.076,0.468,-0.25,0
1.09,0.402,-0.191,0
1.079,0.393,-0.189,0
1.17,0.269,0.133,0
1.044,0.126,0.566,0
0.799,0,1.232,0
0.511,-0.124,1.928,0
0.283,-0.085,1.888,0
0.223,-0.01,1.231,0
0.365,0.161,0.648,0
0.839,0.531,0.444,0
1.183,0.614,0.627,0
1.198,0.467,1.239,0
0.975,0.247,1.988,0
0.65,-0.052,2.795,0
0.179,-0.259,3.028,0
-0.636,-0.237,2.536,0
-0.918,-0.1,1.775,0
-0.976,0.192,0.502,1
-0.588,0.193,-0.151,0
0.477,0.55,-0.896,0
1.166,0.693,-0.997,0
1.298,0.365,0.1,0
0.712,-0.469,1.573,0
0.155,-1.605,3.232,0
-0.197,-2.08,3.925,0
-0.801,-2.465,4.065,0
-0.91,-2.436,2.92,0
-0.391,-1.63,0.097,0
0.019,-1.146,-1.242,0
0.583,-0.542,-2.62,0
0.599,-0.374,-2.558,0
0.498,-0.271,-1.976,0
0.325,-0.447,-1.292,0
0.364,-0.829,-0.013,0
0.49,-0.94,0.615,0
0.452,-1.139,1.413,0
0.436,-1.202,1.445,0
0.608,-1.039,0.879,0
0.745,-0.888,0.286,0
0.961,-0.601,-1.065,0
1.011,-0.433,-1.823,0
0.926,-0.318,-2.231,0
0.948,-0.31,-2.232,0
0.76,-0.194,-2.095,0
0.61,-0.211,-1.892,0
0.46,-0.23,-1.675,0
0.317,-0.305,-1.568,0
0.447,-0.197,-1.523,0
0.569,-0.086,-1.399,0
0.766,0.079,-1.198,0
0.766,0.145,-1.105,0
0.709,0.26,-1.057,0
0.553,0.265,-1.017,0
0.343,0.179,-0.783,0
0.257,0.164,-0.6,0
0.3,0.177,-0.386,0
0.321,0.205,-0.325,0
0.364,0.327,-0.164,0
0.316,0.277,0.014,0
0.215,0.129,0.373,0
0.232,0.162,0.595,0
0.124,0.106,1.285,0
0.078,-0.046,1.605,0
0.028,0.028,1.559,0
0.106,0.049,1.238,0
0.388,-0.011,0.619,0
0.566,0.005,0.388,0
0.57,-0.027,0.4,0
0.566,0.366,0.825,0
0.215,0.86,1.177,0
0.395,0.922,1.263,1
1.06,0.633,1.347,0
1.323,0.57,1.641,0
1.179,0.103,2.668,0
0.701,-0.277,3.237,0
-0.274,-0.576,3.598,0
-0.256,-0.688,3.296,0
0.531,-0.679,2.827,0
1.081,-0.624,2.865,0
1.738,-0.476,3.106,0
1.503,-0.613,3.123,0
1.033,-0.849,2.281,0
0.954,-0.913,1.496,0
0.949,-0.868,0.38,0
1.128,-0.856,-0.028,0
1.303,-0.722,-0.574,0
1.189,-0.696,-0.863,0
1.221,-0.749,-1.376,0
1.274,-0.844,-1.704,0
1.316,-0.96,-2.039,0
1.262,-0.991,-1.946,0
1.152,-1.243,-1.172,0
1.098,-1.37,-0.619,0
0.91,-1.463,-0.15,0
0.595,-1.473,0.015,0
0.359,-1.456,0.012,0
0.431,-1.315,-0.185,0
0.684,-0.955,-0.604,0
0.954,-0.582,-0.977,0
1.19,-0.25,-1.54,0
1.252,-0.118,-1.896,0
1.081,0.027,-2.271,0
0.853,0.032,-2.26,0
0.434,-0.199,-1.89,0
0.321,-0.221,-1.505,0
0.337,-0.07,-1.043,0
0.341,-0.055,-0.599,0
0.475,-0.035,-0.028,0
0.75,0.075,0.029,0
1.262,0.354,-0.059,0
1.464,0.423,-0.086,0
1.449,0.409,-0.084,0
1.405,0.217,0.139,0
1.196,-0.04,0.866,0
1.042,-0.184,1.589,0
0.836,-0.2,2.313,0
0.662,-0.305,2.538,0
0.519,-0.252,2.237,0
0.481,-0.161,1.768,0
0.777,-0.042,0.839,0
0.903,0.115,0.731,0
1.061,0.294,1.401,0
0.996,0.457,1.92,0
0.337,0.765,1.951,0
-0.02,0.832,1.269,0
-0.031,0.808,-0.184,1
0.359,0.821,-0.847,0
0.848,0.702,-0.703,0
0.766,0.392,-0.261,0
0.309,-0.568,1.34,0
0.126,-1.319,2.868,0
-0.123,-2.114,4.837,0
-0.063,-2.441,6.16,0
-0.417,-2.428,6.837,0
-0.405,-2.138,5.771,0
0.189,-1.356,1.452,0
0.289,-0.96,-0.586,0
0.752,-0.536,-3.045,0
0.956,-0.372,-3.641,0
1.031,-0.071,-3.093,0
1.097,-0.229,-1.607,0
1.099,-0.717,0.596,0
1.092,-0.912,1.223,0
1.225,-1.225,1.431,0
1.409,-1.162,0.722,0
1.394,-1.172,0.724,0
1.729,-0.827,-1.476,0
1.566,-0.755,-1.883,0
1.525,-0.695,-2.021,0
1.25,-0.639,-2.175,0
0.965,-0.735,-2.011,0
0.666,-0.924,-1.617,0
0.525,-0.921,-1.362,0
0.524,-0.848,-1.091,0
0.606,-0.78,-0.919,0
0.813,-0.532,-0.752,0
0.989,-0.371,-0.792,0
1.13,-0.17,-1.157,0
1.146,-0.091,-1.477,0
1.145,-0.094,-1.476,0
0.858,-0.224,-1.548,0
0.72,-0.301,-1.478,0
0.646,-0.322,-1.416,0
0.539,-0.256,-1.063,0
0.441,-0.236,-0.847,0
0.315,-0.241,0.024,0
0.369,-0.186,0.48,0
0.499,-0.015,0.567,0
0.462,0.091,0.539,0
0.472,0.309,0.401,0
0.568,0.3,0.301,0
0.611,0.453,0.613,0
0.581,0.425,1.082,0
0.638,0.118,1.815,0
0.597,-0.14,2.196,0
0.642,-0.357,3.345,0
0.666,-0.568,4.039,0
0.065,-0.269,3.719,0
-0.216,0.138,2.632,1
0.242,0.461,0.885,0
0.728,0.473,0.309,0
1.756,0.88,-0.217,0
1.795,0.811,0.3,0
1.287,0.072,2.289,0
0.837,-0.462,3.177,0
0.733,-1.067,3.691,0
0.726,-1.649,4.096,0
0.477,-2.056,4.224,0
0.22,-2.051,3.787,0
0.324,-1.535,2.02,0
0.666,-1.054,0.82,0
1.031,-0.501,-1.307,0
1.307,-0.2,-2.377,0
1.536,0.077,-3.424,0
1.435,0.119,-3.493,0
1.233,-0.051,-2.643,0
1.175,-0.237,-1.805,0
0.922,-0.76,-0.463,0
0.71,-1.003,-0.137,0
0.303,-1.415,0.047,0
0.247,-1.516,0.024,0
0.274,-1.407,-0.056,0
0.465,-1.205,-0.254,0
0.793,-0.929,-0.773,0
0.989,-0.599,-1.226,0
1.19,-0.345,-1.782,0
1.188,-0.229,-2.015,0
1.239,-0.002,-1.906,0
1.268,0.112,-1.573,0
1.331,0.26,-1.078,0
1.291,0.354,-0.946,0
1.136,0.306,-0.922,0
0.995,0.213,-0.742,0
0.974,0.16,-0.269,0
1.085,0.169,0.03,0
1.316,0.276,0.49,0
1.414,0.345,0.707,0
1.385,0.175,1.434,0
1.332,0.08,1.635,0
1.308,-0.012,1.723,0
1.316,-0.104,1.747,0
1.304,-0.114,1.808,0
1.354,-0.057,1.573,0
1.168,0.019,1.51,0
1.084,0.022,1.497,0
1.153,0.196,1.128,0
1.185,0.275,0.884,0
1.188,0.247,0.913,0
1.135,0.208,1.308,0
0.636,0.068,2.152,0
0.107,0.073,2.44,0
-0.193,0.419,1.488,1
-0.24,0.679,0.474,0
0.032,0.808,-0.627,0
0.523,1.103,-1.157,0
1.665,1.503,-1.656,0
2.181,1.357,-1.22,0
2.588,0.274,1.337,0
2.662,-0.347,3.635,0
1.893,-1.409,6.894,0
0.8,-2.284,8.462,0
-0.463,-2.974,7.97,0
-0.803,-2.838,5.275,0
-0.546,-2.163,0.304,0
-0.188,-1.477,-2.315,0
0.961,-0.49,-4.891,0
1.643,0.007,-5.388,0
2.055,0.517,-4.488,0
1.983,0.342,-2.681,0
1.68,-0.371,-0.634,0
1.123,-0.847,0.194,0
0.456,-1.616,0.89,0
0.114,-1.821,0.831,0
-0.218,-1.785,-0.025,0
-0.072,-1.622,-0.72,0
0.31,-1.218,-1.71,0
0.401,-0.899,-2.306,0
0.414,-0.741,-2.583,0
0.51,-0.659,-2.609,0
0.446,-0.466,-2.074,0
0.349,-0.482,-1.488,0
0.249,-0.401,-0.848,0
0.16,-0.317,-0.656,0
0.084,-0.148,-0.959,0
0.079,-0.098,-1.348,0
0.216,0.035,-1.765,0
0.258,0.132,-1.696,0
0.392,0.171,-1.476,0
0.467,0.197,-1.362,0
0.354,0.242,-0.845,0
0.261,0.148,-0.217,0
0.138,0.139,0.471,0
-0.106,0.145,0.89,0
-0.163,0.097,1.004,0
-0.236,0.06,0.871,0
-0.324,0.06,0.715,0
-0.284,0.108,0.781,0
-0.122,0.097,1.127,0
0.163,0.096,1.351,0
0.611,0.116,1.542,0
0.827,0.074,1.832,0
0.78,-0.131,2.218,0
0.553,-0.18,2.228,0
-0.158,-0.178,2.167,0
-0.699,0.237,1.684,0
-0.641,0.496,0.708,0
-0.178,0.688,-0.19,0
0.577,1.11,-1.134,1
1.109,1.051,-0.745,0
0.961,0.448,1.79,0
0.647,-0.117,3.095,0
0.253,-0.977,4.475,0
0.241,-1.293,4.888,0
0.395,-1.513,5.041,0
0.376,-1.419,4.626,0
0.554,-1.118,3.394,0
0.856,-0.77,1.984,0
1.102,-0.477,0.194,0
1.448,-0.348,-0.737,0
1.707,-0.152,-1.81,0
1.731,-0.182,-2.17,0
1.696,-0.395,-1.946,0
1.512,-0.687,-1.189,0
1.279,-1.093,-0.266,0
1.121,-1.23,-0.142,0
0.875,-1.3,-0.096,0
0.92,-1.249,-0.093,0
0.976,-1.021,-0.522,0
1.06,-0.807,-1.124,0
1.162,-0.52,-2.027,0
1.177,-0.354,-2.202,0
1.035,-0.256,-2.267,0
1.047,-0.195,-2.456,0
0.844,-0.256,-2.065,0
0.642,-0.285,-1.484,0
0.463,-0.244,-1.107,0
0.326,-0.223,-1.164,0
0.46,-0.077,-1.527,0
0.485,-0.01,-1.536,0
0.482,0.034,-1.523,0
0.534,0.082,-1.651,0
0.653,0.198,-1.588,0
0.617,0.21,-1.055,0
0.68,0.158,-0.393,0
0.732,0.191,0.017,0
0.825,0.189,0.409,0
0.799,0.117,0.571,0
0.804,-0.001,0.914,0
0.843,0.013,1.244,0
0.612,-0.026,1.596,0
0.249,-0.158,1.868,0
-0.164,-0.251,2.123,0
-0.125,-0.193,2.128,0
0.142,-0.024,2.273,0
0.216,0.1,2.291,0
0.171,0.206,2.121,0
-0.046,0.353,1.913,0
-0.132,0.786,0.864,0
0.04,1.162,-0.105,0
0.297,1.521,-1.142,1
0.541,1.647,-1.782,0
0.607,1.477,-1.709,0
0.54,0.884,-0.59,0
0.579,-0.045,1.715,0
0.451,-0.459,2.761,0
0.283,-1.388,4.85,0
-0.246,-1.697,5.795,0
-0.812,-1.897,5.541,0
-0.797,-1.786,3.994,0
-0.377,-1.146,1.144,0
0.059,-0.757,-0.635,0
0.599,-0.422,-2.139,0
0.636,-0.289,-2.466,0
0.456,-0.423,-1.9,0
0.401,-0.607,-0.972,0
0.4,-1,0.358,0
0.469,-1.134,0.559,0
0.566,-1.259,0.154,0
0.588,-1.304,-0.221,0
0.65,-1.283,-0.646,0
0.537,-1.289,-0.941,0
0.155,-1.388,-1.206,0
-0.045,-1.411,-1.432,0
-0.077,-1.221,-2.061,0
-0.002,-0.982,-2.55,0
0.048,-0.72,-2.887,0
0.225,-0.538,-2.957,0
0.372,-0.186,-2.729,0
0.445,0.029,-2.253,0
0.434,0.117,-1.529,0
0.274,0.078,-1.152,0
-0.159,-0.156,-0.642,0
-0.331,-0.288,-0.451,0
-0.609,-0.345,-0.141,0
-0.61,-0.353,0.085,0
-0.472,-0.185,0.284,0
-0.342,0.036,0.262,0
-0.336,0.034,0.263,0
0.13,0.377,-0.311,0
0.281,0.497,-0.278,0
0.274,0.486,-0.275,0
0.226,0.455,0.709,0
0.127,0.291,1.581,0
-0.01,0.159,2.489,0
-0.149,0.195,2.576,0
-0.191,0.142,1.958,0
-0.166,0.226,1.354,0
0.262,0.58,0.975,0
0.606,0.794,0.921,0
0.737,1.374,0.844,0
0.687,1.56,0.638,0
0.932,1.557,-0.006,1
1.108,1.546,-0.359,0
0.985,1.092,0.162,0
0.756,0.571,1.186,0
0.259,-0.181,3.28,0
-0.164,-0.55,4.548,0
-0.407,-0.945,5.311,0
-0.35,-1.038,5.161,0
-0.069,-0.929,4.12,0
0.173,-0.717,3.071,0
0.536,-0.502,1.806,0
0.823,-0.426,0.763,0
0.983,-0.561,-0.317,0
1.088,-0.695,-1.02,0
1.131,-0.872,-1.831,0
1.2,-0.988,-2.028,0
1.128,-1.238,-1.763,0
1.037,-1.395,-1.403,0
0.928,-1.611,-0.656,0
0.851,-1.71,-0.349,0
0.691,-1.747,-0.368,0
0.626,-1.725,-0.567,0
0.691,-1.614,-1.161,0
0.829,-1.405,-1.899,0
0.958,-1.012,-2.655,0
1.061,-0.855,-2.786,0
1.108,-0.553,-2.648,0
0.983,-0.487,-2.229,0
0.67,-0.581,-1.608,0
0.522,-0.525,-1.411,0
0.343,-0.534,-1.276,0
0.163,-0.538,-1.185,0
0.302,-0.32,-1.346,0
0.416,-0.19,-1.545,0
0.494,-0.081,-1.832,0
0.574,-0.01,-1.971,0
0.584,0.126,-1.816,0
0.697,0.197,-1.501,0
0.943,0.299,-1.066,0
0.97,0.314,-0.711,0
0.758,0.17,0.025,0
0.571,0.112,0.349,0
0.132,-0.129,0.917,0
-0.103,-0.162,1.351,0
-0.035,0.034,1.728,0
0.121,0.212,1.513,0
0.206,0.557,0.917,0
0.441,0.958,0.863,0
0.769,1.223,1.17,0
0.851,1.306,1.709,0
0.627,1.061,2.587,0
0.267,0.962,2.945,0
-0.305,0.985,2.819,0
-0.262,1.186,1.988,0
-0.246,1.473,0.572,1
0.081,1.61,0.1,0
0.689,1.908,0.213,0
0.854,1.877,1.08,0
1.048,1.144,3.074,0
1.189,0.682,4.325,0
0.57,-0.474,6.479,0
0.185,-1.167,7.454,0
-0.56,-1.937,7.428,0
-0.923,-2.137,5.874,0
-0.83,-1.928,2.685,0
-0.504,-1.467,0.091,0
0.029,-1,-2.777,0
0.382,-0.734,-4.348,0
0.651,-0.146,-5.31,0
0.511,-0.115,-4.829,0
0.392,-0.415,-2.955,0
0.298,-0.66,-1.798,0
0.1,-1.12,-0.545,0
-0.198,-1.442,-0.007,0
-0.409,-1.716,0.122,0
-0.37,-1.701,-0.176,0
-0.166,-1.452,-0.847,0
0.074,-1.212,-1.495,0
0.117,-0.896,-2.305,0
0.044,-0.778,-2.726,0
-0.139,-0.689,-3.111,0
-0.063,-0.52,-3.183,0
-0.058,-0.313,-2.818,0
-0.035,-0.205,-2.339,0
0.087,-0.02,-1.671,0
0.187,0.138,-0.976,0
0.321,0.285,-0.34,0
0.298,0.395,-0.358,0
0.289,0.449,-0.804,0
0.253,0.449,-1.141,0
0.081,0.436,-1.397,0
-0.046,0.368,-1.477,0
-0.176,0.319,-1.328,0
-0.359,0.24,-0.936,0
-0.62,0.094,-0.273,0
-0.753,0.061,0.06,0
-0.754,0.065,0.058,0
-0.815,0.199,0.632,0
-0.755,0.302,1.069,0
-0.689,0.318,1.381,0
-0.701,0.308,1.384,0
-0.297,0.258,1.829,0
-0.182,0.294,2.069,0
-0.036,0.26,2.256,0
-0.019,0.376,2.605,0
-0.368,0.679,2.782,0
-0.981,1.155,2.288,1
-0.78,1.333,1.407,0
-0.05,1.696,-0.056,0
0.616,1.929,-0.549,0
1.421,1.738,0.013,0
1.276,1.382,0.992,0
0.545,0.347,3.319,0
0.049,-0.095,4.583,0
-0.722,-0.73,5.095,0
-0.998,-1.087,4.957,0
-1.135,-1.232,3.973,0
-0.952,-1.109,3.046,0
-0.481,-0.88,1.109,0
-0.199,-0.732,-0.288,0
-0.053,-0.698,-1.524,0
-0.069,-0.829,-1.814,0
0.018,-1.053,-1.614,0
0.047,-1.203,-1.262,0
-0.067,-1.583,-0.389,0
-0.158,-1.784,0.075,0
-0.244,-1.961,0.437,0
-0.11,-1.907,0.285,0
0.184,-1.623,-0.413,0
0.377,-1.424,-1.073,0
0.586,-1.157,-1.92,0
0.664,-1.027,-2.223,0
0.605,-0.768,-2.559,0
0.572,-0.612,-2.525,0
0.646,-0.464,-2.515,0
0.597,-0.365,-2.443,0
0.35,-0.388,-1.869,0
0.317,-0.385,-1.353,0
0.4,-0.421,-1.129,0
0.45,-0.342,-1.205,0
0.557,-0.168,-1.212,0
0.694,-0.101,-1.303,0
0.798,0.009,-1.444,0
0.728,0.064,-1.293,0
0.671,0.058,-1.152,0
0.715,0.027,-1.273,0
0.528,0.028,-0.757,0
0.593,0.011,-0.276,0
0.672,0.121,0.248,0
0.617,0.163,0.323,0
0.57,0.239,0.684,0
0.398,0.352,0.573,0
0.301,0.527,-0.167,0
0.213,0.69,-0.234,0
0.206,0.734,0.888,0
0.333,0.766,1.572,0
0.272,0.836,2.017,0
0.32,0.656,2.424,0
0.535,0.395,3.022,0
0.467,0.51,3.324,0
0.044,0.893,2.557,0
-0.023,0.945,1.267,0
-0.131,1.098,-0.639,1
0.034,1.045,-1.357,0
0.397,1.115,-1.295,0
0.18,0.948,-0.27,0
0.064,0.067,1.798,0
-0.014,-0.401,2.892,0
-0.213,-1.186,4.83,0
-0.287,-1.446,5.675,0
-0.555,-1.537,5.339,0
-0.533,-1.366,3.681,0
-0.333,-0.834,0.451,0
-0.111,-0.573,-1.061,0
0.113,-0.254,-2.33,0
0,-0.045,-2.727,0
-0.262,-0.057,-2.38,0
-0.196,-0.134,-1.725,0
0.019,-0.3,-0.37,0
0.037,-0.49,0.32,0
-0.014,-0.941,0.854,0
-0.12,-1.095,0.817,0
-0.317,-1.329,0.8,0
-0.291,-1.462,0.703,0
-0.07,-1.316,0.111,0
0.067,-1.124,-0.578,0
0.164,-0.861,-1.571,0
0.327,-0.751,-2.168,0
0.37,-0.525,-2.746,0
0.321,-0.334,-2.74,0
0.426,-0.096,-2.602,0
0.552,0.117,-2.434,0
0.482,0.333,-2.367,0
0.505,0.417,-2.599,0
0.343,0.388,-2.68,0
0.347,0.38,-2.677,0
0.189,0.292,-1.132,0
0.179,0.347,-0.703,0
0.085,0.275,-0.343,0
0.013,0.271,-0.262,0
-0.02,0.236,-0.106,0
-0.016,0.169,0.011,0
0.039,0.04,-0.002,0
0.081,-0.054,0.142,0
0.086,-0.054,0.142,0
0.154,-0.037,0.834,0
-0.34,-0.018,1.322,0
-0.492,-0.099,1.5,0
-0.327,-0.004,1.788,0
-0.097,0.084,1.826,0
-0.047,0.1,1.487,0
-0.051,0.46,1.114,0
-0.196,1.052,0.649,0
0.097,1.226,0.104,0
0.782,1.677,-0.515,0
1.123,1.846,-0.561,0
1.167,1.481,0.664,1
0.626,0.864,2.406,0
-0.087,0.171,3.957,0
-0.534,-0.18,4.697,0
-0.429,-0.569,5.297,0
-0.285,-0.685,5.25,0
-0.372,-0.792,4.453,0
-0.333,-0.758,4.443,0
-0.608,-0.714,2.456,0
-0.493,-0.666,1.533,0
-0.255,-0.637,0.109,0
-0.123,-0.525,-0.741,0
0.052,-0.478,-1.406,0
0.361,-0.469,-1.903,0
0.474,-0.432,-1.982,0
0.433,-0.556,-1.565,0
0.394,-0.881,-0.529,0
0.362,-1.011,-0.104,0
0.277,-1.194,-0.22,0
0.17,-1.274,-0.641,0
-0.014,-1.303,-1.204,0
0.021,-1.186,-1.619,0
0.259,-0.8,-2.302,0
0.358,-0.555,-2.578,0
0.362,-0.374,-2.714,0
0.23,-0.276,-2.581,0
0.14,-0.151,-1.886,0
0.113,-0.15,-1.575,0
0.005,-0.079,-1.607,0
-0.115,-0.12,-1.817,0
-0.192,-0.217,-2.092,0
-0.036,-0.088,-2.199,0
0.197,0.029,-2.21,0
0.26,0.005,-2.141,0
0.255,-0.002,-2.139,0
0.323,0.005,-1.599,0
0.444,0.048,-0.936,0
0.563,0.076,-0.525,0
0.659,0.23,0.09,0
0.852,0.325,0.29,0
1.051,0.483,0.457,0
1.204,0.645,0.795,0
1.202,0.638,0.797,0
0.718,0.727,1.661,0
0.103,0.451,2.069,0
-0.133,0.37,1.961,0
-0.175,0.388,1.633,0
-0.112,0.388,1.39,0
-0.005,0.405,1.089,0
0.028,0.545,1.188,0
-0.491,1.041,1.121,0
-0.551,1.218,0.822,0
-0.475,1.784,0.221,1
-0.355,1.867,-0.404,0
0.035,1.162,-0.551,0
-0.107,0.552,0.973,0
0.073,-0.22,3.953,0
-0.105,-0.702,5.893,0
-0.269,-1.302,7.208,0
-0.393,-1.615,6.958,0
-0.342,-1.536,4.555,0
-0.307,-1.311,2.466,0
-0.178,-0.828,-0.791,0
-0.109,-0.723,-2.293,0
-0.248,-0.68,-3.601,0
-0.539,-0.662,-3.151,0
-0.509,-0.733,-1.452,0
-0.273,-0.78,-0.36,0
0.045,-0.867,0.231,0
0.087,-1.063,0.456,0
0.188,-1.2,0.294,0
0.112,-1.213,-0.032,0
0.045,-1.292,-0.838,0
0.115,-1.2,-1.541,0
0.179,-1.121,-2.48,0
0.015,-1.089,-2.934,0
0.058,-0.98,-2.651,0
0.004,-0.894,-1.912,0
-0.066,-0.694,-0.944,0
-0.271,-0.641,-0.512,0
-0.642,-0.632,-0.012,0
-0.67,-0.549,0.008,0
-0.68,-0.553,0.009,0
-0.225,0.125,-1.328,0
0.043,0.424,-1.935,0
0.405,0.671,-2.124,0
0.491,0.962,-2.239,0
0.397,0.891,-2.005,0
-0.038,0.53,-1.364,0
-0.38,0.268,-0.697,0
-0.814,0.019,0.275,0
-0.776,-0.006,0.719,0
-0.443,0.069,1.291,0
-0.349,0.188,1.75,0
-0.209,0.348,1.624,0
-0.092,0.36,1.125,0
-0.118,0.358,0.476,0
-0.032,0.304,0.446,0
0.014,0.144,1.254,0
0.047,0.036,1.839,0
-0.003,-0.017,2.384,0
0.115,0.038,2.481,0
0.189,0.36,2.147,0
-0.334,1.012,1.52,0
-0.122,1.28,0.258,0
0.713,1.35,-0.543,0
1.742,1.798,-0.974,1
2.276,1.788,-0.393,0
2.091,1.067,1.371,0
0.962,0.194,2.897,0
-0.259,-0.812,3.526,0
-0.57,-1.266,3.752,0
-0.546,-1.501,4.077,0
-0.437,-1.406,3.921,0
-0.271,-1.099,2.823,0
-0.302,-1.054,2.031,0
-0.246,-0.999,0.552,0
-0.195,-0.984,-0.288,0
-0.066,-0.848,-1.365,0
0.134,-0.797,-2.024,0
0.254,-0.83,-2.169,0
0.211,-0.97,-1.5,0
0.151,-1.168,-0.3,0
0.123,-1.23,0.274,0
-0.023,-1.256,0.412,0
-0.156,-1.26,0.042,0
-0.001,-1.043,-1.074,0
0.153,-0.814,-1.718,0
0.391,-0.498,-2.023,0
0.531,-0.323,-2.106,0
0.655,-0.032,-2.169,0
0.502,-0.014,-2.058,0
0.236,-0.014,-1.904,0
0.075,-0.021,-1.703,0
0.018,-0.022,-1.38,0
0.001,0.021,-1.547,0
-0.022,0.045,-1.828,0
0,0.022,-1.968,0
-0.096,-0.044,-1.926,0
-0.172,-0.047,-1.5,0
-0.033,-0.039,-0.697,0
0.078,0.084,-0.345,0
0.112,0.104,0.05,0
-0.021,-0.026,0.021,0
-0.294,-0.159,0.007,0
-0.355,-0.205,-0.121,0
-0.444,-0.056,-0.277,0
-0.443,0.091,-0.473,0
-0.45,0.072,-0.721,0
-0.318,0.183,-0.652,0
-0.279,0.347,0.314,0
-0.318,0.14,1.051,0
-0.344,-0.074,1.776,0
-0.382,0.019,2.063,0
-0.213,-0.049,2.698,0
-0.044,-0.071,3.208,0
0.051,0.391,3.535,0
-0.108,1.073,3.143,0
-0.48,1.407,0.876,1
-0.558,1.239,-0.441,0
-0.714,1.129,-1.597,0
-0.766,0.933,-1.24,0
-0.664,0.416,0.716,0
-0.659,0.102,2.064,0
-0.578,-0.4,3.089,0
-0.221,-0.752,3.842,0
0.238,-0.989,4.538,0
0.252,-0.972,4.609,0
0.326,-0.879,3.006,0
0.415,-0.599,1.115,0
0.254,-0.368,-1.485,0
0.289,-0.357,-2.603,0
-0.222,-0.359,-3.18,0
-0.614,-0.47,-2.447,0
-0.898,-0.801,-1.183,0
-1.034,-0.986,-0.634,0
-1.098,-1.308,0.114,0
-1.026,-1.448,0.665,0
-0.807,-1.434,0.911,0
-0.657,-1.365,0.706,0
-0.312,-1.146,-0.12,0
-0.143,-0.998,-0.817,0
-0.018,-0.806,-1.595,0
0.018,-0.668,-2.072,0
0.066,-0.532,-2.425,0
0.141,-0.398,-2.56,0
0.193,-0.188,-2.748,0
0.27,-0.054,-2.775,0
0.276,-0.042,-2.779,0
0.071,0.014,-1.503,0
-0.123,0.07,-1.156,0
-0.227,0.096,-0.934,0
-0.201,0.018,-0.551,0
-0.087,0.201,-0.342,0
-0.013,0.347,-0.253,0
-0.075,0.35,-0.374,0
-0.278,0.317,-0.651,0
-0.364,0.218,-0.78,0
-0.283,0.26,-0.75,0
-0.039,0.337,-0.499,0
0.101,0.374,0.282,0
0.06,0.284,0.895,0
-0.232,0.041,1.291,0
-0.522,-0.102,1.315,0
-0.4,0.094,1.264,0
-0.088,0.32,1.365,0
0.06,0.498,1.418,0
0.131,0.511,1.341,0
0.3,0.561,1.502,0
0.572,0.767,1.853,0
0.314,1.199,2.051,0
-0.155,1.429,1.529,0
-0.242,1.208,0.048,1
0,1.182,-0.453,0
0.402,1.258,-0.061,0
0.68,1.078,0.678,0
0.728,0.524,2.624,0
0.444,0.192,3.687,0
0.192,-0.386,4.484,0
0.199,-0.734,4.61,0
0.145,-0.921,4.65,0
0.052,-0.973,4.43,0
-0.257,-0.924,3.05,0
-0.359,-0.838,1.822,0
-0.227,-0.743,-0.221,0
-0.08,-0.675,-1.06,0
-0.041,-0.665,-1.664,0
0.045,-0.669,-1.652,0
0.189,-0.728,-1.108,0
0.279,-0.811,-0.547,0
0.214,-0.982,-0.155,0
0.23,-1.02,-0.163,0
0.17,-1.077,-0.478,0
0.177,-1.076,-0.478,0
0.004,-1.135,-1.174,0
-0.115,-1.105,-1.177,0
-0.214,-0.964,-1.149,0
-0.15,-0.818,-1.368,0
-0.026,-0.567,-1.665,0
0.012,-0.428,-1.807,0
0.004,-0.275,-1.981,0
-0.068,-0.245,-2.057,0
-0.114,-0.29,-2.155,0
-0.098,-0.29,-2.21,0
0.036,-0.251,-2.394,0
-0.025,-0.275,-2.553,0
-0.19,-0.256,-2.565,0
-0.417,-0.308,-2.326,0
-0.429,-0.317,-2.324,0
-0.221,-0.037,-1.437,0
-0.192,0.003,-1.036,0
-0.254,-0.038,-0.996,0
-0.356,-0.004,-0.998,0
-0.134,0.089,-0.802,0
-0.006,0.161,-0.378,0
-0.168,0.223,0.102,0
-0.16,0.231,0.1,0
-0.515,0.17,0.662,0
-0.782,0.101,0.605,0
-0.79,0.17,0.631,0
-0.805,0.144,0.639,0
-0.199,0.735,1.131,0
-0.068,0.799,1.542,0
0.027,0.791,2.379,0
0.182,0.666,3.081,0
-0.124,0.6,3.07,0
-1.418,0.72,2.085,0
-2.011,0.699,0.868,1
-1.952,0.518,-0.489,0
-1.522,0.739,-1.1,0
-0.286,1.03,-0.931,0
0.297,0.992,0.531,0
0.26,0.386,2.975,0
-0.078,-0.255,4.077,0
-0.771,-1.315,5.111,0
-1.221,-1.962,5.284,0
-1.728,-2.179,4.594,0
-1.518,-1.918,3.348,0
-0.976,-1.192,0.698,0
-0.784,-0.845,-0.529,0
-0.26,-0.369,-2.067,0
0.014,-0.019,-2.422,0
0.202,0.283,-2.089,0
0.297,0.166,-1.277,0
0.428,-0.314,0.126,0
0.345,-0.593,0.867,0
0.253,-1.033,1.62,0
0.107,-1.205,1.574,0
-0.199,-1.381,0.872,0
-0.29,-1.415,0.021,0
-0.284,-1.279,-1.016,0
-0.254,-1.112,-1.763,0
-0.295,-0.962,-2.546,0
-0.185,-0.701,-2.965,0
0.026,-0.304,-3.147,0
0.091,-0.119,-3.083,0
0.001,0.198,-2.786,0
-0.093,0.279,-2.447,0
-0.158,0.334,-1.9,0
-0.275,0.348,-1.447,0
-0.445,0.228,-1.017,0
-0.594,0.18,-0.806,0
-0.571,0.206,-0.64,0
-0.7,0.168,-0.605,0
-0.715,0.164,-0.604,0
-0.964,0.144,-0.058,0
-0.909,0.29,-0.099,0
-0.889,0.343,-0.296,0
-0.798,0.37,-0.565,0
-0.76,0.33,-0.64,0
-0.853,0.326,0.184,0
-0.719,0.337,0.767,0
-0.825,0.268,1.681,0
-0.941,0.337,1.823,0
-0.879,0.339,1.421,0
-0.866,0.268,1.063,0
-0.861,0.278,1.02,0
-0.748,0.356,1.521,0
-0.754,0.495,1.715,0
-1.164,0.873,1.373,0
-1.432,1.344,0.184,0
-1.248,1.386,-0.493,0
-0.915,1.496,-1.048,1
-0.606,1.484,-0.732,0
0.04,1.043,1.094,0
0.048,0.466,3.047,0
-0.349,-0.234,5.6,0
-0.8,-0.641,6.84,0
-1.313,-1.087,6.854,0
-1.641,-1.463,5.927,0
-1.649,-1.429,3.716,0
-1.411,-1.149,2.367,0
-1.122,-0.718,0.143,0
-1.06,-0.759,-0.688,0
-0.995,-0.771,-1.299,0
-1.076,-0.784,-1.176,0
-1.023,-0.998,-0.539,0
-0.874,-1.149,0.089,0
-0.643,-1.252,0.515,0
-0.46,-1.291,0.442,0
-0.143,-1.158,-0.335,0
0.062,-1.079,-1.012,0
0.358,-0.915,-1.971,0
0.315,-0.892,-2.202,0
0.059,-0.95,-2.033,0
-0.143,-0.937,-1.828,0
-0.419,-0.924,-1.703,0
-0.51,-0.885,-1.965,0
-0.679,-0.727,-2.31,0
-0.601,-0.588,-2.319,0
-0.29,-0.34,-2.186,0
-0.305,-0.213,-2.068,0
-0.306,-0.211,-2.068,0
-0.093,0.045,-2.102,0
-0.191,0.008,-2.385,0
-0.313,-0.081,-2.174,0
-0.363,-0.206,-1.873,0
-0.531,-0.258,-1.549,0
-0.698,-0.389,-0.677,0
-0.743,-0.385,-0.332,0
-0.773,-0.388,-0.401,0
-0.599,-0.199,-0.589,0
-0.599,-0.204,-0.587,0
-0.317,0.211,-1.224,0
-0.313,0.381,-1.288,0
-0.257,0.542,-1.22,0
-0.377,0.696,-0.821,0
-0.459,0.705,-0.434,0
-0.627,0.465,0.292,0
-0.691,0.429,0.632,0
-0.51,0.422,0.745,0
-0.292,0.516,1.012,0
0.009,0.664,1.518,0
0.223,0.693,1.838,0
0.189,0.689,2.293,0
-0.202,0.706,2.789,0
-0.987,1.058,2.741,1
-1.273,1.19,1.848,0
-1.285,1.266,0.536,0
-0.775,1.448,0.343,0
-0.256,1.513,0.887,0
-0.209,1.071,2.381,0
-0.433,0.354,4.125,0
-1.027,-0.177,4.537,0
-1.272,-1.115,4.554,0
-1.08,-1.46,4.087,0
-0.996,-1.303,2.223,0
-0.956,-1.015,0.984,0
-0.734,-0.889,-0.672,0
-0.568,-0.591,-2.047,0
-0.784,-0.372,-2.532,0
-1,-0.416,-2.039,0
-1.536,-0.843,-0.626,0
-1.796,-1.069,-0.102,0
-2.034,-1.523,0.534,0
-1.877,-1.69,0.985,0
-1.301,-1.563,1.171,0
-0.981,-1.429,1.048,0
-0.618,-1.374,0.757,0
-0.508,-1.303,0.333,0
-0.506,-1.287,0.328,0
-0.51,-1.165,-0.79,0
-0.606,-1.14,-1.273,0
-0.655,-1.035,-1.644,0
-0.768,-0.908,-2.379,0
-0.927,-0.887,-2.737,0
-1.148,-0.845,-2.731,0
-1.141,-0.845,-2.731,0
-0.837,-0.543,-2.24,0
-0.624,-0.162,-2.328,0
-0.482,0.158,-2.657,0
-0.474,0.347,-2.752,0
-0.303,0.601,-2.675,0
-0.16,0.692,-2.499,0
-0.294,0.738,-1.62,0
-0.617,0.527,-0.798,0
-1.187,0.198,0.684,0
-1.48,0.113,1.647,0
-1.646,0.033,2.342,0
-1.668,0.01,2.465,0
-1.542,0.111,2.411,0
-1.477,0.141,2.278,0
-1.197,0.398,1.772,0
-1.038,0.493,1.566,0
-0.642,0.634,1.702,0
-0.455,0.765,2.098,0
-0.459,0.81,2.951,0
-0.356,0.814,3.242,0
-0.384,0.719,2.802,0
-0.565,0.649,2.315,0
-1.001,0.872,1.507,1
-0.975,0.995,1.073,0
-0.375,1.242,0.312,0
0.167,1.44,-0.01,0
0.877,1.394,1.187,0
0.806,0.773,2.724,0
0.187,-0.11,4.531,0
-0.781,-0.616,5.314,0
-1.608,-1.055,4.489,0
-1.662,-1.068,3.23,0
-1.437,-0.812,0.846,0
-1.215,-0.648,-0.289,0
-1.16,-0.538,-1.515,0
-1.349,-0.662,-1.807,0
-1.628,-1.143,-1.63,0
-1.939,-1.425,-1.508,0
-1.803,-1.727,-0.958,0
-1.776,-1.72,-0.959,0
-1.124,-1.873,-0.329,0
-0.791,-1.772,0.087,0
-0.123,-1.398,0.709,0
0.127,-1.203,0.835,0
0.175,-1.035,0.54,0
0.013,-0.96,0.062,0
-0.222,-1.053,-0.541,0
-0.297,-1.033,-1.188,0
-0.234,-0.908,-2.114,0
-0.212,-0.922,-2.108,0
-0.011,-0.635,-3.169,0
-0.041,-0.581,-3.168,0
-0.066,-0.543,-2.894,0
-0.035,-0.568,-2.386,0
-0.006,-0.454,-1.27,0
-0.071,-0.423,-0.563,0
-0.297,-0.486,-0.141,0
-0.381,-0.53,-0.315,0
-0.499,-0.587,-1.06,0
-0.452,-0.533,-1.597,0
-0.035,-0.249,-2.407,0
0.215,-0.084,-2.593,0
0.446,0.017,-2.52,0
0.444,0.123,-1.886,0
0.319,0.157,-0.374,0
0.111,0.124,0.511,0
-0.668,-0.112,1.151,0
-0.807,-0.239,1.156,0
-0.663,0,0.047,0
-0.524,0.145,-0.73,0
0.194,0.555,-1.421,0
0.786,0.978,-1.091,0
1.122,1.4,0.031,0
0.907,1.324,1.349,0
0.34,0.746,2.87,0
-0.042,0.436,3.431,0
-0.07,0.422,3.435,0
-1.159,0.088,3.242,0
-1.534,0.885,0.476,1
-1.438,1.134,-0.614,0
-0.341,1.633,-2.109,0
0.49,1.947,-2.133,0
1.043,1.649,0.219,0
1.2,1.087,2.464,0
0.859,0.309,4.836,0
0.297,-0.43,5.596,0
-0.69,-1.779,5.541,0
-1.046,-2.156,4.421,0
-1.613,-2.218,2.169,0
-1.56,-1.823,0.351,0
-1.247,-0.992,-1.758,0
-0.773,-0.452,-2.859,0
-0.464,0.147,-2.823,0
-0.483,0.264,-1.783,0
-0.658,-0.025,0.36,0
-0.953,-0.27,1.106,0
-1.378,-0.986,1.837,0
-1.542,-1.308,2.051,0
-1.702,-1.632,1.792,0
-1.54,-1.672,1.192,0
-1.117,-1.458,-0.077,0
-0.77,-1.212,-1.042,0
-0.402,-0.841,-2.176,0
-0.31,-0.65,-2.583,0
-0.362,-0.441,-2.887,0
-0.424,-0.333,-2.86,0
-0.656,-0.293,-2.512,0
-0.893,-0.289,-2.25,0
-1.211,-0.39,-2.049,0
-1.286,-0.378,-2.162,0
-1.12,-0.076,-2.062,0
-0.917,0.106,-2.123,0
-0.728,0.373,-2.109,0
-0.599,0.492,-2.042,0
-0.461,0.675,-1.716,0
-0.635,0.748,-1.152,0
-1.019,0.586,-0.065,0
-1.219,0.457,0.506,0
-1.519,0.224,1.515,0
-1.585,0.114,2.071,0
-1.574,0.046,2.276,0
-1.397,0.168,2.318,0
-0.999,0.463,1.971,0
-0.905,0.486,1.628,0
-0.674,0.606,0.885,0
-0.506,0.787,0.686,0
-0.501,0.767,0.692,0
-0.602,0.652,1.205,0
-0.607,0.632,1.212,0
-1.205,0.71,1.614,0
-1.579,1.235,0.968,0
-1.333,1.379,0.05,0
-0.322,1.763,-1.306,0
0.398,1.884,-1.469,0
1.203,1.612,-0.172,1
1.091,0.877,2.342,0
0.515,-0.111,4.908,0
-0.354,-0.91,6.601,0
-1.121,-1.77,7.107,0
-1.425,-1.896,6.31,0
-1.636,-1.567,3.731,0
-1.462,-1.293,1.862,0
-0.992,-0.684,-0.849,0
-0.974,-0.643,-1.801,0
-0.942,-0.814,-2.044,0
-1.075,-0.929,-1.723,0
-1.128,-1.25,-0.705,0
-1.086,-1.451,-0.09,0
-0.964,-1.495,0.293,0
-0.842,-1.448,0.181,0
-0.494,-1.321,-0.45,0
-0.365,-1.188,-0.948,0
-0.216,-1.011,-1.458,0
-0.134,-0.878,-1.557,0
-0.108,-0.759,-1.648,0
-0.166,-0.66,-1.557,0
-0.177,-0.665,-1.555,0
-0.57,-0.696,-1.736,0
-0.724,-0.653,-2.048,0
-0.696,-0.535,-1.877,0
-0.736,-0.523,-1.399,0
-0.69,-0.387,-1.287,0
-0.765,-0.326,-1.139,0
-0.738,-0.341,-1.205,0
-0.8,-0.369,-1.613,0
-0.84,-0.404,-1.568,0
-0.497,-0.229,-1.38,0
-0.301,-0.128,-1.35,0
-0.235,-0.05,-0.74,0
-0.156,0.002,-0.475,0
-0.19,-0.021,-0.303,0
-0.31,-0.028,-0.002,0
-0.419,-0.037,0.414,0
-0.671,-0.132,0.601,0
-1.011,-0.251,0.77,0
-0.948,-0.235,0.462,0
-0.877,-0.06,-0.428,0
-0.849,0.066,-0.609,0
-0.584,0.263,0.093,0
-0.411,0.352,0.69,0
-0.28,0.447,1.738,0
-0.195,0.455,2.251,0
-0.244,0.287,2.074,0
-0.34,0.232,1.85,0
-0.959,0.354,1.483,0
-1.526,0.589,0.898,0
-1.881,0.636,-0.714,1
-1.748,0.606,-1.384,0
-0.697,0.862,-1.632,0
0.041,0.99,-0.945,0
0.104,0.508,1.745,0
0.125,-0.092,3.622,0
-0.165,-0.809,6.028,0
-0.579,-1.355,6.791,0
-1.093,-1.998,6.232,0
-1.365,-1.904,4.677,0
-1.183,-1.38,1.059,0
-0.956,-1.041,-0.892,0
-0.709,-0.668,-2.545,0
-0.704,-0.491,-3.003,0
-0.804,-0.207,-2.632,0
-0.799,-0.163,-2.182,0
-0.766,-0.392,-1.346,0
-0.748,-0.626,-0.985,0
-0.721,-0.95,-0.395,0
-0.633,-1.07,-0.176,0
-0.494,-1.159,-0.19,0
-0.556,-1.115,-0.387,0
-0.625,-1.123,-0.607,0
-0.69,-1.06,-0.848,0
-0.655,-0.852,-1.372,0
-0.643,-0.739,-1.788,0
-0.625,-0.479,-2.415,0
-0.618,-0.297,-2.603,0
-0.682,-0.103,-2.673,0
-0.589,0.043,-2.621,0
-0.467,0.401,-2.212,0
-0.552,0.522,-1.882,0
-0.746,0.571,-1.765,0
-0.847,0.543,-1.67,0
-1.004,0.391,-1.202,0
-1.1,0.443,-0.804,0
-1.122,0.459,-0.807,0
-1.311,0.364,-0.155,0
-1.326,0.381,-0.159,0
-1.393,0.275,-0.122,0
-1.252,0.302,0.408,0
-1.127,0.275,0.812,0
-0.973,0.359,1.193,0
-0.874,0.424,1.388,0
-1.071,0.345,1.531,0
-1.161,0.386,1.548,0
-0.666,0.692,2.293,0
-0.574,0.658,2.638,0
-0.719,0.429,2.686,0
-0.767,0.307,2.494,0
-0.687,0.399,2.244,0
-0.676,0.613,2.079,0
-1.114,1.185,1.679,1
-1.335,1.318,0.938,0
-1.107,1.397,-0.309,0
-0.75,1.523,-0.692,0
-0.02,1.507,-0.184,0
0.414,1.115,1.146,0
0.384,0.189,3.539,0
-0.278,-0.462,5.068,0
-1.179,-1.149,6.132,0
-1.516,-1.307,5.402,0
-1.986,-1.283,2.848,0
-1.888,-1.068,1.477,0
-1.749,-0.651,-0.467,0
-1.789,-0.609,-1.1,0
-1.773,-0.648,-0.929,0
-1.771,-0.793,-0.296,0
-1.681,-1.094,0.331,0
-1.679,-1.27,0.282,0
-1.788,-1.591,0.341,0
-1.8,-1.731,0.268,0
-1.728,-1.703,-0.206,0
-1.405,-1.486,-0.371,0
-0.804,-1.043,-0.624,0
-0.45,-0.714,-0.833,0
-0.406,-0.475,-0.851,0
-0.523,-0.454,-0.847,0
-0.948,-0.44,-1.087,0
-1.18,-0.501,-1.303,0
-1.18,-0.544,-1.799,0
-1.169,-0.553,-1.797,0
-0.933,-0.339,-2.537,0
-0.784,-0.256,-2.616,0
-0.569,-0.097,-2.641,0
-0.438,0.048,-2.689,0
-0.384,0.15,-2.523,0
-0.418,0.171,-2.25,0
-0.731,-0.015,-1.802,0
-1.096,-0.205,-1.572,0
-1.614,-0.523,-1.015,0
-1.832,-0.669,-0.592,0
-1.519,-0.562,-0.294,0
-1.077,-0.321,-0.283,0
-0.517,0.068,-0.437,0
-0.22,0.306,-0.688,0
-0.293,0.463,-0.392,0
-0.452,0.483,-0.09,0
-0.597,0.586,0.273,0
-0.746,0.579,0.353,0
-0.737,0.574,0.354,0
-1.293,0.303,1.061,0
-1.273,0.315,2.047,0
-1.06,0.43,2.752,0
-0.78,0.503,3.184,0
-0.773,0.425,2.987,0
-0.691,0.399,2.433,0
-0.964,0.608,2.192,1
-0.942,0.565,2.205,0
-2.16,1.073,0.121,0
-1.661,1.305,-0.936,0
-1.174,1.379,-0.808,0
-0.485,1.048,1.098,0
-0.304,0.589,2.95,0
-0.511,-0.276,5.392,0
-0.846,-0.703,6.231,0
-1.285,-1.509,6.81,0
-1.452,-1.683,5.722,0
-1.42,-1.225,2.267,0
-1.287,-0.775,-0.056,0
-1.21,-0.482,-2.761,0
-1.161,-0.321,-3.529,0
-1.142,-0.18,-3.574,0
-1.164,-0.296,-2.846,0
-0.999,-0.524,-1.081,0
-0.88,-0.821,-0.295,0
-0.9,-1.341,0.241,0
-1.031,-1.575,0.423,0
-0.992,-1.847,0.835,0
-1.046,-1.909,0.688,0
-0.957,-1.813,0.09,0
-0.839,-1.716,-0.181,0
-0.66,-1.49,-0.646,0
-0.679,-1.364,-1.129,0
-0.724,-1.136,-1.702,0
-0.779,-0.973,-1.9,0
-0.713,-0.646,-2.248,0
-0.564,-0.466,-2.471,0
-0.428,-0.058,-2.441,0
-0.537,0.055,-2.309,0
-0.811,0.094,-2.423,0
-0.837,0.15,-2.497,0
-0.779,0.133,-2.737,0
-0.873,0.203,-2.294,0
-0.855,0.216,-1.146,0
-0.96,0.222,-0.587,0
-1.186,0.194,-0.392,0
-1.128,0.185,-0.491,0
-1.109,0.304,0.035,0
-1.018,0.285,0.559,0
-0.835,0.369,1.399,0
-0.926,0.484,1.781,0
-1.091,0.431,2.321,0
-1.024,0.386,2.685,0
-1.175,0.292,2.466,0
-1.131,0.244,1.981,0
-0.763,0.275,1.358,0
-0.569,0.261,1.195,0
-0.115,0.546,1.479,0
0.066,0.679,1.636,0
0.056,0.659,1.644,0
-0.682,1.22,1.311,0
-0.927,0.979,0.381,1
-0.818,0.815,0.213,0
-0.121,0.68,0.496,0
0.15,0.525,1.207,0
0.081,-0.119,3.118,0
-0.476,-0.395,3.896,0
-0.492,-0.377,3.892,0
-1.125,-0.839,3.797,0
-1.115,-0.783,1.999,0
-1.053,-0.629,1.052,0
-0.974,-0.555,0.163,0
-0.949,-0.637,0.026,0
-1.115,-0.716,0.013,0
-1.202,-0.857,-0.161,0
-1.054,-1.136,-0.462,0
-0.952,-1.295,-0.464,0
-0.882,-1.574,-0.462,0
-0.945,-1.686,-0.339,0
-1.019,-1.786,-0.046,0
-1.1,-1.822,0.02,0
-1.278,-1.828,-0.057,0
-1.198,-1.69,-0.236,0
-0.869,-1.239,-0.764,0
-0.657,-0.912,-1.17,0
-0.5,-0.51,-1.892,0
-0.451,-0.398,-2.181,0
-0.341,-0.096,-2.628,0
-0.52,-0.091,-2.823,0
-0.6,-0.027,-2.939,0
-0.674,-0.02,-2.564,0
-0.687,-0.015,-2.565,0
-0.808,0.024,-1.57,0
-0.741,0.07,-1.133,0
-0.663,0.152,-1.073,0
-0.571,0.147,-1.115,0
-0.646,0.116,-1.115,0
-0.647,0.125,-1.117,0
-0.809,-0.116,-0.556,0
-0.848,-0.172,-0.467,0
-0.874,-0.156,-0.408,0
-0.856,-0.161,0.001,0
-0.741,-0.039,0.156,0
-0.696,0.197,-0.124,0
-0.6,0.365,-0.342,0
-0.467,0.662,-0.593,0
-0.398,0.771,-0.523,0
-0.478,0.812,0.151,0
-0.495,0.662,0.635,0
-0.499,0.639,0.643,0
-0.402,0.388,1.307,0
-0.019,0.381,1.489,0
-0.014,0.254,1.804,0
0.288,0.069,2.539,0
0.569,0.185,3.262,0
0.46,0.69,3.601,1
-0.245,0.956,2.497,0
-0.931,1.118,-0.113,0
-1.023,1.117,-0.988,0
-0.397,1.301,-1.168,0
-0.161,1.135,-0.182,0
-0.041,0.538,2.667,0
-0.293,0.002,4.185,0
-0.507,-0.926,5.496,0
-0.773,-1.41,5.588,0
-1.024,-1.785,4.533,0
-1.042,-1.618,2.811,0
-0.88,-0.989,0.128,0
-0.568,-0.678,-1.352,0
-0.45,-0.211,-3.148,0
-0.396,-0.021,-3.612,0
-0.254,0.136,-3.3,0
-0.238,0.131,-2.73,0
-0.386,-0.265,-1.696,0
-0.445,-0.555,-1.164,0
-0.318,-0.851,-0.573,0
-0.194,-0.942,-0.371,0
-0.15,-1.078,0.006,0
-0.226,-1.109,0.323,0
-0.342,-1.28,0.654,0
-0.454,-1.268,0.576,0
-0.668,-1.285,-0.088,0
-0.715,-1.303,-0.713,0
-0.729,-1.13,-1.78,0
-0.698,-0.972,-2.169,0
-0.579,-0.697,-2.402,0
-0.52,-0.506,-2.448,0
-0.549,-0.318,-2.492,0
-0.524,-0.18,-2.49,0
-0.426,0.123,-2.526,0
-0.4,0.286,-2.437,0
-0.446,0.418,-1.853,0
-0.604,0.436,-1.315,0
-0.753,0.391,-0.4,0
-0.703,0.455,-0.012,0
-0.749,0.46,0.502,0
-0.799,0.435,0.826,0
-0.883,0.357,1.415,0
-0.839,0.274,1.576,0
-0.822,0.145,1.365,0
-0.789,0.137,0.928,0
-0.814,0.115,0.727,0
-0.775,0.137,1.013,0
-0.667,0.248,1.563,0
-0.654,0.295,1.828,0
-0.58,0.227,2.02,0
-0.55,0.288,1.924,0
-0.757,0.47,1.608,0
-1.038,0.792,1.219,0
-0.81,1.283,-0.206,0
-0.236,1.626,-1.195,0
0.779,2.3,-1.719,1
1.293,2.326,-0.995,0
1.412,1.405,2.328,0
1.008,0.679,4.229,0
-0.702,-0.537,7.245,0
-1.449,-1.184,7.898,0
-2.39,-1.867,7.302,0
-2.367,-1.944,6.109,0
-1.786,-1.652,3.365,0
-1.362,-1.236,1.978,0
-0.824,-0.891,0.009,0
-0.493,-0.831,-0.896,0
-0.356,-0.704,-2.187,0
-0.275,-0.769,-2.468,0
-0.292,-1.084,-2.293,0
-0.334,-1.256,-1.792,0
-0.357,-1.629,-0.616,0
-0.29,-1.738,-0.241,0
-0.087,-1.643,-0.26,0
0.071,-1.573,-0.488,0
0.139,-1.428,-1.093,0
0.156,-1.317,-1.678,0
0.224,-0.984,-2.6,0
0.29,-0.805,-2.987,0
0.45,-0.466,-3.566,0
0.669,-0.289,-3.607,0
0.676,-0.087,-2.839,0
0.592,-0.16,-2.097,0
0.513,-0.216,-1.351,0
0.312,-0.273,-1.178,0
0.101,-0.408,-1.229,0
0.064,-0.357,-1.306,0
0.054,-0.318,-1.457,0
0.132,-0.239,-1.576,0
0.132,-0.232,-1.579,0
0.284,0.099,-1.787,0
0.289,0.143,-1.436,0
0.249,0.094,-1.394,0
-0.134,-0.083,-0.719,0
-0.215,-0.146,-0.182,0
-0.325,-0.16,0.15,0
-0.401,-0.187,0.163,0
-0.326,-0.038,0.094,0
-0.241,0.131,0.015,0
-0.004,0.45,0.255,0
0.061,0.61,0.643,0
0.246,0.858,1.163,0
0.334,0.914,1.396,0
0.213,0.81,1.731,0
0.061,0.729,1.83,0
0.066,0.652,1.816,0
0.077,0.715,1.935,0
-0.004,1.159,1.911,0
-0.032,1.352,1.348,0
-0.036,1.466,0.223,1
0.207,1.48,-0.218,0
0.66,1.53,0.131,0
0.49,1.281,1.353,0
0.012,0.286,3.6,0
-0.136,-0.173,4.402,0
-0.705,-1.008,4.835,0
-0.743,-1.471,4.695,0
-0.728,-1.795,3.642,0
-0.718,-1.679,2.273,0
-0.698,-1.274,-0.103,0
-0.457,-1.039,-1.479,0
-0.131,-0.572,-2.717,0
0.062,-0.292,-2.756,0
0.473,-0.02,-1.729,0
0.533,0.07,-1.133,0
0.335,-0.114,-0.423,0
0.231,-0.304,-0.2,0
-0.122,-0.66,-0.051,0
-0.198,-0.762,-0.101,0
-0.151,-0.857,-0.116,0
-0.137,-0.791,-0.052,0
-0.173,-0.814,-0.012,0
-0.219,-0.754,-0.244,0
-0.329,-0.685,-0.526,0
-0.478,-0.684,-0.633,0
-0.623,-0.618,-1.13,0
-0.713,-0.55,-1.548,0
-0.559,-0.323,-1.9,0
-0.298,-0.064,-2.057,0
-0.096,0.166,-2.074,0
-0.229,0.13,-1.619,0
-0.433,0.089,-0.965,0
-0.536,0.09,-0.781,0
-0.551,0.079,-0.777,0
-0.384,0.318,-0.612,0
-0.312,0.432,-0.76,0
-0.308,0.462,-0.996,0
-0.241,0.537,-1.391,0
-0.174,0.595,-1.47,0
-0.207,0.65,-0.929,0
-0.301,0.547,-0.305,0
-0.596,0.228,0.774,0
-0.807,0.108,1.178,0
-1.018,-0.015,1.57,0
-0.809,0.001,1.73,0
-0.545,0.2,1.601,0
-0.349,0.2,1.204,0
0.045,0.412,1.137,0
0.251,0.411,1.342,0
0.251,0.438,1.787,0
0.007,0.59,1.932,0
-0.007,0.544,1.949,0
-0.543,1.259,0.685,0
0.412,1.468,-0.496,1
0.822,1.613,-0.642,0
1.572,1.391,0.483,0
1.531,0.98,1.96,0
0.675,0.057,3.986,0
0.233,-0.336,4.397,0
-0.482,-0.989,4.422,0
-0.6,-1.221,3.997,0
-0.887,-1.249,2.943,0
-0.963,-1.231,2.101,0
-0.837,-1.144,0.544,0
-0.826,-1.122,0.049,0
-0.791,-1.165,-0.234,0
-0.675,-1.146,-0.353,0
-0.426,-1.152,-0.55,0
-0.214,-1.177,-0.715,0
0.244,-1.029,-0.974,0
0.554,-0.905,-1.128,0
0.947,-0.827,-1.194,0
1.055,-0.762,-1.197,0
0.918,-0.733,-1.114,0
0.697,-0.808,-0.99,0
0.27,-0.904,-0.763,0
-0.043,-0.919,-0.624,0
-0.331,-0.888,-0.532,0
-0.338,-0.805,-0.685,0
-0.332,-0.818,-0.68,0
0.063,-0.211,-1.906,0
0.386,0.017,-2.492,0
0.389,0.09,-2.643,0
0.292,-0.041,-2.646,0
0.137,-0.156,-2.516,0
-0.196,-0.41,-1.895,0
-0.28,-0.513,-1.519,0
-0.273,-0.512,-1.52,0
-0.39,-0.563,-0.901,0
-0.101,-0.316,-0.537,0
0.044,-0.206,-0.481,0
0.438,0.123,-0.662,0
0.662,0.308,-0.66,0
0.856,0.433,-0.533,0
0.804,0.433,-0.371,0
0.541,0.397,-0.076,0
0.28,0.284,0.123,0
-0.184,0.127,0.534,0
-0.249,0.097,0.777,0
-0.128,0.255,1.066,0
-0.158,0.256,1.193,0
0.056,0.451,1.193,0
0.051,0.41,1.209,0
0.754,0.658,1.169,0
0.727,1.044,1.023,0
0.31,1.459,-0.145,0
0.204,1.327,-1.104,0
0.081,1.099,-1.64,0
0.079,1.088,-1.17,1
0.079,1.101,-1.176,0
-0.249,0.186,2.596,0
0.306,-0.187,4.348,0
0.256,-0.137,4.327,0
0.599,-1.132,6.302,0
0.604,-1.325,6.552,0
0.052,-1.45,5.141,0
-0.271,-1.375,3.136,0
-0.59,-1.13,-0.163,0
-0.473,-0.968,-1.767,0
-0.3,-0.537,-3.039,0
-0.085,-0.233,-3.249,0
-0.191,-0.13,-2.548,0
-0.363,-0.292,-1.688,0
-0.433,-0.794,-0.457,0
-0.434,-1.006,0.017,0
-0.597,-1.371,0.466,0
-0.692,-1.454,0.624,0
-0.773,-1.463,0.446,0
-0.729,-1.338,-0.047,0
-0.604,-0.967,-1.213,0
-0.503,-0.743,-1.833,0
-0.277,-0.491,-2.673,0
-0.191,-0.338,-2.756,0
0.057,-0.084,-2.131,0
0.205,0.113,-1.715,0
0.275,0.274,-1.346,0
0.372,0.466,-1.396,0
0.371,0.677,-1.68,0
0.354,0.703,-2.001,0
0.139,0.732,-2.163,0
-0.078,0.623,-1.922,0
-0.302,0.562,-1.34,0
-0.445,0.529,-0.862,0
-0.564,0.475,-0.548,0
-0.653,0.446,-0.585,0
-0.558,0.52,-0.39,0
-0.217,0.691,-0.165,0
0.226,0.954,0.449,0
0.241,0.948,0.903,0
0.233,0.949,0.903,0
-0.223,0.681,1.926,0
-0.399,0.458,2.425,0
-0.44,0.293,2.331,0
-0.432,0.357,1.433,0
-0.254,0.414,0.688,0
0.253,0.742,0.316,0
0.549,0.933,0.416,0
0.504,1.449,0.621,0
-0.009,1.745,0.484,0
-0.669,1.424,0.15,0
-0.443,1.198,0.334,0
0.042,1.093,1.274,1
0.33,0.891,1.892,0
0.575,0.241,3.182,0
0.29,-0.095,3.922,0
-0.246,-0.65,4.602,0
-0.373,-0.883,4.578,0
-0.549,-1.153,4.224,0
-0.562,-1.076,3.796,0
-0.69,-0.934,2.532,0
-0.644,-0.956,1.542,0
-0.48,-0.938,0.303,0
-0.241,-0.892,-0.211,0
0.002,-0.92,-0.809,0
0.127,-0.969,-1.106,0
0.443,-1.087,-1.368,0
0.44,-1.212,-1.222,0
0.481,-1.286,-0.822,0
0.353,-1.32,-0.735,0
0.073,-1.28,-0.686,0
-0.037,-1.224,-0.744,0
-0.271,-1.183,-0.974,0
-0.254,-1.007,-1.396,0
-0.203,-0.732,-2.068,0
-0.081,-0.597,-2.488,0
-0.057,-0.314,-2.807,0
-0.091,-0.279,-2.827,0
-0.022,-0.23,-2.856,0
-0.02,-0.233,-2.855,0
-0.28,-0.231,-2.455,0
-0.331,-0.297,-2.325,0
-0.406,-0.208,-2.065,0
-0.299,-0.123,-1.917,0
-0.022,-0.003,-1.786,0
0.105,0.141,-1.667,0
0.247,0.195,-1.081,0
0.258,0.228,-0.764,0
0.353,0.245,-0.54,0
0.368,0.231,-0.313,0
0.383,0.175,0.207,0
0.396,0.121,0.256,0
0.382,0.1,0.23,0
0.304,0.162,0.537,0
0.352,0.202,0.968,0
0.386,0.329,0.903,0
0.284,0.49,0.909,0
0.157,0.442,1.098,0
0.218,0.453,1.225,0
0.303,0.505,1.33,0
0.635,0.44,2.511,0
0.876,0.36,3.189,0
0.727,0.511,3.085,0
0.326,0.768,2.381,0
-0.063,1.074,0.522,1
0.059,1.204,-0.386,0
0.616,1.555,-1.495,0
0.876,1.491,-1.357,0
0.937,0.932,0.633,0
0.858,0.389,2.16,0
0.815,-0.219,4.083,0
0.424,-0.806,5.115,0
-0.112,-1.354,5.347,0
-0.711,-1.55,4.48,0
-1.149,-1.422,1.546,0
-1.025,-1.049,-0.207,0
-0.844,-0.56,-2.587,0
-0.731,-0.336,-3.43,0
-0.23,0.294,-3.621,0
-0.073,0.521,-2.939,0
-0.046,0.331,-1.167,0
-0.09,0.092,-0.454,0
-0.197,-0.355,0.258,0
-0.371,-0.749,0.499,0
-0.713,-1.256,0.556,0
-0.827,-1.341,0.556,0
-0.443,-1.283,0.017,0
-0.037,-0.968,-0.578,0
0.402,-0.488,-1.355,0
0.471,-0.388,-1.655,0
0.308,-0.229,-1.586,0
0.12,-0.216,-1.258,0
-0.258,-0.246,-0.802,0
-0.523,-0.271,-0.822,0
-0.738,-0.213,-1.321,0
-0.702,-0.161,-1.569,0
-0.517,-0.05,-1.649,0
-0.451,0.034,-1.389,0
-0.461,0.022,-1.385,0
-0.095,0.308,-1.073,0
-0.245,0.353,-0.691,0
-0.484,0.344,-0.414,0
-0.795,0.279,-0.081,0
-0.926,0.21,0.134,0
-0.897,0.068,0.311,0
-0.622,0.131,0.623,0
-0.255,0.12,1.631,0
-0.346,0.078,2.122,0
-0.522,0.03,2.113,0
-0.587,-0.037,1.696,0
-0.602,-0.014,0.753,0
-0.351,0.076,0.521,0
0.139,0.308,0.776,0
0.262,0.275,1.094,0
0.397,0.306,1.14,0
0.174,0.423,1.141,0
0.159,0.377,1.157,0
0.076,0.937,0.215,0
0.805,1.28,-0.476,1
1.07,1.45,-0.747,0
1.205,1.155,0.305,0
0.81,0.627,1.587,0
-0.003,-0.102,3.295,0
-0.341,-0.251,3.686,0
-0.561,-0.67,3.801,0
-0.474,-0.768,3.532,0
-0.445,-0.698,2.66,0
-0.435,-0.66,1.913,0
-0.323,-0.673,0.645,0
-0.262,-0.694,0.084,0
-0.168,-0.741,-0.787,0
0.003,-0.79,-1.046,0
0.307,-0.879,-0.902,0
0.384,-0.905,-0.463,0
0.342,-1.087,0.388,0
0.359,-1.213,0.621,0
0.142,-1.376,0.69,0
-0.056,-1.551,0.675,0
-0.379,-1.639,0.41,0
-0.416,-1.582,0.12,0
-0.257,-1.298,-0.741,0
-0.038,-0.998,-1.418,0
0.219,-0.565,-2.475,0
0.272,-0.498,-2.91,0
0.486,-0.256,-3.233,0
0.601,-0.107,-3.244,0
0.428,-0.114,-2.772,0
0.288,-0.123,-2.266,0
0.014,-0.112,-1.611,0
-0.087,-0.035,-1.428,0
-0.23,-0.013,-1.604,0
-0.261,0.061,-1.916,0
-0.112,0.19,-2.464,0
0.015,0.324,-2.589,0
0.015,0.321,-2.588,0
0.221,0.53,-1.707,0
-0.044,0.362,-0.789,0
-0.207,0.233,-0.406,0
-0.365,0.093,0.129,0
-0.415,0.05,0.512,0
-0.53,0.075,1.052,0
-0.42,0.162,1.083,0
-0.421,0.155,1.086,0
-0.075,0.474,0.995,0
0.2,0.655,1.079,0
0.334,0.795,1.24,0
0.499,0.883,1.813,0
0.656,0.886,2.2,0
0.655,0.975,2.522,0
0.478,1.174,2.253,0
0.388,1.457,0.962,0
0.411,1.479,0.363,0
0.444,1.433,-0.275,1
0.523,1.41,-0.399,0
0.477,1.091,0.691,0
0.49,0.742,1.683,0
0.642,0.215,3.308,0
0.81,-0.053,3.93,0
0.981,-0.701,4.495,0
0.83,-0.973,4.661,0
0.309,-1.262,4.45,0
-0.066,-1.361,3.732,0
-0.503,-1.346,1.885,0
-0.572,-1.188,0.817,0
-0.783,-1.205,-0.532,0
-0.857,-1.085,-1.407,0
-0.585,-0.764,-2.133,0
-0.307,-0.641,-2.39,0
-0.326,-0.65,-2.387,0
0.235,-0.42,-1.996,0
0.21,-0.409,-2,0
0.178,-0.808,-1,0
0.189,-0.938,-0.931,0
0.169,-1.026,-0.764,0
0.161,-1.061,-0.528,0
0.115,-1.057,-0.598,0
-0.048,-0.995,-0.999,0
-0.062,-0.899,-1.355,0
0.097,-0.646,-1.992,0
0.201,-0.455,-2.213,0
0.318,-0.239,-2.182,0
0.257,-0.187,-1.991,0
0.261,-0.184,-1.992,0
0.051,-0.093,-0.79,0
-0.1,-0.086,-0.797,0
-0.071,-0.011,-1.143,0
-0.094,0.038,-1.848,0
-0.038,0.072,-2.003,0
0.053,0.169,-1.55,0
0.019,0.234,-0.89,0
0.027,0.177,0.197,0
-0.056,0.153,0.649,0
-0.203,0.186,1.059,0
-0.137,0.288,1.157,0
-0.021,0.455,1.202,0
0.024,0.455,1.161,0
0.16,0.589,0.901,0
0.204,0.56,0.799,0
0.309,0.426,0.954,0
0.4,0.36,1.22,0
0.398,0.334,1.229,0
0.624,0.462,1.849,0
0.1,0.734,1.716,0
-0.002,0.777,1.321,0
0.348,0.916,0.481,0
0.473,1.138,0.008,0
0.901,1.397,-0.289,1
1.101,1.34,-0.17,0
1.115,1.341,-0.17,0
-0.272,0.448,0.858,0
-0.651,-0.216,1.907,0
-0.781,-0.373,2.349,0
-1.019,-0.63,2.763,0
-0.889,-0.728,2.862,0
-0.964,-0.872,2.734,0
-0.813,-0.919,2.153,0
-0.466,-0.811,0.903,0
-0.187,-0.723,0.164,0
0.126,-0.864,-0.809,0
-0.04,-1.024,-0.968,0
-0.218,-1.301,-0.23,0
-0.277,-1.45,0.278,0
-0.658,-1.708,0.825,0
-0.797,-1.802,0.778,0
-0.705,-1.554,0.019,0
-0.367,-1.269,-0.745,0
0.387,-0.581,-2.179,0
0.674,-0.348,-2.618,0
0.939,-0.054,-2.99,0
1.147,0.076,-3.184,0
1.175,0.158,-2.514,0
1.108,0.135,-1.833,0
0.818,0.057,-1.26,0
0.669,0.023,-1.358,0
0.082,-0.288,-1.122,0
0.066,-0.316,-0.792,0
0.361,-0.016,-0.904,0
0.519,0.143,-1.285,0
0.519,0.129,-1.28,0
0.716,0.235,-1.632,0
0.833,0.403,-1.672,0
0.98,0.624,-1.079,0
1.148,0.68,0.261,0
0.84,0.537,0.872,0
0.265,0.292,0.941,0
0.058,0.317,1.024,0
-0.137,0.299,1.313,0
-0.142,0.377,0.928,0
0.096,0.725,0.238,0
0.361,0.902,0.04,0
0.505,1.057,0.032,0
0.431,0.949,0.303,0
0.376,0.788,0.826,0
0.567,0.93,1.222,0
0.536,0.95,1.894,0
0.181,1.06,1.888,0
-0.05,1.324,0.934,0
-0.097,1.321,0.313,0
0.254,1.423,-0.581,1
0.675,1.476,-0.79,0
1.185,1.257,0.406,0
1.134,0.903,1.871,0
0.889,0.227,4.159,0
0.611,-0.181,4.836,0
0.221,-0.871,5.494,0
0.088,-1.072,5.21,0
-0.006,-0.948,2.736,0
-0.076,-0.783,0.893,0
0.028,-0.646,-1.136,0
0.285,-0.443,-2.001,0
0.329,-0.121,-2.342,0
0.441,-0.097,-2.147,0
0.607,-0.126,-1.514,0
0.55,-0.329,-0.808,0
0.327,-0.813,0.238,0
-0.084,-1.128,0.581,0
-0.426,-1.447,0.655,0
-0.445,-1.507,0.485,0
-0.29,-1.362,-0.486,0
-0.127,-1.173,-1.27,0
0.16,-0.871,-2.317,0
0.285,-0.757,-2.719,0
0.341,-0.703,-2.399,0
0.211,-0.755,-1.565,0
-0.059,-0.883,-0.529,0
-0.237,-0.939,-0.255,0
-0.69,-0.998,-0.056,0
-0.778,-1.021,-0.171,0
-0.777,-1.029,-0.168,0
-0.731,-0.702,-1.245,0
-0.19,-0.236,-2.153,0
0.122,-0.004,-2.334,0
0.177,0.189,-1.698,0
0.154,0.205,-1.302,0
-0.094,0.037,-0.81,0
-0.277,-0.079,-0.682,0
-0.276,-0.234,-0.503,0
-0.18,-0.287,-0.273,0
-0.171,-0.289,-0.273,0
0.252,-0.207,0.366,0
0.225,-0.135,0.611,0
0.203,-0.017,0.573,0
0.174,0.089,0.603,0
0.227,0.207,0.912,0
0.446,0.23,1.514,0
0.632,0.199,1.61,0
0.744,0.276,1.383,0
0.478,0.637,1.211,0
0.273,1.089,0.606,0
0.701,1.184,-0.265,0
1.479,1.737,-1.321,0
1.863,1.91,-1.049,0
1.887,1.525,0.821,1
1.147,0.988,2.227,0
0.374,0.014,3.479,0
0.062,-0.473,3.907,0
-0.197,-1.076,4.57,0
-0.196,-1.138,5.161,0
-0.355,-1.047,5.259,0
-0.339,-1.044,4.348,0
-0.083,-0.831,1.885,0
0.102,-0.637,0.398,0
0.384,-0.582,-1.019,0
0.703,-0.578,-1.706,0
0.815,-0.621,-2.233,0
0.806,-0.751,-1.844,0
0.755,-1.05,-0.513,0
0.702,-1.133,0.126,0
0.579,-1.256,0.087,0
0.541,-1.206,-0.371,0
0.688,-1.089,-1.342,0
0.913,-0.852,-1.865,0
1.189,-0.445,-2.148,0
1.139,-0.414,-2.051,0
0.932,-0.37,-1.933,0
0.813,-0.354,-1.925,0
0.727,-0.291,-1.732,0
0.717,-0.156,-1.6,0
0.772,-0.009,-1.544,0
0.677,0.089,-1.672,0
0.349,0.005,-1.929,0
0.333,0.062,-2.135,0
0.194,0.081,-2.105,0
0.197,0.054,-1.899,0
0.358,0.182,-1.29,0
0.348,0.185,-0.565,0
0.622,0.218,0.197,0
0.745,0.361,0.502,0
0.898,0.512,0.769,0
0.915,0.475,0.752,0
0.78,0.499,0.769,0
0.714,0.506,0.751,0
0.542,0.475,0.583,0
0.473,0.448,0.623,0
0.525,0.394,0.781,0
0.554,0.417,1.026,0
0.655,0.471,1.693,0
0.624,0.398,2.096,0
0.398,0.288,2.433,0
0.317,0.358,2.327,0
-0.241,0.843,1.582,0
-0.676,1.061,0.652,0
-0.744,1.298,-0.66,0
-0.231,1.546,-1.292,0
0.206,1.88,-1.694,1
0.52,1.797,-1.446,0
1.072,1.163,0.017,0
1.361,0.472,1.95,0
1.495,-0.401,5.199,0
1.341,-0.843,7.082,0
0.462,-1.216,7.801,0
-0.063,-1.307,5.57,0
-0.244,-1.124,1.485,0
-0.088,-0.714,-1.206,0
0.037,-0.476,-3.349,0
0.138,-0.374,-3.702,0
0.064,-0.135,-2.656,0
-0.084,-0.357,-1.251,0
-0.01,-0.856,0.48,0
-0.156,-1.018,0.937,0
-0.386,-1.476,1.254,0
-0.294,-1.58,0.994,0
-0.265,-1.59,0.18,0
-0.156,-1.492,-0.495,0
0.018,-1.321,-1.496,0
0.062,-1.203,-2.247,0
-0.059,-1.244,-2.938,0
0.022,-1.128,-3.379,0
0.341,-0.786,-3.375,0
0.439,-0.572,-2.861,0
0.551,-0.379,-2.01,0
0.536,-0.256,-1.486,0
0.518,-0.069,-1.234,0
0.474,0.053,-1.302,0
0.363,0.128,-1.612,0
0.293,0.096,-1.725,0
0.453,0.164,-1.708,0
0.364,0.165,-1.105,0
0.333,0.17,-0.238,0
0.302,0.172,0.11,0
0.191,0.216,0.437,0
0.206,0.212,0.365,0
0.204,0.25,0.24,0
0.277,0.228,0.365,0
0.272,0.131,0.862,0
0.274,0.202,1.146,0
0.138,0.121,1.298,0
0.101,0.111,1.172,0
0.035,0.199,1.179,0
0.057,0.139,1.289,0
0.458,0.328,1.364,0
0.581,0.498,1.437,0
0.895,1.055,1.12,0
0.762,1.48,0.692,0
0.699,1.635,-0.488,0
1.204,1.639,-1.129,0
1.165,1.557,-1.151,1
1.224,1.092,0.482,0
0.908,0.245,3.288,0
0.135,-0.115,4.481,0
-0.566,-0.829,5.937,0
-0.764,-0.957,5.89,0
-0.736,-0.83,4.461,0
-0.417,-0.634,3.221,0
0.066,-0.192,1.258,0
0.197,-0.058,0.37,0
0.323,-0.109,-0.309,0
0.227,-0.242,-0.609,0
0.233,-0.453,-1.215,0
0.424,-0.608,-1.376,0
0.461,-0.586,-1.382,0
0.53,-1.08,0,0
0.501,-1.201,0.727,0
0.302,-1.353,0.932,0
0.269,-1.391,0.489,0
0.188,-1.309,-0.112,0
0.097,-1.224,-0.912,0
0.209,-1.037,-1.468,0
0.701,-0.604,-2.28,0
0.87,-0.397,-2.818,0
1.065,-0.188,-3.085,0
1.203,-0.029,-3.2,0
1.339,0.276,-3.007,0
1.24,0.372,-2.566,0
0.946,0.331,-2.284,0
0.625,0.272,-2.344,0
0.301,0.201,-2.417,0
0.323,0.212,-2.452,0
0.437,0.357,-2.342,0
0.491,0.354,-2.068,0
0.539,0.354,-1.614,0
0.539,0.355,-1.224,0
0.424,0.172,-0.227,0
0.212,0.113,0.374,0
0.019,-0.043,0.9,0
0.056,0.029,1.078,0
0.16,0.156,1.217,0
0.176,0.272,1.29,0
0.081,0.351,1.113,0
0.1,0.364,0.914,0
0.075,0.504,1.047,0
0.107,0.393,1.442,0
0.228,0.406,1.938,0
0.221,0.461,1.912,0
-0.037,0.864,1.887,0
-0.135,1.153,1.477,0
-0.112,1.539,0.314,0
0.062,1.664,-0.159,0
0.59,1.739,-0.076,1
0.867,1.665,0.31,0
0.855,0.968,1.63,0
0.767,0.172,3.155,0
0.677,-0.481,4.831,0
0.369,-0.898,5.691,0
-0.092,-1.52,6.178,0
-0.497,-1.639,5.26,0
-0.821,-1.391,2.22,0
-0.829,-1.175,0.4,0
-0.7,-0.829,-2.05,0
-0.705,-0.705,-2.342,0
-0.472,-0.537,-1.793,0
-0.25,-0.378,-0.98,0
-0.022,-0.519,0.166,0
0.018,-0.704,0.459,0
0.032,-0.941,0.411,0
-0.002,-1.082,0.31,0
-0.217,-1.383,-0.058,0
-0.3,-1.408,-0.398,0
-0.273,-1.371,-1.065,0
-0.201,-1.249,-1.609,0
-0.105,-1.041,-2.329,0
-0.056,-0.964,-2.758,0
0.03,-0.66,-3.109,0
0.147,-0.435,-3.143,0
0.321,-0.134,-3.113,0
0.366,0.035,-2.887,0
0.315,0.1,-2.248,0
0.303,0.139,-1.801,0
0.143,0.129,-1.054,0
0.135,0.177,-0.925,0
0.189,0.333,-1.147,0
0.308,0.471,-1.324,0
0.545,0.647,-1.704,0
0.416,0.606,-1.562,0
0.062,0.398,-0.763,0
-0.018,0.344,-0.379,0
-0.194,0.312,-0.16,0
-0.329,0.26,-0.232,0
-0.321,0.265,-0.233,0
-0.469,0.004,0.261,0
-0.417,-0.028,0.816,0
-0.25,-0.025,1.607,0
-0.018,0.159,1.888,0
0.015,0.137,1.859,0
0.179,-0.118,1.901,0
0.225,-0.091,2.203,0
0.417,0.181,2.857,0
0.181,0.513,2.766,0
-0.136,0.966,1.458,0
-0.024,1.028,0.562,0
0.719,1.285,-0.84,1
1.193,1.441,-1.25,0
1.316,1.132,-0.364,0
0.751,0.55,0.955,0
0.069,-0.431,2.894,0
-0.133,-0.735,3.322,0
-0.043,-1.165,4.01,0
-0.155,-1.263,4.365,0
-0.439,-1.29,3.983,0
-0.429,-1.246,3.01,0
-0.34,-1.106,0.934,0
-0.125,-0.98,-0.227,0
0.204,-0.876,-1.003,0
0.681,-0.709,-0.976,0
1.055,-0.586,-0.372,0
1.203,-0.624,0.3,0
1.24,-0.777,0.908,0
1.196,-0.859,0.95,0
1.169,-0.956,0.415,0
1.195,-0.878,-0.173,0
1.21,-0.882,-0.171,0
1.246,-0.85,-1.439,0
1.287,-0.59,-2.002,0
1.138,-0.461,-1.983,0
1.104,-0.422,-2.055,0
0.905,-0.469,-2.172,0
0.725,-0.357,-2.344,0
0.702,-0.213,-2.345,0
0.693,-0.161,-2.44,0
0.582,-0.184,-2.229,0
0.354,-0.157,-1.559,0
0.378,-0.123,-1.465,0
0.59,0.001,-1.807,0
0.592,0.16,-1.63,0
0.568,0.151,-1,0
0.653,0.133,-0.937,0
0.679,0.227,-0.724,0
0.607,0.229,-0.389,0
0.608,0.229,-0.389,0
0.441,0.112,0.417,0
0.09,0.045,1.151,0
0.101,0.074,1.298,0
0.045,0.225,1.003,0
0.067,0.267,0.745,0
0.07,0.233,0.756,0
0.404,0.521,0.996,0
0.762,0.543,1.696,0
1.016,0.652,2.16,0
1.105,0.552,2.39,0
0.845,0.464,2.355,0
0.09,0.481,2.272,0
-0.283,0.601,1.603,0
-0.668,0.772,0.192,0
-0.512,0.723,-0.488,0
0.341,1.076,-0.99,1
0.9,1.276,-1.17,0
1.463,1.257,0.101,0
1.638,0.9,1.36,0
1.607,0.171,3.54,0
1.36,-0.354,4.482,0
0.787,-0.957,5.165,0
0.28,-1.182,4.336,0
0.005,-1.137,1.669,0
-0.018,-0.809,-0.393,0
0.132,-0.535,-2.11,0
0.296,-0.37,-2.7,0
0.404,-0.106,-2.819,0
0.497,-0.113,-2.488,0
0.485,-0.371,-1.363,0
0.479,-0.639,-0.553,0
0.554,-1.017,0.218,0
0.478,-1.163,0.394,0
0.261,-1.435,0.26,0
0.206,-1.511,-0.038,0
0.164,-1.377,-0.769,0
0.221,-1.356,-1.255,0
0.281,-1.171,-1.96,0
0.397,-0.97,-2.262,0
0.603,-0.73,-2.251,0
0.644,-0.624,-2.088,0
0.429,-0.578,-1.716,0
0.235,-0.578,-1.396,0
-0.036,-0.613,-1.157,0
-0.136,-0.584,-1.169,0
-0.098,-0.392,-1.219,0
0.076,-0.285,-1.351,0
0.235,-0.087,-1.395,0
0.41,0.056,-1.314,0
0.542,0.099,-1.475,0
0.377,0.08,-1.401,0
0.128,-0.06,-1.002,0
0.042,-0.15,-0.735,0
-0.176,-0.15,-0.046,0
-0.316,-0.281,0.503,0
-0.465,-0.246,1.17,0
-0.484,-0.06,1.52,0
-0.27,0.145,1.606,0
0.026,0.408,1.312,0
0.025,0.391,1.318,0
0.703,0.994,1.085,0
0.762,0.958,1.918,0
0.708,0.836,2.288,0
0.801,0.544,2.157,0
0.466,0.548,1.887,0
-0.238,0.732,1.307,0
-0.301,0.82,0.607,0
0.195,1.051,-0.016,1
0.517,1.148,0.347,0
0.968,1.299,1.52,0
0.915,1.275,2.403,0
0.912,1.3,2.395,0
0.705,0.486,3.436,0
0.796,-0.059,3.773,0
0.847,-0.359,4.138,0
0.568,-0.655,4.277,0
0.295,-0.775,3.951,0
0.156,-0.946,2.718,0
0.258,-0.821,1.258,0
0.324,-0.692,-0.46,0
0.396,-0.74,-0.981,0
0.676,-0.698,-1.794,0
0.923,-0.687,-2.377,0
1.15,-0.677,-2.539,0
1.259,-0.775,-2.106,0
1.253,-1.046,-1.096,0
1.106,-1.218,-0.457,0
0.827,-1.425,0.093,0
0.534,-1.472,-0.131,0
0.317,-1.422,-0.847,0
0.379,-1.267,-1.346,0
0.695,-0.756,-2.363,0
0.932,-0.405,-2.758,0
0.986,-0.162,-2.744,0
1.131,-0.02,-2.517,0
1.321,0.308,-2.227,0
1.187,0.384,-2.017,0
1.173,0.376,-2.016,0
0.547,0.188,-1.924,0
0.292,0.078,-1.875,0
0.327,0.113,-1.771,0
0.481,0.238,-1.368,0
0.632,0.293,-0.997,0
0.817,0.363,-0.379,0
0.934,0.396,-0.056,0
1.04,0.437,0.359,0
0.969,0.412,0.659,0
0.88,0.366,1.034,0
0.895,0.394,0.984,0
0.653,0.459,0.738,0
0.596,0.467,0.67,0
0.612,0.453,0.675,0
0.784,0.659,0.359,0
1.018,0.748,0.812,0
1.196,0.745,1.474,0
1.281,0.783,2.456,0
1.127,0.648,2.837,0
0.528,0.451,3.148,0
0.046,0.507,2.852,0
-0.301,0.755,1.109,1
-0.277,0.876,-0.154,0
0.515,1.089,-1.105,0
1.155,1.227,-1.073,0
1.734,1.091,0.371,0
1.965,0.681,1.992,0
2.054,-0.068,4.003,0
1.801,-0.469,4.962,0
0.874,-1.543,6.302,0
0.346,-1.913,6.202,0
-0.285,-1.898,4.283,0
-0.289,-1.689,1.758,0
0.101,-0.932,-0.825,0
0.49,-0.612,-1.704,0
1.161,-0.139,-2.132,0
1.433,0.118,-1.885,0
1.456,0.023,-1.119,0
1.251,-0.294,-0.807,0
0.822,-0.737,-0.676,0
0.634,-0.881,-0.718,0
0.455,-1.041,-0.906,0
0.424,-1.04,-1.17,0
0.409,-0.928,-1.547,0
0.447,-0.783,-1.682,0
0.707,-0.485,-1.672,0
0.754,-0.373,-1.565,0
0.553,-0.352,-1.409,0
0.445,-0.305,-1.434,0
0.294,-0.244,-1.359,0
0.086,-0.201,-1.44,0
0.084,-0.192,-1.586,0
0.05,-0.116,-1.628,0
0.186,0.001,-1.703,0
0.33,0.069,-1.79,0
0.524,0.226,-1.59,0
0.607,0.276,-1.273,0
0.721,0.344,-0.969,0
0.717,0.315,-0.732,0
0.584,0.278,-0.437,0
0.551,0.235,-0.292,0
0.362,0.1,0.13,0
0.269,0.028,0.318,0
0.39,0.05,0.108,0
0.411,0.054,0.084,0
0.419,0.032,0.092,0
0.418,-0.225,0.552,0
0.214,-0.145,1.232,0
0.265,-0.194,1.551,0
0.454,-0.286,1.809,0
0.464,-0.301,1.769,0
0.593,-0.285,1.613,0
0.714,-0.254,1.434,0
0.437,0.157,1.109,0
0.009,0.556,0.772,0
-0.243,0.621,-0.119,0
0.268,0.63,-0.753,0
0.311,0.628,-0.751,1
1.618,0.833,0.168,0
1.769,0.532,2.403,0
1.134,0.142,3.495,0
0.853,-0.414,3.819,0
0.975,-0.639,3.401,0
1.237,-0.674,3.027,0
1.288,-0.536,2.689,0
1.171,-0.401,1.829,0
0.971,-0.427,1.079,0
0.794,-0.496,0.243,0
0.752,-0.575,-0.188,0
0.719,-0.624,-0.358,0
0.726,-0.676,-0.451,0
0.867,-0.855,-0.717,0
1.061,-0.941,-0.908,0
1.363,-1.031,-0.646,0
1.511,-1.119,-0.179,0
1.51,-1.144,0.281,0
1.425,-1.111,0.206,0
1.148,-1.07,-0.284,0
0.912,-1.063,-0.854,0
0.78,-0.824,-1.655,0
0.911,-0.551,-2.197,0
0.978,-0.195,-2.485,0
1.01,-0.07,-2.385,0
0.949,0.095,-2.18,0
0.755,0.159,-1.976,0
0.755,0.158,-1.976,0
0.423,0.154,-1.753,0
0.337,0.186,-2.029,0
0.446,0.267,-2.314,0
0.653,0.418,-2.07,0
0.773,0.403,-1.579,0
0.881,0.367,-0.944,0
0.927,0.295,-0.531,0
0.867,0.224,-0.004,0
0.792,0.144,0.243,0
0.582,-0.036,0.472,0
0.423,-0.091,0.784,0
0.43,-0.087,0.783,0
0.29,-0.006,0.801,0
0.05,0.168,0.839,0
0.12,0.202,0.73,0
0.123,0.182,0.737,0
0.865,0.749,0.872,0
0.879,0.754,1.251,0
0.754,0.436,1.861,0
0.511,0.203,2.581,0
0.196,0.304,3.046,0
-0.147,0.643,2.716,0
-0.261,0.814,1.762,0
-0.244,0.79,1.772,1
0.295,1.052,0.035,0
1.102,1.275,0.106,0
1.669,1.341,0.755,0
2.282,0.629,2.592,0
2.525,0.239,4.029,0
2.206,-0.499,5.32,0
1.744,-1.215,5.893,0
0.892,-1.72,5.515,0
0.638,-1.564,3.292,0
0.147,-1.269,0.301,0
-0.029,-1.138,-1.45,0
0.086,-0.818,-2.855,0
0.287,-0.47,-3.571,0
0.5,-0.14,-3.324,0
0.664,-0.196,-2.355,0
0.61,-0.539,-0.849,0
0.544,-0.787,-0.414,0
0.447,-1.081,-0.411,0
0.279,-1.292,-0.443,0
0.184,-1.447,-0.331,0
0.121,-1.441,-0.445,0
0.017,-1.348,-0.711,0
0.073,-1.306,-0.94,0
0.084,-1.128,-1.283,0
0.128,-0.908,-1.167,0
0.115,-0.904,-1.169,0
0.154,-0.657,-1.279,0
-0.066,-0.664,-1.652,0
-0.248,-0.714,-1.703,0
-0.249,-0.711,-1.703,0
0.205,-0.18,-1.511,0
0.636,0.096,-1.662,0
0.645,0.159,-1.556,0
0.538,0.143,-1.427,0
0.525,0.166,-1.285,0
0.421,0.172,-0.969,0
0.301,0.115,-0.888,0
0.111,0.007,-0.628,0
0.069,-0.004,-0.339,0
0.063,-0.004,-0.339,0
-0.019,-0.091,0.542,0
-0.123,-0.104,1.244,0
-0.147,-0.07,1.444,0
0.078,0.163,0.993,0
0.189,0.309,0.514,0
0.19,0.282,0.524,0
0.358,0.453,0.379,0
0.391,0.532,1.289,0
0.331,0.421,2.038,0
0.195,0.201,2.653,0
0.029,0.233,2.565,0
-0.407,0.46,1.609,0
-0.431,0.559,0.754,1
0.454,0.887,-0.797,0
1.234,1.23,-1.34,0
2.003,1.353,-0.538,0
1.754,0.972,1.058,0
0.763,0.061,3.348,0
0.362,-0.353,4.1,0
-0.007,-1.005,5.012,0
0.134,-1.279,5.212,0
0.038,-1.136,5.027,0
0.21,-0.924,4.152,0
0.63,-0.439,2.12,0
0.664,-0.251,0.75,0
1.167,-0.122,-0.783,0
1.508,0.048,-1.809,0
1.733,0.098,-2.471,0
1.858,0.002,-2.421,0
1.814,-0.343,-1.642,0
1.685,-0.619,-0.801,0
1.44,-1.104,0.113,0
1.178,-1.316,0.241,0
0.742,-1.671,0.25,0
0.752,-1.635,-0.142,0
0.895,-1.329,-1.125,0
1.088,-1.058,-2.037,0
1.296,-0.698,-3.094,0
1.395,-0.506,-3.483,0
1.613,-0.14,-3.54,0
1.694,0.022,-3.032,0
1.484,0.06,-2.188,0
1.203,0.048,-1.79,0
0.847,-0.044,-1.48,0
0.658,-0.076,-1.512,0
0.514,-0.042,-1.816,0
0.477,-0.088,-1.94,0
0.598,0.122,-1.637,0
0.859,0.289,-1.344,0
1.27,0.528,-0.597,0
1.315,0.553,-0.06,0
1.034,0.377,0.672,0
0.857,0.231,1.352,0
0.529,0.109,2.302,0
0.25,-0.047,2.624,0
0.085,-0.106,2.256,0
0.259,0.062,1.572,0
0.591,0.474,0.777,0
0.717,0.596,0.666,0
0.745,0.566,1.09,0
0.718,0.546,1.789,0
0.838,0.364,2.405,0
0.927,0.308,2.652,0
0.956,0.337,2.828,0
0.707,0.4,2.669,0
0.046,0.586,1.63,1
-0.14,0.785,0.477,0
0.013,0.991,-0.872,0
0.701,1.44,-2.025,0
1.158,1.462,-2.047,0
1.435,1.128,-0.733,0
1.557,0.377,1.889,0
1.753,-0.058,3.37,0
1.285,-0.923,5.393,0
0.803,-1.387,6.497,0
0.268,-1.563,5.858,0
0.037,-1.4,4.075,0
0.017,-0.99,0.566,0
0.084,-0.805,-1.036,0
0.251,-0.584,-2.014,0
0.33,-0.531,-2.021,0
0.52,-0.639,-1.169,0
0.588,-0.908,-0.346,0
0.715,-1.281,0.386,0
0.747,-1.397,0.464,0
0.502,-1.649,0.364,0
0.417,-1.749,0.144,0
0.404,-1.688,-0.717,0
0.491,-1.525,-1.552,0
0.732,-1.282,-2.653,0
0.767,-1.155,-2.911,0
0.455,-0.992,-2.949,0
0.35,-0.991,-3.083,0
0.29,-0.888,-3.034,0
0.095,-0.813,-2.41,0
0.057,-0.647,-1.633,0
-0.006,-0.536,-1.45,0
0.12,-0.388,-1.527,0
0.196,-0.337,-1.238,0
0.358,-0.16,-0.817,0
0.434,-0.002,-0.723,0
0.396,0.08,-1.004,0
0.281,0.114,-1.138,0
0.223,0.185,-1.268,0
0.242,0.315,-1.147,0
0.3,0.395,-0.617,0
0.206,0.246,0.013,0
0.119,0.071,0.708,0
-0.028,0.184,1.256,0
-0.114,0.085,2.051,0
-0.166,0.081,2.101,0
-0.085,0.212,1.716,0
0.177,0.223,1.324,0
0.475,0.427,0.999,0
0.634,0.424,1.051,0
0.822,0.494,1.303,0
0.775,0.456,1.77,0
0.387,0.445,2.322,0
-0.143,0.618,2.173,0
-0.448,0.799,1.042,1
-0.308,0.796,0.465,0
0.495,0.866,-0.012,0
0.993,0.878,0.345,0
1.413,0.754,2.185,0
1.162,0.374,3.588,0
0.897,-0.275,4.445,0
0.475,-0.673,4.383,0
-0.001,-1.079,3.658,0
-0.329,-1.212,2.938,0
-0.553,-1.173,1.671,0
-0.552,-1.105,0.857,0
-0.351,-0.903,-0.121,0
-0.035,-0.712,-0.475,0
0.389,-0.548,-0.917,0
0.6,-0.465,-1.168,0
0.775,-0.398,-1.224,0
0.903,-0.481,-1.299,0
0.918,-0.473,-1.301,0
1.274,-0.606,-1.294,0
1.276,-0.804,-0.701,0
1.141,-0.944,-0.251,0
0.679,-1.248,-0.029,0
0.436,-1.255,-0.265,0
0.309,-1.166,-0.722,0
0.407,-1.029,-1.316,0
0.617,-0.652,-2.128,0
0.875,-0.296,-2.49,0
1.15,-0.009,-2.419,0
1.275,0.058,-2.304,0
1.314,0.269,-2.011,0
1.187,0.254,-1.778,0
0.957,0.129,-1.57,0
0.712,0.042,-1.375,0
0.446,-0.067,-1.268,0
0.244,-0.166,-1.329,0
0.225,-0.147,-1.43,0
0.352,-0.066,-1.303,0
0.712,0.117,-0.906,0
0.867,0.204,-0.539,0
0.931,0.23,0.227,0
0.88,0.135,0.513,0
0.53,-0.021,0.715,0
0.344,-0.191,0.853,0
0.062,-0.244,1.155,0
0.011,-0.207,1.42,0
0.151,0.008,1.478,0
0.247,0.128,1.39,0
0.339,0.295,1.37,0
0.418,0.377,1.381,0
0.731,0.638,1.409,0
0.818,0.769,1.678,0
0.627,1.009,1.936,0
0.394,1.182,1.688,0
0.295,1.304,0.487,1
0.196,1.353,-0.189,0
0.508,1.336,-0.49,0
0.798,1.264,-0.235,0
1.026,0.917,1.336,0
1.249,0.46,2.9,0
0.975,-0.091,4.43,0
0.562,-0.853,5.726,0
0.303,-1.522,6.502,0
-0.187,-1.584,6.059,0
-0.436,-1.696,3.377,0
-0.311,-1.355,1.147,0
-0.103,-0.866,-1.445,0
0.124,-0.665,-2.731,0
0.33,-0.176,-3.828,0
0.555,0.04,-3.749,0
0.737,0.061,-2.892,0
0.687,-0.169,-1.999,0
0.427,-0.748,-0.977,0
0.302,-1.008,-0.533,0
0.074,-1.425,-0.324,0
-0.184,-1.628,-0.398,0
-0.258,-1.621,-0.615,0
-0.138,-1.458,-0.656,0
-0.137,-1.441,-0.662,0
0.066,-1.127,-1.272,0
-0.028,-0.994,-1.692,0
-0.165,-0.915,-1.981,0
-0.155,-0.755,-2.179,0
-0.222,-0.697,-2.194,0
-0.124,-0.518,-2.227,0
0.03,-0.367,-1.971,0
0.012,-0.367,-1.971,0
0.131,-0.138,-1.455,0
0.119,-0.103,-1.341,0
0.076,-0.102,-1.065,0
0.047,-0.028,-0.55,0
-0.027,0.039,-0.195,0
-0.061,0.048,0.169,0
0.027,0.147,0.202,0
0.013,0.152,0.2,0
-0.134,0.082,0.538,0
-0.179,-0.029,1.748,0
-0.007,0.101,2.069,0
-0.172,0.102,1.825,0
-0.296,0.023,1.251,0
-0.29,-0.002,1.26,0
-0.346,0.225,0.235,0
-0.12,0.247,0.136,0
-0.055,0.042,0.243,0
0.066,0.136,0.704,0
0.256,0.184,1.136,0
0.279,0.263,1.415,0
0.011,0.583,1.145,0
0.29,0.794,0.127,1
0.693,0.996,-0.69,0
1.152,1.159,-1.012,0
1.422,1.02,-0.34,0
0.879,0.371,2.241,0
0.411,-0.15,3.604,0
-0.335,-0.633,4.278,0
-0.683,-1.011,4.363,0
-0.489,-1.117,4.008,0
-0.196,-0.926,3.512,0
0.129,-0.58,2.495,0
0.342,-0.394,1.721,0
0.633,-0.171,0.574,0
0.737,-0.175,0.175,0
0.943,-0.195,-0.511,0
0.938,-0.205,-0.801,0
0.966,-0.206,-0.799,0
0.772,-0.646,-0.853,0
0.538,-0.939,-0.972,0
0.438,-1.103,-1.094,0
0.46,-1.093,-1.096,0
0.37,-1.475,-0.702,0
0.557,-1.348,-0.287,0
0.665,-1.212,-0.262,0
0.834,-0.971,-0.941,0
0.921,-0.742,-1.689,0
0.905,-0.532,-2.44,0
0.877,-0.437,-2.821,0
0.796,-0.385,-2.923,0
0.808,-0.269,-2.697,0
0.972,-0.02,-2.383,0
1.163,0.172,-2.353,0
1.01,0.254,-1.886,0
0.869,0.227,-1.539,0
0.656,0.25,-1.048,0
0.513,0.096,-0.608,0
0.621,0.278,-0.271,0
0.332,0.122,0.077,0
0.3,-0.034,0.509,0
0.405,0.016,0.698,0
0.518,0,0.77,0
0.564,-0.006,0.531,0
0.652,0.02,0.288,0
0.616,0.01,0.5,0
0.467,0.044,1.207,0
0.191,-0.007,1.72,0
0.099,0.08,1.777,0
0.121,0.164,1.728,0
0.125,0.13,1.741,0
0.602,0.536,0.852,0
0.59,0.574,0.802,0
0.553,0.494,1.21,0
0.218,0.824,1.592,0
-0.042,0.971,1.26,1
0.055,1.225,0.123,0
0.261,1.414,-0.529,0
0.763,1.325,-0.762,0
1.067,1.091,-0.235,0
0.912,0.219,2.314,0
0.966,-0.202,4.07,0
0.503,-0.913,5.409,0
0,-1.532,5.748,0
-0.527,-2,5.26,0
-0.668,-2.038,3.843,0
-0.632,-1.527,0.818,0
-0.538,-1.276,-0.261,0
0.032,-0.882,-2.428,0
0.349,-0.477,-3.17,0
0.864,-0.042,-2.98,0
1.213,0.04,-2.213,0
1.335,-0.185,-1.085,0
1.212,-0.541,-0.392,0
0.901,-1.131,0.266,0
0.66,-1.42,0.598,0
0.47,-1.604,0.718,0
0.35,-1.655,0.554,0
0.24,-1.601,-0.134,0
0.258,-1.383,-0.811,0
0.266,-1.174,-1.844,0
0.274,-1.011,-2.43,0
0.272,-0.863,-2.527,0
0.184,-0.815,-2.282,0
0.022,-0.8,-1.783,0
-0.002,-0.718,-1.459,0
0.054,-0.557,-1.148,0
0.047,-0.477,-1.245,0
0.187,-0.243,-1.735,0
0.275,-0.101,-2.013,0
0.339,-0.013,-2.199,0
0.281,-0.014,-2.001,0
0.207,-0.058,-1.179,0
0.227,-0.015,-0.719,0
0.249,0.056,-0.167,0
0.139,0.048,0.163,0
0.096,0.024,0.159,0
-0.064,0.059,0.55,0
-0.054,0.069,0.547,0
-0.105,0.062,1.542,0
-0.24,0.097,1.43,0
-0.133,0.051,0.972,0
-0.134,0.026,0.982,0
0.358,0.239,0.688,0
0.632,0.185,1.383,0
0.49,-0.019,1.877,0
0.235,-0.186,2.392,0
0.005,-0.022,2.394,0
-0.475,0.435,1.52,0
-0.349,0.531,0.414,0
0.429,0.844,-1.112,1
1.07,1.157,-1.44,0
1.497,1.107,0.037,0
1.137,0.621,1.803,0
0.406,0.002,3.574,0
-0.142,-0.424,4.143,0
-0.287,-1.086,4.726,0
-0.288,-1.257,4.818,0
-0.135,-1.291,4.798,0
0.056,-1.135,4.207,0
0.325,-0.719,2.114,0
0.447,-0.524,0.772,0
0.702,-0.471,-0.757,0
0.944,-0.321,-1.148,0
1.09,-0.18,-1.109,0
1.085,-0.319,-0.994,0
0.913,-0.512,-0.805,0
0.803,-0.737,-0.642,0
0.579,-1.039,-0.436,0
0.475,-1.2,-0.342,0
0.576,-1.186,-0.485,0
0.69,-1.11,-0.625,0
0.986,-0.872,-1.174,0
1.136,-0.74,-1.624,0
1.054,-0.607,-2.047,0
1.083,-0.525,-2.361,0
1.028,-0.318,-2.254,0
0.921,-0.29,-1.937,0
0.712,-0.327,-1.634,0
0.489,-0.401,-1.499,0
0.184,-0.439,-1.569,0
0.083,-0.427,-1.677,0
0.084,-0.433,-1.675,0
0.469,-0.159,-1.601,0
0.775,0.113,-1.508,0
1.025,0.296,-1.193,0
1.113,0.249,-0.446,0
1.042,0.291,-0.342,0
0.552,-0.046,0.448,0
0.475,-0.194,0.562,0
-0.131,-0.583,1.117,0
-0.107,-0.653,1.175,0
-0.1,-0.661,1.178,0
0.31,-0.179,0.608,0
0.313,-0.205,0.619,0
0.501,0.36,-0.004,0
0.474,0.5,0.461,0
0.602,0.618,1.025,0
0.498,0.523,2.097,0
0.655,0.656,2.499,0
0.559,0.522,2.542,0
0.629,0.458,2.268,0
0.614,0.909,1.6,0
0.72,1.17,0.725,0
0.965,1.454,-0.475,1
1.457,1.696,-1.316,0
1.68,1.793,-1.888,0
1.456,1.42,-0.953,0
1.182,0.469,1.765,0
0.851,-0.122,3.488,0
0.127,-1.358,5.546,0
-0.196,-2.059,6.836,0
-0.465,-2.343,6.987,0
-0.528,-2.309,5.691,0
-0.183,-1.725,1.827,0
-0.172,-1.475,0.02,0
0.179,-1.201,-2.578,0
0.25,-0.9,-3.651,0
0.252,-0.554,-4.437,0
0.334,-0.471,-4.044,0
0.302,-0.585,-2.915,0
0.264,-0.752,-1.835,0
0.146,-1.019,-0.499,0
0.123,-1.094,-0.046,0
0.315,-1.101,-0.097,0
0.377,-1.068,-0.286,0
0.26,-1.072,-0.711,0
0.218,-1.015,-0.915,0
0.256,-0.94,-1.124,0
0.305,-0.843,-1.234,0
0.386,-0.631,-1.343,0
0.48,-0.404,-1.467,0
0.685,-0.116,-1.499,0
0.797,0.067,-1.445,0
0.886,0.252,-1.252,0
0.913,0.309,-1.285,0
0.905,0.243,-1.49,0
0.769,0.142,-1.387,0
0.638,-0.041,-1.06,0
0.592,-0.063,-0.764,0
0.474,-0.14,-0.39,0
0.456,-0.165,-0.466,0
0.318,-0.17,-0.417,0
0.214,-0.218,-0.265,0
0.306,-0.059,-0.07,0
0.385,0.058,0.126,0
0.381,0.07,0.37,0
0.273,0.134,0.357,0
0.184,0.251,0.164,0
0.151,0.249,-0.007,0
0.189,0.199,-0.035,0
0.244,0.116,0.541,0
0.559,0.027,1.777,0
0.733,0.073,2.172,0
0.772,0.099,2.352,0
0.756,0.32,1.997,0
0.321,1.009,0.92,0
0.229,1.198,0.1,0
1.013,1.079,-0.249,1
1.478,1.164,0.083,0
1.866,0.96,1.863,0
1.859,0.409,3.093,0
1.076,-0.163,4.178,0
0.346,-0.524,4.239,0
-0.008,-0.99,3.743,0
0.108,-0.932,3.23,0
0.484,-0.57,2.328,0
0.668,-0.256,1.515,0
0.685,-0.098,0.483,0
0.508,-0.302,0.317,0
0.223,-0.666,0.512,0
0.089,-0.851,0.727,0
-0.106,-1.065,0.763,0
-0.26,-1.221,0.282,0
-0.183,-1.39,-0.656,0
0.13,-1.375,-1.171,0
0.146,-1.368,-1.173,0
0.826,-1.175,-0.526,0
0.835,-1.21,0.25,0
0.64,-1.283,0.539,0
0.417,-1.292,0.385,0
0.453,-1.181,-0.326,0
0.365,-0.978,-1.228,0
0.57,-0.762,-1.715,0
0.682,-0.626,-2.243,0
0.994,-0.352,-2.625,0
0.986,-0.374,-2.617,0
1.672,0.394,-3.003,0
1.694,0.496,-2.752,0
1.427,0.401,-2.282,0
0.949,0.123,-1.423,0
0.719,-0.05,-1.052,0
0.498,-0.204,-0.77,0
0.524,-0.273,-0.794,0
0.523,-0.274,-0.793,0
0.71,-0.157,-0.823,0
1.175,0.076,-0.668,0
1.332,0.214,-0.497,0
1.329,0.223,-0.3,0
1.26,0.12,-0.075,0
0.9,0.082,0.251,0
0.575,0.039,0.641,0
0.588,0.041,0.641,0
-0.046,-0.303,1.629,0
-0.068,-0.293,1.729,0
0.163,-0.251,1.911,0
0.75,-0.007,2.027,0
1.045,0.118,1.804,0
1.043,0.08,1.82,0
1.172,0.168,1.018,0
0.467,0.464,0.803,0
-0.055,0.678,0.328,0
-0.256,0.785,-0.801,1
-0.049,0.935,-1.231,0
0.481,1.143,-1.178,0
0.801,1.126,-0.79,0
0.968,0.729,0.447,0
0.925,0.073,1.587,0
0.941,-0.717,2.922,0
1.065,-1.256,3.978,0
0.391,-1.911,6.059,0
-0.112,-2.057,5.954,0
-1.028,-1.895,3.043,0
-1.197,-1.729,0.997,0
-0.831,-1.072,-1.329,0
-0.467,-0.794,-1.866,0
0.413,-0.036,-2.013,0
0.749,0.332,-1.858,0
0.915,0.232,-1.375,0
0.754,-0.146,-0.998,0
0.325,-0.726,-0.549,0
0.281,-0.951,-0.454,0
0.419,-1.042,-0.368,0
0.552,-1.001,-0.48,0
0.944,-0.693,-1.106,0
1.01,-0.425,-1.273,0
1.116,-0.276,-1.263,0
0.994,-0.142,-1.332,0
0.9,0.011,-1.167,0
0.772,0.026,-0.935,0
0.585,0.008,-0.694,0
0.482,-0.031,-0.462,0
0.474,-0.026,-0.464,0
0.287,-0.066,-0.248,0
0.357,0.022,-0.673,0
0.398,0.047,-0.692,0
0.72,0.217,-0.651,0
0.972,0.436,-0.625,0
1.063,0.452,-0.776,0
0.917,0.404,-0.948,0
0.492,0.164,-1.186,0
0.346,-0.014,-1.34,0
0.346,0.106,-0.84,0
0.353,0.036,0.043,0
0.264,-0.146,0.798,0
-0.085,-0.314,0.961,0
-0.489,-0.471,0.91,0
-0.459,-0.416,0.879,0
-0.145,-0.139,0.911,0
0.208,0.039,0.839,0
0.201,0.013,0.848,0
0.863,0.353,0.716,0
0.927,0.466,1.435,0
0.577,0.788,1.62,0
0.229,1.104,0.601,0
0.352,0.994,-0.385,0
0.8,1.063,-1.02,0
0.833,1.064,-0.564,1
0.491,0.642,1.238,0
0.152,0.337,2.502,0
0.064,-0.054,3.525,0
0.276,-0.432,3.75,0
0.73,-0.942,4.572,0
0.777,-1.202,5.658,0
0.343,-1.512,6.484,0
-0.118,-1.613,6.008,0
-0.223,-1.525,3.425,0
-0.013,-1.199,1.422,0
0.492,-0.837,-0.506,0
0.826,-0.544,-1.551,0
1.044,-0.17,-2.705,0
1.109,-0.052,-3.329,0
0.937,-0.161,-3.419,0
0.906,-0.267,-2.891,0
0.8,-0.504,-1.767,0
0.673,-0.689,-1.269,0
0.521,-1.062,-0.98,0
0.46,-1.041,-0.865,0
0.583,-0.831,-0.456,0
0.62,-0.743,-0.479,0
0.539,-0.587,-1.101,0
0.463,-0.57,-1.924,0
0.341,-0.489,-2.578,0
0.297,-0.346,-2.472,0
0.215,-0.262,-1.911,0
0.049,-0.269,-1.707,0
-0.025,-0.277,-1.878,0
0.139,-0.147,-1.815,0
0.344,0.051,-0.997,0
0.516,0.137,-0.266,0
0.606,0.32,0.137,0
0.542,0.326,0.35,0
0.561,0.24,0.718,0
0.563,0.28,0.638,0
0.559,0.269,0.641,0
0.736,0.257,-0.116,0
0.636,0.184,0.157,0
0.676,0.127,0.644,0
0.446,0.181,1.343,0
0.086,0.075,1.799,0
-0.257,-0.028,1.909,0
-0.377,0.012,1.667,0
-0.12,0.174,1.141,0
0.186,0.29,0.917,0
0.284,0.299,1.377,0
0.002,0.292,2.018,0
-0.545,0.779,1.941,0
-0.702,1.149,0.779,0
-0.517,1.485,-0.844,0
0.201,1.818,-1.853,1
1.03,2.027,-2.078,0
1.604,1.738,-1.223,0
2.248,0.544,2.282,0
1.984,-0.141,4.189,0
0.998,-1.645,8.597,0
0.133,-2.606,10.397,0
-1.144,-3.034,9.816,0
-1.585,-3.06,7.087,0
-1.434,-2.687,2.445,0
-0.937,-1.965,-0.376,0
0.405,-0.937,-3.213,0
0.954,-0.418,-3.991,0
1.565,0.151,-3.682,0
1.694,0.16,-2.96,0
1.244,-0.36,-1.448,0
0.957,-0.814,-0.875,0
0.723,-1.149,-0.783,0
0.568,-1.318,-1.11,0
0.638,-1.298,-1.851,0
0.613,-1.148,-2.075,0
0.568,-1.077,-2.153,0
0.461,-1.079,-2.15,0
0.164,-1.026,-2.185,0
-0.05,-1.049,-2.265,0
-0.167,-0.961,-2.343,0
-0.159,-0.802,-2.348,0
-0.121,-0.565,-2.246,0
-0.017,-0.326,-2.063,0
-0.087,-0.25,-2.021,0
-0.202,-0.161,-2.211,0
-0.132,0.014,-2.467,0
0.143,0.167,-2.471,0
0.235,0.445,-1.855,0
0.069,0.455,-1.341,0
-0.234,0.268,-1.002,0
-0.357,0.187,-0.809,0
-0.28,0.239,-0.426,0
-0.185,0.389,-0.217,0
-0.213,0.4,-0.221,0
0.057,0.564,0.352,0
-0.004,0.57,0.945,0
-0.165,0.474,1.185,0
-0.286,0.256,2.272,0
-0.136,0.447,2.779,0
-0.033,0.58,2.47,0
0.069,0.447,1.8,0
0.591,0.718,0.679,0
0.772,0.841,0.646,0
0.796,1.077,1.325,0
0.428,1.343,1.601,0
-0.08,1.398,0.892,0
-0.255,1.241,0.055,0
-0.311,1.134,-0.337,1
-0.031,0.833,0.238,0
0.069,0.356,2.137,0
-0.111,-0.035,3.308,0
-0.164,-0.523,4.338,0
-0.291,-0.818,4.704,0
-0.401,-1.242,4.765,0
-0.207,-1.233,4.655,0
-0.217,-1.237,4.024,0
-0.166,-1.139,3.18,0
-0.065,-0.984,1.569,0
0.038,-0.868,0.46,0
0.298,-0.788,-0.771,0
0.425,-0.894,-1.374,0
0.84,-0.792,-2.279,0
1.119,-0.696,-2.414,0
1.391,-0.695,-1.69,0
1.301,-0.837,-0.925,0
1.112,-1.135,-0.267,0
0.813,-1.291,-0.059,0
0.355,-1.442,-0.074,0
0.213,-1.458,-0.271,0
0.134,-1.334,-0.777,0
0.236,-1.002,-1.205,0
0.265,-0.617,-1.849,0
0.317,-0.404,-2.172,0
0.532,-0.07,-2.489,0
0.496,0.147,-2.642,0
0.437,0.248,-2.756,0
0.302,0.289,-2.371,0
0.062,0.102,-1.698,0
-0.171,0.034,-1.496,0
-0.469,0.05,-1.178,0
-0.497,0.028,-1.012,0
-0.526,0.115,-0.844,0
-0.49,0.206,-0.867,0
-0.331,0.288,-1.144,0
-0.241,0.381,-1.391,0
0.238,0.624,-1.686,0
0.41,0.695,-1.462,0
0.475,0.665,-0.616,0
0.388,0.603,-0.15,0
0.025,0.489,0.487,0
-0.164,0.415,0.766,0
-0.267,0.231,1.105,0
-0.084,0.352,0.808,0
-0.162,0.432,0.849,0
-0.003,0.425,1.126,0
0.023,0.524,2.18,0
-0.01,0.573,2.734,0
-0.591,0.923,2.921,0
-0.871,1.21,2.392,0
-0.723,1.547,0.125,0
-0.582,1.73,-0.84,0
-0.578,1.694,-0.826,1
0.979,1.757,-1.062,0
0.977,0.75,1.951,0
0.827,0.074,3.634,0
0.077,-0.754,5.894,0
-0.312,-1.502,7.055,0
-0.657,-1.969,7.347,0
-0.843,-1.853,6.033,0
-0.683,-1.248,2.074,0
-0.651,-0.841,-0.056,0
-0.222,-0.495,-2.418,0
-0.433,-0.323,-3.413,0
-0.562,-0.244,-3.589,0
-0.542,-0.208,-2.947,0
-0.571,-0.431,-1.119,0
-0.447,-0.631,-0.24,0
-0.253,-0.872,0.402,0
-0.313,-1.032,0.595,0
-0.163,-1.175,0.399,0
-0.105,-1.203,-0.044,0
-0.047,-1.099,-0.986,0
0.054,-1.014,-1.518,0
-0.002,-0.957,-1.864,0
-0.071,-0.947,-1.957,0
-0.279,-0.876,-2.309,0
-0.436,-0.862,-2.585,0
-0.438,-0.703,-2.775,0
-0.407,-0.629,-2.591,0
-0.412,-0.5,-2.063,0
-0.36,-0.233,-1.912,0
-0.072,0.039,-2.191,0
0.001,0.188,-2.199,0
-0.098,0.276,-1.822,0
-0.203,0.238,-1.604,0
-0.375,0.092,-1.161,0
-0.495,0.102,-0.612,0
-0.5,0.136,-0.064,0
-0.565,0.135,0.276,0
-0.803,0.2,0.836,0
-0.808,0.205,0.834,0
-0.701,0.245,0.977,0
-0.393,0.44,0.926,0
-0.397,0.432,0.929,0
-0.129,0.511,1.013,0
0.281,0.776,1.309,0
0.381,0.777,1.56,0
0.359,0.608,1.718,0
-0.066,0.354,1.922,0
-0.772,-0.068,2.946,0
-1.022,0.303,2.843,0
-1.27,0.989,1.45,0
-0.777,1.188,0.338,1
-0.759,1.153,0.35,0
1.282,2.155,-1.439,0
1.844,1.775,-0.008,0
1.326,0.986,2.425,0
0.639,-0.107,5.031,0
0.013,-0.74,6.247,0
-0.275,-1.39,7.009,0
-0.434,-1.401,6.658,0
-0.527,-1.449,4.578,0
-0.324,-1.229,2.703,0
-0.136,-0.944,0.21,0
0.277,-0.872,-1.187,0
0.413,-0.685,-2.007,0
0.475,-0.723,-2.125,0
0.42,-0.994,-1.412,0
0.368,-1.147,-0.641,0
0.408,-1.214,-0.128,0
0.119,-1.351,-0.35,0
-0.164,-1.541,-1.247,0
-0.225,-1.467,-1.753,0
-0.12,-1.257,-1.9,0
0.036,-1.035,-1.718,0
0.206,-0.71,-1.258,0
0.307,-0.528,-1.151,0
0.466,-0.451,-1.565,0
0.54,-0.384,-1.815,0
0.103,-0.409,-2.483,0
0.103,-0.509,-2.763,0
-0.161,-0.533,-2.719,0
-0.345,-0.52,-2.633,0
-0.239,-0.327,-2.583,0
-0.12,-0.152,-2.497,0
0.09,0.05,-2.623,0
0.203,0.22,-2.756,0
0.369,0.43,-2.429,0
0.35,0.509,-1.585,0
0.159,0.295,-0.406,0
-0.036,0.215,-0.167,0
-0.388,-0.005,0.021,0
-0.513,-0.13,0.191,0
-0.556,-0.055,0.52,0
-0.545,0.036,0.512,0
-0.528,0.035,0.513,0
-0.437,0.326,0.881,0
-0.173,0.495,0.888,0
-0.082,0.628,0.952,0
0.036,0.598,1.075,0
0.186,0.526,1.022,0
0.428,0.718,1.456,0
0.461,0.81,2.483,0
-0.104,1.102,4.169,0
-0.582,1.203,3.337,0
-0.889,1.294,0.488,0
-0.898,1.011,-0.36,0
-0.428,0.584,-1.133,1
-0.648,0.284,-0.241,0
0.058,-0.147,2.567,0
0.647,-0.373,4.447,0
0.157,-1.23,6.344,0
-0.041,-1.656,7.079,0
-0.864,-2.038,6.609,0
-1.233,-2.051,4.84,0
-1.097,-1.483,0.893,0
-0.799,-1.123,-0.816,0
-0.09,-0.572,-2.71,0
0.552,-0.243,-3.284,0
0.554,0.134,-3.751,0
0.412,0.006,-3.475,0
0.461,-0.448,-2.248,0
0.372,-0.624,-1.34,0
0.095,-1.037,0.012,0
0.136,-1.163,0.065,0
0.053,-1.073,-0.595,0
0.019,-0.98,-1.092,0
0.013,-0.841,-1.515,0
-0.025,-0.733,-1.633,0
-0.111,-0.622,-1.798,0
-0.114,-0.443,-1.794,0
-0.12,-0.43,-1.798,0
0.032,-0.121,-1.39,0
0.175,0.094,-1.119,0
0.108,0.153,-0.939,0
0.029,0.157,-1.053,0
-0.069,0.208,-1.125,0
-0.184,0.214,-1.156,0
-0.271,0.203,-1.168,0
-0.382,0.12,-1.024,0
-0.483,0.079,-0.834,0
-0.416,0.105,-0.483,0
-0.403,0.108,-0.264,0
-0.446,0.174,0.025,0
-0.384,0.257,0.074,0
-0.284,0.297,0.313,0
-0.204,0.377,0.497,0
-0.459,0.29,0.494,0
-0.685,0.126,0.465,0
-0.704,-0.001,0.706,0
-0.494,0.086,0.83,0
-0.323,0.253,1.304,0
-0.037,0.343,1.698,0
0.297,0.359,2.017,0
0.221,0.436,2.242,0
-0.004,0.625,2.23,0
-0.555,1.096,1.376,0
-0.798,1.003,0.201,0
-0.033,1.098,-0.209,0
-0.042,1.067,-0.199,1
1.448,1.465,-0.024,0
1.118,0.96,1.895,0
0.212,0.329,2.853,0
0.213,0.369,2.84,0
-0.741,-0.808,3.313,0
-1.017,-1.227,3.994,0
-1.153,-1.223,3.988,0
-1.233,-1.304,2.97,0
-1.203,-1.266,2.158,0
-0.878,-1.226,0.798,0
-0.556,-1.264,0.041,0
-0.333,-1.123,-0.71,0
0.096,-1.139,-0.762,0
0.509,-1.028,-0.392,0
0.601,-0.98,-0.363,0
0.667,-1.053,-0.598,0
0.346,-1.099,-0.835,0
0.426,-1.124,-0.962,0
0.521,-1.037,-0.802,0
0.527,-0.767,-0.564,0
0.582,-0.583,-0.689,0
0.544,-0.404,-1.249,0
0.605,-0.214,-1.971,0
0.629,-0.003,-2.712,0
0.588,0.035,-2.877,0
0.515,0.129,-2.878,0
0.506,0.226,-2.646,0
0.506,0.225,-2.646,0
0.18,0.117,-1.545,0
-0.187,0.005,-1.521,0
-0.236,-0.004,-1.582,0
-0.324,-0.032,-1.481,0
-0.326,-0.017,-1.258,0
-0.15,0.046,-1.044,0
-0.11,0.049,-0.956,0
-0.053,0.023,-0.856,0
-0.072,-0.014,-0.568,0
-0.078,-0.017,-0.567,0
-0.087,-0.131,0.614,0
-0.184,0.154,0.683,0
-0.378,0.049,1.185,0
-0.369,0.043,1.188,0
-0.492,0.141,1.73,0
-0.214,0.459,1.204,0
-0.125,0.418,0.781,0
0.295,0.521,0.346,0
0.651,0.586,0.448,0
1.07,0.718,0.978,0
1.135,0.568,1.927,0
0.875,0.864,2.354,0
0.273,1.361,2.021,0
-0.134,1.383,-0.005,0
-0.417,1.197,-0.871,1
-0.312,0.971,-0.86,0
-0.144,0.855,-0.359,0
-0.295,0.451,1.389,0
-0.015,-0.05,2.621,0
0.189,-0.73,3.792,0
0.152,-1.253,4.607,0
-0.172,-1.611,4.839,0
-0.48,-1.615,4.012,0
-0.541,-1.025,0.541,0
-0.668,-0.741,-0.769,0
-0.373,-0.515,-2.36,0
-0.391,-0.313,-2.638,0
-0.549,-0.135,-2.176,0
-0.486,-0.123,-1.315,0
-0.287,-0.28,-0.378,0
-0.061,-0.496,0.149,0
0.132,-0.824,0.526,0
0.1,-0.797,0.517,0
0.259,-1.039,0.531,0
0.303,-0.997,0.175,0
0.403,-0.813,-0.761,0
0.346,-0.715,-1.523,0
0.146,-0.633,-2.182,0
0.1,-0.556,-2.262,0
-0.226,-0.569,-2.603,0
-0.246,-0.537,-2.5,0
-0.308,-0.38,-2.062,0
-0.183,-0.198,-1.784,0
-0.039,0.067,-1.33,0
-0.081,0.108,-1.121,0
-0.145,0.223,-1.017,0
-0.329,0.211,-0.951,0
-0.391,0.183,-0.828,0
-0.419,0.199,-0.481,0
-0.425,0.204,-0.483,0
-0.286,0.315,0.026,0
-0.237,0.33,0.082,0
-0.197,0.307,-0.058,0
-0.14,0.319,-0.107,0
-0.19,0.248,-0.088,0
-0.192,0.243,-0.086,0
-0.562,0.001,1.012,0
-0.654,0.029,1.466,0
-0.593,0.07,1.69,0
-0.438,0.12,1.948,0
-0.14,0.266,1.616,0
0.419,0.7,1.094,0
0.723,0.911,1.004,0
0.916,1.292,0.81,0
0.542,1.793,0.475,0
-0.403,1.705,-0.463,0
-0.255,1.421,-0.913,0
-0.015,1.316,-0.385,1
0.119,1.096,0.393,0
0.153,0.421,2.19,0
-0.118,-0.061,3.225,0
-0.534,-0.67,4.135,0
-0.766,-1.063,4.938,0
-0.672,-1.426,5.266,0
-0.928,-1.323,4.687,0
-1.1,-1.317,2.835,0
-0.975,-1.135,1.165,0
-0.9,-0.994,-0.16,0
-0.77,-1.011,-0.287,0
-0.506,-0.803,-0.365,0
-0.351,-0.782,-0.403,0
-0.162,-0.979,-0.354,0
0.097,-0.92,-0.374,0
0.47,-0.759,-0.735,0
0.533,-0.819,-0.939,0
0.559,-0.824,-0.991,0
0.389,-0.848,-1.012,0
0.194,-0.81,-1.302,0
0.148,-0.744,-1.669,0
0.027,-0.563,-2.282,0
-0.074,-0.462,-2.548,0
-0.159,-0.468,-2.707,0
0.055,-0.238,-2.917,0
0.308,0.188,-2.841,0
0.547,0.322,-2.675,0
0.587,0.485,-2.371,0
0.533,0.545,-2.104,0
0.373,0.429,-1.591,0
0.227,0.369,-1.392,0
0.053,0.22,-1.16,0
-0.045,0.143,-1.043,0
-0.187,0.026,-1.262,0
-0.163,0.086,-1.469,0
-0.159,0.082,-1.468,0
0.107,0.345,-0.995,0
0.224,0.477,-0.101,0
0.105,0.449,0.404,0
-0.265,0.401,0.832,0
-0.564,0.368,1.136,0
-0.654,0.308,1.297,0
-0.626,0.429,1.226,0
-0.304,0.616,1.212,0
-0.117,0.676,1.225,0
0.105,0.657,1.205,0
0.228,0.705,1.578,0
0.411,0.626,2.207,0
0.276,0.566,2.371,0
-0.712,0.968,1.955,0
