accelX,accelY,accelZ,label
-0.27,-0.745,1.157,1
-0.192,-0.9,1.62,1
0.135,-0.876,1.802,1
0.21,-1.022,1.837,1
-1.62,-3.185,1.452,1
0.525,-0.443,1.663,1
1.241,0.194,2.419,1
0.248,-1.253,2.376,1
-0.163,-1.637,2.601,1
0.069,-1.627,3.124,1
-0.226,-1.573,2.324,1
-0.584,-1.256,0.64,1
-0.178,-0.768,-0.458,1
0.095,-0.55,-0.398,1
-0.03,-0.346,-1.351,1
0.198,0.008,-1.493,1
0.583,0.229,-1.703,1
0.532,0.198,-0.573,1
0.549,-0.19,0.291,1
0.499,-0.159,0.276,1
-0.158,-1.602,1.544,1
-0.355,-1.828,1.672,0
-0.1,-1.649,0.886,0
0.294,-1.307,-0.503,0
0.264,-1.357,-1.281,0
0.371,-0.742,-1.274,0
0.71,-0.4,-1.183,0
1.162,-0.126,-1.358,0
0.999,-0.122,-1.358,0
0.432,-0.46,-1.071,0
0.062,-0.89,-0.847,0
0.002,-0.92,-1.042,0
-0.022,-0.658,-1.34,0
0.177,-0.301,-1.837,0
0.435,-0.13,-1.979,0
0.726,0.024,-1.462,0
0.766,0.007,-1.392,0
0.425,0.232,-2.069,0
0.454,0.197,-1.501,0
0.588,0.07,-0.661,0
0.569,-0.004,-0.053,0
0.592,-0.278,0.296,0
0.386,-0.305,0.314,0
0.337,-0.142,0.165,0
0.544,0.032,0.109,0
0.836,0.269,0.119,0
0.791,0.241,0.505,0
0.77,0.083,1.042,0
0.639,-0.005,1.381,0
0.476,-0.154,1.924,0
0.541,-0.338,2.409,0
0.595,-0.446,2.796,0
0.549,-0.429,3.013,0
0.018,-0.323,2.731,0
-0.574,-0.333,1.925,0
-0.688,-0.352,0.082,0
-0.324,-0.113,-0.876,1
0.164,0.145,-0.698,1
0.539,0.463,0.152,1
0.735,0.409,1.464,1
0.682,0.05,2.264,1
0.616,-0.679,3.334,1
0.524,-1.319,3.879,1
0.351,-2.13,4.741,1
0.525,-1.978,4.631,1
0.836,-1.568,2.843,1
0.736,-1.295,1.022,1
0.759,-1.289,1.02,1
0.154,-0.954,-1.686,1
-0.242,-0.91,-1.94,1
-0.49,-0.945,-1.877,1
-0.694,-1.132,-1.298,1
-0.576,-1.346,-0.686,1
-0.146,-1.453,0.099,1
0.275,-1.325,0.489,1
0.738,-1.2,0.5,1
0.951,-1.157,0.204,1
1.069,-0.96,-0.556,0
0.908,-0.972,-1.084,0
0.449,-1.105,-1.472,0
0.321,-1.11,-1.611,0
0.334,-0.881,-1.754,0
0.507,-0.632,-1.719,0
0.522,-0.611,-1.726,0
0.519,-0.448,-1.753,0
0.426,-0.316,-1.899,0
0.491,-0.209,-1.856,0
0.712,0.016,-1.871,0
0.69,-0.03,-1.844,0
0.438,-0.349,-1.261,0
0.15,-0.636,-0.56,0
-0.207,-0.888,-0.022,0
-0.374,-0.884,0.063,0
-0.407,-0.858,-0.033,0
-0.254,-0.678,-0.094,0
0.258,-0.283,-0.313,0
0.439,-0.194,-0.497,0
0.396,-0.522,-0.791,0
0.181,-0.758,-0.76,0
1.312,0.799,0.135,0
1.305,0.359,0.719,0
0.061,-0.724,1.144,0
-0.384,-0.859,1.384,0
-0.167,-0.742,1.848,0
-0.139,-0.779,2.21,0
0.397,-0.524,2.198,0
0.58,-0.316,2.186,0
0.637,-0.393,1.899,0
0.621,-0.064,1.999,1
0.367,0.486,1.81,1
0.571,0.417,1.245,1
0.943,0.351,1.131,1
1.148,0.251,1.484,1
1.276,0.011,2.113,1
1.196,-0.041,2.51,1
1.215,-0.174,2.523,1
1.327,-0.465,2.449,1
1.482,-1.013,2.847,1
1.514,-1.344,3.155,1
1.155,-1.501,3.224,1
0.889,-1.42,2.805,1
0.832,-1.204,1.728,1
0.9,-1.02,0.799,1
0.836,-0.863,-0.383,1
0.806,-0.73,-0.861,1
0.838,-0.788,-1.306,1
0.871,-0.941,-1.227,1
0.86,-1.186,-0.763,1
0.905,-1.32,-0.499,1
1.052,-1.37,-0.51,0
1.126,-1.382,-0.624,0
0.982,-1.4,-0.829,0
0.869,-1.303,-1.045,0
0.904,-1.053,-1.663,0
1.073,-0.89,-1.919,0
1.343,-0.387,-1.858,0
1.461,-0.138,-1.734,0
1.388,0.018,-1.675,0
1.078,0.06,-1.458,0
0.677,0.031,-1.519,0
0.254,-0.078,-1.722,0
-0.117,-0.02,-1.875,0
-0.129,0.038,-1.798,0
0.059,0.14,-1.304,0
0.123,0.172,-0.77,0
0.188,0.154,0.115,0
0.327,0.099,0.443,0
0.478,0.063,0.706,0
0.561,0.035,0.865,0
0.697,-0.077,0.896,0
0.82,0.015,0.829,0
1.081,0.093,0.766,0
1.297,0.182,0.626,0
1.333,0.438,-0.148,0
1.074,0.379,-0.501,0
0.932,0.258,-0.501,0
1.004,0.274,-0.154,0
1.191,0.244,0.596,0
1.325,0.212,1.196,0
1.406,0.272,1.899,0
1.328,0.086,2.69,0
1.297,-0.337,3.308,0
1.289,-0.397,3.308,1
1.278,-0.467,3.332,1
0.69,0.365,1.702,1
0.727,0.524,0.682,1
0.759,0.58,0.478,1
0.533,0.438,0.715,1
0.458,0.077,1.105,1
0.364,-0.667,2.295,1
0.616,-1.038,2.894,1
1.143,-1.563,3.626,1
1.274,-1.8,3.961,1
1.38,-1.762,3.465,1
1.573,-1.502,2.424,1
1.514,-1.14,0.504,1
1.234,-0.997,-0.745,1
0.783,-0.951,-1.402,1
0.721,-0.926,-1.458,1
0.727,-0.973,-1.395,1
0.81,-1.069,-1.328,1
1.09,-1.205,-0.78,1
1.281,-1.247,-0.129,1
1.231,-1.542,0.375,0
1.197,-1.636,0.201,0
1.181,-1.468,-0.568,0
1.231,-1.372,-0.979,0
1.447,-1.207,-1.313,0
1.554,-1.056,-1.397,0
1.613,-0.939,-2.016,0
1.527,-0.908,-2.418,0
1.257,-0.955,-2.198,0
1.131,-0.984,-1.869,0
0.825,-1.002,-1.801,0
0.683,-0.888,-1.811,0
0.715,-0.669,-1.821,0
0.713,-0.58,-1.941,0
0.807,-0.39,-1.866,0
0.862,-0.295,-1.519,0
0.896,-0.302,-0.76,0
0.832,-0.374,-0.638,0
0.605,-0.421,-0.85,0
0.544,-0.418,-1.153,0
0.557,-0.401,-1.38,0
0.616,-0.343,-1.38,0
0.832,-0.272,-1.328,0
0.847,-0.24,-0.974,0
0.92,-0.265,0.248,0
0.914,-0.183,0.98,0
0.596,-0.268,1.299,0
0.389,-0.196,0.961,0
0.415,0.072,0.103,0
0.654,0.272,-0.479,0
1.021,0.532,-0.67,0
1.278,0.52,-0.684,0
1.465,0.41,-0.011,0
1.646,0.26,0.994,0
1.623,-0.152,2.353,0
1.416,-0.464,2.915,1
0.636,-0.465,3.324,1
-0.196,0.132,2.883,1
-0.218,0.566,0.839,1
0.562,0.601,0.14,1
1.592,1.205,0.477,1
1.836,1.345,1.319,1
1.397,1.01,2.871,1
1.191,0.264,3.515,1
1.652,-0.5,3.991,1
2.44,-0.763,4.366,1
3.147,-1.154,5.156,1
2.983,-1.409,5.607,1
2.082,-1.753,5.099,1
1.618,-1.808,3.966,1
1.301,-1.486,1.577,1
1.202,-1.3,0.194,1
1.088,-1.101,-1.151,1
1.144,-1.096,-1.361,1
1.253,-0.925,-0.818,1
1.516,-0.711,-0.302,1
1.899,-0.475,-0.356,0
1.91,-0.479,-0.564,0
1.841,-0.588,-0.956,0
1.781,-0.563,-1.127,0
1.792,-0.548,-1.131,0
1.909,-0.358,-1.443,0
1.966,-0.244,-1.606,0
1.93,-0.205,-1.751,0
1.995,-0.169,-2.106,0
2.036,-0.079,-2.026,0
1.865,-0.056,-1.468,0
1.749,-0.089,-1.42,0
1.528,-0.103,-1.648,0
1.321,-0.146,-1.708,0
1.184,-0.119,-1.633,0
1.146,-0.01,-1.585,0
1.167,-0.009,-1.582,0
1.244,0.102,-1.511,0
1.34,0.215,-1.275,0
1.363,0.233,-1.034,0
1.361,0.233,-1.034,0
1.491,0.168,-0.392,0
1.632,0.256,0.306,0
1.787,0.142,0.887,0
1.802,0.116,1.256,0
1.648,0.055,1.292,0
1.284,-0.105,1.385,0
1.053,-0.228,1.464,0
1.017,-0.129,1.31,0
1.151,0.108,1.321,0
1.461,0.436,1.306,0
1.483,0.423,1.241,0
1.878,0.676,1.445,0
2.167,0.879,1.911,0
2.033,1.062,2.459,0
1.654,0.962,2.134,0
0.653,0.551,0.871,0
-0.017,0.331,0.562,1
-1.047,0.6,0.55,1
-1.226,0.758,0.375,1
-0.402,0.483,0.122,1
0.991,0.043,0.809,1
2.662,-0.819,3.475,1
3.001,-1.397,6.018,1
2.521,-1.895,8.43,1
2.051,-1.806,8.442,1
1.521,-1.471,4.604,1
1.189,-1.125,1.211,1
0.982,-0.406,-1.967,1
1.201,-0.152,-2.575,1
1.166,-0.076,-2.696,1
0.962,-0.114,-1.966,1
0.862,-0.423,-0.572,1
0.972,-0.63,-0.104,1
1.18,-0.723,-0.476,1
1.286,-0.765,-0.864,1
1.524,-0.713,-1.473,1
1.701,-0.56,-1.841,1
1.821,-0.383,-2.332,0
1.74,-0.36,-2.24,0
1.455,-0.399,-2.008,0
1.36,-0.303,-2.189,0
1.245,-0.186,-2.554,0
1.272,-0.071,-2.864,0
0.961,-0.001,-2.49,0
0.837,0.022,-2.081,0
1.005,0.108,-1.878,0
1.038,0.168,-1.836,0
1.108,0.209,-1.295,0
1.35,0.253,-0.886,0
1.53,0.354,-0.447,0
1.577,0.385,-0.306,0
1.271,0.235,-0.657,0
1.032,0.125,-0.907,0
0.618,-0.063,-1.043,0
0.475,-0.134,-1.061,0
0.543,-0.111,-1.331,0
0.676,0.01,-1.26,0
0.829,0.047,-0.552,0
0.771,0.028,0.002,0
0.782,0.051,0.237,0
0.874,0.146,0.2,0
0.734,0.337,0.344,0
0.708,0.43,0.446,0
0.608,0.458,0.328,0
0.505,0.418,0.443,0
0.523,0.112,1.039,0
0.577,-0.098,1.683,0
0.573,-0.209,2.78,0
0.367,-0.168,3.274,0
-0.546,0.816,2.479,0
-0.443,1.175,0.897,1
0.486,1.122,-0.693,1
0.76,1.206,-0.473,1
0.932,1.121,1.14,1
0.513,0.661,2.918,1
0.199,-0.454,4.227,1
0.186,-1.033,5.264,1
0.743,-1.759,6.444,1
1.344,-1.885,6.682,1
1.516,-1.452,6.221,1
1.421,-1.161,5.329,1
1.232,-0.812,2.902,1
1.102,-0.569,1.463,1
1.081,-0.116,-0.37,1
1.031,0.109,-0.972,1
0.903,0.068,-1.34,1
0.882,-0.038,-1.207,1
1.05,-0.029,-0.928,1
1.151,-0.055,-1.112,1
1.113,-0.122,-1.643,1
1.055,-0.132,-1.939,1
1.042,-0.137,-2.633,0
0.992,-0.165,-2.679,0
0.967,-0.077,-2.305,0
0.925,-0.042,-2.007,0
0.907,-0.039,-1.722,0
0.88,-0.004,-1.752,0
0.682,-0.002,-1.987,0
0.469,-0.047,-2.225,0
0.212,0.024,-2.58,0
0.312,0.189,-2.715,0
0.412,0.383,-2.618,0
0.433,0.402,-2.388,0
0.454,0.52,-2.043,0
0.339,0.489,-1.54,0
0.343,0.495,-1.542,0
0.047,0.086,-0.274,0
-0.135,-0.038,-0.107,0
0.122,0.125,-0.212,0
0.405,0.392,-0.152,0
0.519,0.41,0.085,0
0.637,0.369,0.403,0
0.695,0.325,0.557,0
0.68,0.299,0.76,0
0.742,0.306,0.792,0
0.494,0.457,0.739,0
0.518,0.442,0.745,0
0.681,0.628,0.446,0
0.614,0.63,0.532,0
0.413,0.503,1.35,0
0.248,0.448,1.713,0
0.274,0.31,1.738,0
0.434,0.201,1.901,0
0.51,0.397,2.261,0
0.483,0.608,2.045,1
0.487,0.564,2.059,1
0.274,1.136,0.838,1
0.032,1.038,0.261,1
-0.401,1.139,0.382,1
-0.767,1.318,0.608,1
-0.699,1.369,0.455,1
-0.233,1.202,0.274,1
0.4,0.64,0.658,1
1.14,-0.464,2.422,1
1.027,-1.089,3.952,1
0.413,-1.837,5.929,1
0.005,-2,5.829,1
-0.206,-1.614,2.75,1
-0.046,-0.938,0.441,1
0.293,-0.182,-1.68,1
0.399,0.335,-2.891,1
0.553,0.85,-3.711,1
0.632,0.9,-3.57,1
0.684,0.674,-2.252,1
0.767,0.362,-1.356,1
0.763,-0.139,-0.694,0
0.692,-0.417,-0.701,0
0.662,-0.732,-1.011,0
0.594,-0.842,-1.229,0
0.769,-0.758,-1.6,0
0.889,-0.512,-2.013,0
1.095,-0.068,-2.596,0
1.047,0.089,-2.878,0
0.81,0.108,-3.272,0
0.611,0.096,-3.121,0
0.454,0.073,-2.582,0
0.286,0.021,-2.161,0
0.061,-0.012,-1.632,0
-0.078,0.031,-1.368,0
-0.105,0.141,-1.521,0
-0.206,0.21,-1.54,0
-0.474,0.115,-1.28,0
-0.463,0.126,-1.158,0
-0.325,0.271,-0.653,0
-0.218,0.348,-0.081,0
-0.223,0.226,0.438,0
-0.257,0.167,0.633,0
-0.137,0.224,0.67,0
0.172,0.356,0.503,0
0.306,0.522,0.319,0
0.242,0.524,0.401,0
0.076,0.314,0.872,0
-0.026,0.185,1.23,0
0.05,0.044,2.04,0
0.195,-0.16,2.587,0
0.202,-0.433,3.119,0
0.291,-0.517,3.221,0
0.968,-0.102,3.223,0
0.953,0.212,3.23,1
0.943,0.151,3.249,1
0.311,1.125,1.731,1
0.346,1.068,1.75,1
1.139,1.127,0.837,1
0.98,1.084,1.737,1
0.589,1.065,2.603,1
0.343,0.886,2.717,1
0.522,0.78,1.947,1
0.866,0.855,0.803,1
1.003,0.696,0.32,1
1.042,0.204,0.201,1
0.832,-0.189,0.704,1
0.528,-0.898,1.505,1
0.459,-1.148,1.557,1
0.424,-1.202,1.111,1
0.553,-1.113,0.563,1
0.451,-1.221,-0.321,1
0.325,-1.377,-0.756,1
0.339,-1.344,-0.765,1
0.021,-1.613,-0.891,1
0.035,-1.521,-0.853,0
-0.007,-1.418,-0.947,0
0.118,-1.21,-1.328,0
0.175,-0.997,-1.601,0
0.534,-0.63,-1.722,0
0.963,-0.238,-1.813,0
1.282,0.315,-1.978,0
1.217,0.399,-1.941,0
0.956,0.391,-1.73,0
0.711,0.361,-1.575,0
0.689,0.35,-1.573,0
0.177,0.316,-1.532,0
0.065,0.405,-1.824,0
-0.038,0.442,-1.865,0
0.131,0.47,-1.755,0
0.301,0.586,-1.659,0
0.752,0.979,-1.164,0
0.967,1.084,-0.874,0
0.727,0.894,-0.505,0
0.371,0.588,-0.355,0
0.293,0.426,-0.438,0
0.279,0.472,-0.455,0
0.237,0.479,-0.34,0
0.241,0.475,-0.288,0
0.123,0.475,-0.31,0
0.143,0.511,-0.272,0
0.301,0.606,-0.01,0
0.261,0.654,0.444,0
0.063,0.564,1.359,0
-0.106,0.357,1.719,0
-0.093,0.15,2.007,0
0.171,-0.026,2.102,0
0.254,-0.014,2.378,0
-0.187,0.294,2.631,1
-0.31,0.859,1.783,1
0.008,1.042,0.644,1
0.029,1.259,-0.049,1
-0.491,1.521,0.073,1
-1.036,1.674,0.161,1
-0.579,1.303,0.049,1
0.495,0.49,0.653,1
1.302,-0.245,2.541,1
1.936,-1.158,5.748,1
1.909,-1.579,7.308,1
1.513,-1.825,7.573,1
1.192,-1.708,5.849,1
0.921,-1.152,1.516,1
0.781,-0.696,-0.268,1
0.514,-0.68,-1.729,1
0.236,-0.656,-2.466,1
-0.09,-0.63,-2.318,1
0.024,-0.626,-1.523,1
0.534,-0.92,0.186,1
0.686,-1.036,0.448,1
0.8,-1.192,0.221,0
0.857,-1.197,-0.274,0
0.846,-1.216,-1.341,0
0.746,-1.191,-2.02,0
0.636,-1.05,-2.428,0
0.605,-0.826,-2.539,0
0.565,-0.639,-2.868,0
0.48,-0.523,-3.112,0
0.362,-0.44,-3.322,0
0.227,-0.425,-3.079,0
0.288,-0.306,-2.328,0
0.452,-0.095,-1.976,0
0.509,0.076,-1.753,0
0.515,0.172,-1.673,0
0.423,0.191,-1.712,0
0.263,0.16,-1.527,0
0.037,0.033,-0.84,0
-0.037,-0.013,-0.493,0
-0.122,0.016,-0.317,0
-0.044,0.101,-0.446,0
0.156,0.233,-0.964,0
0.195,0.317,-1.106,0
0.199,0.319,-1.107,0
0.718,0.486,-0.461,0
0.77,0.501,0.178,0
0.528,0.478,0.376,0
0.348,0.386,0.287,0
0.259,0.355,0.128,0
0.223,0.308,0.11,0
0.258,0.378,0.555,0
0.271,0.3,0.984,0
0.424,0.42,1.429,0
0.503,0.498,1.888,0
0.573,0.481,1.854,0
0.524,0.405,1.784,0
0.125,0.48,1.702,1
-0.483,0.918,1.175,1
-0.314,0.942,0.853,1
0.185,0.838,0.781,1
0.497,0.794,0.738,1
0.726,0.59,1.029,1
0.644,0.36,1.792,1
0.115,0.237,2.442,1
0.132,0.29,2.208,1
0.585,0.491,1.483,1
0.841,0.491,1.336,1
0.846,0.255,2.073,1
0.696,0.058,2.489,1
0.397,-0.05,2.259,1
0.116,-0.217,1.895,1
-0.131,-0.425,0.844,1
-0.176,-0.353,0.043,1
-0.16,-0.157,-0.991,1
-0.052,-0.099,-1.396,1
0.128,-0.047,-1.717,1
0.439,0.056,-1.896,1
0.747,-0.019,-1.683,0
0.625,-0.216,-1.105,0
0.466,-0.521,-0.097,0
0.306,-0.613,0.298,0
-0.071,-0.734,0.328,0
-0.212,-0.736,-0.074,0
-0.189,-0.55,-1.203,0
-0.101,-0.341,-1.678,0
0.108,0.048,-1.736,0
0.356,0.299,-1.79,0
0.437,0.595,-1.792,0
0.286,0.675,-1.546,0
0.105,0.591,-1.269,0
-0.102,0.488,-1.134,0
-0.329,0.438,-0.916,0
-0.245,0.486,-1.04,0
-0.152,0.547,-1.583,0
-0.199,0.462,-1.554,0
-0.162,0.374,-1.164,0
-0.094,0.347,-1.178,0
0.114,0.388,-1.002,0
0.27,0.439,-0.309,0
0.388,0.283,0.627,0
0.464,0.253,0.84,0
0.548,0.361,0.99,0
0.433,0.336,0.852,0
0.119,0.3,0.254,0
0.094,0.32,-0.094,0
0.115,0.429,0.028,0
0.212,0.426,0.555,0
0.285,0.292,1.382,0
0.299,0.154,1.676,0
0.408,0.06,2.352,0
0.489,0.088,2.826,0
0.299,0.462,2.942,0
0.135,0.739,2.037,1
-0.093,1.037,0.16,1
-0.225,1.152,-0.3,1
-0.437,1.487,-0.485,1
-0.655,1.524,-0.421,1
-0.451,0.977,-0.028,1
0.075,0.437,0.675,1
1.183,-0.588,2.893,1
1.404,-1.155,4.61,1
1.186,-1.945,6.866,1
1.024,-1.828,7.195,1
0.874,-1.358,5.357,1
0.502,-1.023,1.714,1
-0.209,-0.601,-1.639,1
-0.329,-0.485,-2.362,1
-0.799,-0.337,-2.995,1
-1.056,-0.247,-3.041,1
-1.174,-0.417,-2.129,1
-0.929,-0.523,-1.033,1
-0.15,-0.601,0.146,1
0.255,-0.502,0.47,1
0.463,-0.684,0.187,0
0.264,-0.824,-0.424,0
0.095,-0.884,-1.396,0
0.015,-0.873,-1.901,0
-0.08,-0.835,-2.388,0
-0.088,-0.767,-2.382,0
-0.353,-0.846,-2.214,0
-0.508,-0.905,-2.217,0
-0.605,-0.868,-2.164,0
-0.588,-0.611,-2.046,0
-0.21,-0.267,-2.02,0
-0.155,-0.029,-2.055,0
-0.266,0.212,-2.222,0
-0.329,0.283,-2.407,0
-0.533,0.428,-2.66,0
-0.529,0.422,-2.658,0
-0.786,0.38,-2.394,0
-0.806,0.32,-2.072,0
-0.829,0.163,-1.469,0
-0.596,0.163,-1.017,0
-0.466,0.19,-0.478,0
-0.441,0.148,-0.147,0
-0.238,0.219,0.195,0
-0.301,0.216,0.226,0
-0.425,0.209,0.632,0
-0.702,0.096,1.045,0
-1.091,-0.074,1.397,0
-0.98,0.003,1.13,0
-0.473,0.292,0.743,0
-0.042,0.506,0.697,0
0.198,0.474,0.815,0
0.189,0.438,1.226,0
0.497,0.681,2.257,0
0.369,0.885,2.735,0
0.37,1.326,2.58,0
0.784,1.462,2.019,1
1.04,1.45,1.142,1
1.01,1.212,1.003,1
0.563,0.486,2.036,1
0.162,0.146,2.822,1
0.164,-0.08,3.482,1
0.47,-0.142,3.418,1
0.993,-0.455,3.276,1
0.914,-0.654,3.497,1
0.609,-0.875,3.586,1
0.338,-0.95,3.198,1
0.218,-0.895,1.771,1
0.188,-0.782,0.78,1
0.093,-0.685,-0.116,1
0.109,-0.696,-0.579,1
0.007,-0.774,-1.084,1
0.105,-0.852,-1.111,1
0.407,-0.73,-0.948,1
0.793,-0.589,-0.831,1
1.04,-0.509,-0.895,1
0.87,-0.529,-1.126,1
0.855,-0.523,-1.128,0
0.377,-0.533,-1.457,0
0.261,-0.365,-1.777,0
0.169,-0.251,-1.934,0
0.174,-0.246,-1.935,0
0.22,0.126,-2.386,0
0.132,0.298,-2.286,0
0.151,0.485,-2.044,0
0.133,0.693,-1.798,0
0.091,0.743,-2.024,0
-0.023,0.836,-2.497,0
-0.019,0.846,-2.77,0
-0.19,0.732,-2.945,0
-0.261,0.638,-2.668,0
-0.363,0.46,-1.731,0
-0.319,0.439,-1.113,0
-0.231,0.477,-0.532,0
-0.23,0.435,-0.121,0
-0.16,0.402,0.204,0
0.019,0.434,0.223,0
0.103,0.369,0.323,0
0.073,0.334,0.51,0
0.015,0.42,0.757,0
-0.07,0.412,1.012,0
0.009,0.434,1.226,0
0.139,0.484,1.576,0
0.386,0.588,1.901,0
0.603,0.525,2.141,0
0.656,0.607,2.888,0
0.8,0.491,3.291,0
0.808,0.35,3.422,0
0.506,0.502,3.274,1
0.276,0.915,1.897,1
0.204,1.198,0.972,1
0.238,1.409,0.516,1
-0.163,1.718,0.228,1
-0.55,2.094,-0.706,1
-0.21,1.909,-1.363,1
0.869,0.735,-1.445,1
1.39,-0.24,0.586,1
1.526,-1.941,5.12,1
1.055,-2.588,7.636,1
0.984,-2.563,7.912,1
1.056,-1.914,5.384,1
0.748,-0.913,-0.07,1
0.525,-0.643,-2.175,1
0.275,-0.228,-3.605,1
0.137,-0.051,-3.825,1
0.138,-0.104,-3.229,1
0.232,-0.302,-1.898,1
0.488,-0.772,0.073,1
0.713,-0.906,0.402,1
0.902,-0.994,-0.058,0
0.985,-0.975,-0.769,0
0.977,-0.892,-1.61,0
0.885,-0.818,-2.003,0
0.614,-0.849,-1.925,0
0.509,-0.895,-1.662,0
0.616,-0.806,-1.766,0
0.69,-0.612,-1.659,0
0.674,-0.403,-1.098,0
0.67,-0.256,-0.867,0
0.423,-0.101,-1.068,0
0.358,0.026,-1.408,0
0.454,0.283,-2.135,0
0.504,0.412,-2.355,0
0.473,0.519,-2.486,0
0.315,0.46,-2.428,0
0.101,0.291,-2.278,0
-0.014,0.202,-1.962,0
-0.012,0.203,-1.962,0
-0.059,0.102,-1.371,0
-0.002,0.226,-0.941,0
0.087,0.249,-0.748,0
-0.142,0.234,-0.028,0
-0.312,0.049,0.45,0
-0.448,-0.053,1.057,0
-0.411,0.073,1.233,0
-0.301,0.113,1.213,0
-0.134,0.13,1.273,0
0.185,0.155,1.36,0
0.285,0.114,1.508,0
0.317,-0.159,2.273,0
0.16,-0.259,2.745,0
-0.018,-0.142,2.939,0
-0.482,0.404,2.845,0
-0.227,0.745,1.845,0
0.367,0.855,1.251,1
0.368,0.83,1.259,1
0.934,1.069,1.461,1
0.607,0.358,2.26,1
-0.04,-0.065,2.792,1
-0.575,-0.402,2.802,1
-0.414,-0.386,2.415,1
0.285,-0.169,1.674,1
0.887,0.014,1.493,1
0.883,0.029,1.488,1
1.255,0.177,1.229,1
0.983,-0.121,0.941,1
0.869,-0.35,0.924,1
0.721,-0.56,1.275,1
0.602,-0.707,1.469,1
0.599,-0.859,1.26,1
0.598,-0.931,0.727,1
0.577,-1.018,-0.026,1
0.545,-1.075,-0.244,1
0.561,-0.915,-0.688,1
0.641,-0.68,-1.185,1
0.758,-0.428,-1.783,0
0.696,-0.31,-1.928,0
0.424,-0.269,-2.043,0
0.196,-0.241,-1.897,0
0.017,-0.188,-1.578,0
-0.028,-0.055,-1.538,0
-0.196,0.057,-1.771,0
-0.227,0.136,-2.169,0
-0.356,0.29,-2.727,0
-0.326,0.392,-2.919,0
-0.005,0.65,-3.163,0
0.112,0.806,-3.194,0
0.029,0.692,-2.684,0
-0.097,0.465,-2.114,0
-0.421,0.095,-1.478,0
-0.565,-0.011,-1.079,0
-0.453,-0.033,-0.72,0
-0.333,0.083,-0.682,0
-0.109,0.283,-1.018,0
-0.066,0.406,-1.27,0
0.058,0.572,-1.616,0
0.149,0.63,-1.614,0
0.177,0.663,-0.949,0
0.043,0.617,-0.232,0
0.072,0.633,-0.235,0
-0.496,0.293,0.963,0
-0.492,0.306,1.298,0
-0.457,0.455,1.658,0
-0.348,0.62,2.241,0
-0.249,0.549,2.275,0
0.163,0.741,2.601,0
0.555,0.701,2.81,0
0.709,0.652,3.473,0
0.52,0.938,3.867,1
0.535,0.917,3.873,1
0.308,1.67,1.774,1
0.178,1.793,0.299,1
-0.128,1.971,-0.21,1
-0.192,1.928,-0.929,1
0.151,1.419,-0.91,1
0.744,0.381,1.158,1
1.267,-0.514,3.317,1
1.115,-1.371,6.165,1
0.904,-1.698,7.492,1
0.616,-1.597,6.039,1
0.592,-1.083,3.044,1
0.383,-0.242,-0.927,1
0.328,-0.109,-2.11,1
0.357,-0.134,-2.103,1
-0.298,0.078,-2.968,1
-0.69,-0.338,-2.379,1
-0.697,-0.699,-1.52,1
-0.258,-0.985,-0.577,1
0.042,-1.052,-0.375,1
0.331,-1.304,-0.409,0
0.366,-1.427,-0.649,0
0.289,-1.411,-1.269,0
0.294,-1.385,-1.475,0
0.282,-1.421,-1.457,0
0.213,-1.38,-1.579,0
0.05,-1.156,-1.815,0
-0.037,-1.045,-2.107,0
-0.108,-0.671,-2.414,0
-0.115,-0.434,-2.35,0
-0.114,-0.431,-2.351,0
-0.076,0.012,-2.613,0
-0.038,0.292,-2.759,0
0.016,0.39,-2.623,0
-0.05,0.448,-2.153,0
-0.224,0.383,-1.746,0
-0.471,0.18,-1.172,0
-0.639,-0.009,-0.728,0
-0.888,-0.188,-0.16,0
-0.874,-0.2,0.194,0
-0.627,0.038,0.5,0
-0.355,0.33,0.393,0
0.139,0.658,0.057,0
0.426,0.817,-0.196,0
0.302,0.809,0.126,0
0.272,0.797,0.129,0
-0.064,0.118,1.931,0
-0.152,-0.039,2.926,0
-0.074,-0.262,4.172,0
0.013,-0.174,4.412,0
0.174,0.376,3.991,0
-0.031,0.973,2.988,0
-0.137,1.487,0.825,0
-0.106,1.585,-0.012,1
-0.155,1.655,-0.429,1
-0.439,1.366,-0.109,1
-0.859,0.559,1.555,1
-1.174,-0.014,3.004,1
-1.136,-0.409,4.113,1
-0.967,-0.47,4.076,1
-0.469,-0.682,3.696,1
-0.192,-0.838,3.566,1
-0.073,-0.905,3.475,1
-0.012,-0.944,3.522,1
0.057,-1.066,3.147,1
0.069,-1.055,3.144,1
0.119,-0.824,1.191,1
0.15,-0.72,0.693,1
0.228,-0.723,0.019,1
0.369,-0.65,-0.655,1
0.577,-0.471,-1.535,1
0.741,-0.398,-2.092,1
0.795,-0.445,-2.561,1
0.744,-0.535,-2.836,1
0.539,-0.804,-2.559,0
0.416,-0.953,-2.066,0
0.198,-1.081,-1.41,0
0.044,-1.149,-1.146,0
-0.24,-1.198,-1.114,0
-0.332,-1.158,-1.428,0
-0.351,-0.929,-2.145,0
-0.328,-0.682,-2.633,0
-0.187,-0.333,-2.762,0
-0.099,-0.206,-2.569,0
-0.037,-0.082,-2.266,0
-0.076,-0.103,-2.143,0
-0.187,-0.085,-1.784,0
-0.262,-0.108,-1.614,0
-0.355,-0.161,-1.336,0
-0.425,-0.183,-1.038,0
-0.342,-0.139,-0.948,0
-0.145,0.031,-1.1,0
0.087,0.267,-1.375,0
0.393,0.335,-1.506,0
0.685,0.53,-1.08,0
0.737,0.494,-0.666,0
0.694,0.361,-0.159,0
0.399,0.332,0.098,0
0.045,0.262,0.34,0
-0.134,0.258,0.537,0
-0.165,0.289,0.41,0
-0.049,0.464,0.282,0
0.338,0.699,0.191,0
0.337,0.695,0.546,0
0.329,0.669,0.555,0
-0.122,0.349,2.607,0
-0.492,0.712,3.292,0
-0.284,0.959,3.348,1
-0.007,1.087,2.107,1
-0.157,1.106,0.969,1
-0.146,1.083,0.976,1
-0.456,0.962,-0.055,1
0.237,0.964,0.271,1
0.8,0.885,1.394,1
1.508,0.211,3.434,1
1.205,-0.344,4.838,1
0.893,-1.259,6.428,1
0.582,-1.552,6.877,1
0.336,-1.403,5.102,1
0.142,-1.074,2.669,1
-0.206,-0.592,-0.187,1
-0.166,-0.377,-1.127,1
-0.644,-0.253,-2.367,1
-0.897,-0.163,-2.878,1
-0.91,-0.217,-2.405,1
-0.705,-0.353,-1.485,1
-0.458,-0.577,-0.204,1
-0.354,-0.819,0.035,1
-0.329,-1.182,-0.25,0
-0.317,-1.275,-0.491,0
-0.157,-1.18,-1.058,0
-0.105,-1.038,-1.392,0
-0.103,-0.849,-1.913,0
-0.199,-0.795,-2.067,0
-0.172,-0.698,-2.336,0
-0.164,-0.49,-2.586,0
-0.122,-0.25,-2.738,0
-0.103,-0.139,-2.629,0
-0.141,-0.026,-2.474,0
-0.222,0.037,-2.401,0
-0.364,0.03,-2.225,0
-0.376,0.065,-2.193,0
-0.208,0.308,-2.308,0
-0.264,0.365,-2.31,0
-0.283,0.374,-2.117,0
-0.428,0.3,-1.809,0
-0.803,0.064,-1.475,0
-0.923,-0.035,-1.311,0
-1.028,-0.119,-0.623,0
-1.022,-0.137,-0.135,0
-0.86,-0.106,0.282,0
-0.873,-0.024,0.577,0
-0.782,0.076,0.921,0
-0.696,0.216,1.08,0
-0.509,0.378,1.019,0
-0.368,0.449,1.016,0
-0.009,0.53,1.165,0
0.188,0.468,1.21,0
0.556,0.402,1.671,0
0.525,0.271,2.385,0
0.495,0.006,2.644,0
0.254,0.077,2.743,0
-0.079,0.479,3.201,0
0.089,0.594,2.948,1
0.305,0.839,1.942,1
0.351,0.959,1.683,1
0.622,0.863,1.96,1
0.64,0.65,2.437,1
0.396,0.427,3.429,1
0.285,0.381,3.347,1
0.354,0.423,2.616,1
0.54,0.437,1.905,1
0.577,0.247,1.229,1
0.511,0.109,1.127,1
0.219,-0.166,0.689,1
0.08,-0.358,0.268,1
-0.053,-0.587,-0.176,1
-0.157,-0.645,-0.443,1
-0.189,-0.709,-0.891,1
-0.157,-0.802,-1.064,1
-0.162,-0.98,-1.067,1
-0.141,-1.085,-1.103,1
0.016,-1.201,-1.117,1
0.177,-1.143,-1.001,1
0.186,-1.123,-0.623,0
0.074,-1.174,-0.492,0
0.059,-0.975,-0.808,0
0.064,-0.759,-1.38,0
0.051,-0.415,-1.965,0
0.082,-0.224,-2.209,0
0.385,0.041,-3.217,0
0.517,0.369,-3.445,0
0.481,0.679,-3.069,0
0.411,0.628,-2.693,0
0.099,0.524,-2.429,0
-0.045,0.519,-2.417,0
-0.352,0.201,-1.92,0
-0.584,0.029,-1.292,0
-0.642,-0.083,-0.602,0
-0.55,0.064,-0.249,0
-0.219,0.279,0.011,0
-0.035,0.304,-0.085,0
-0.086,0.307,-0.284,0
-0.104,0.265,-0.137,0
-0.18,-0.017,0.416,0
-0.234,-0.158,0.825,0
-0.439,-0.096,1.053,0
-0.51,-0.143,1.296,0
-0.511,-0.127,1.259,0
-0.268,0.096,0.942,0
0.101,0.572,0.552,0
0.283,0.729,0.633,0
0.531,0.772,1.438,0
0.621,0.415,2.184,0
0.473,0.083,3.272,0
0.061,0.323,3.751,1
-0.052,0.934,3.345,1
0.004,1.316,2.24,1
-0.144,2.263,0.769,1
-0.116,2.67,-0.285,1
0.668,2.326,-1.955,1
1.051,1.701,-1.128,1
1.326,-0.129,3.213,1
1.118,-1.418,6.689,1
1.185,-2.229,10.191,1
1.219,-2.239,10.629,1
1.109,-1.729,6.773,1
0.844,-1.507,3.008,1
0.599,-0.959,-0.82,1
0.507,-0.772,-2.103,1
-0.27,-0.608,-3.182,1
-0.687,-0.533,-3.08,1
-1.057,-0.789,-1.797,1
-1.004,-0.923,-0.511,1
-0.507,-0.997,0.28,1
-0.403,-1.079,0.085,1
-0.357,-1.232,-0.211,0
-0.432,-1.358,-0.4,0
-0.48,-1.345,-1.042,0
-0.481,-1.23,-1.565,0
-0.52,-1.082,-1.959,0
-0.477,-0.941,-1.913,0
-0.412,-0.839,-2.114,0
-0.295,-0.664,-2.535,0
-0.185,-0.431,-3.017,0
-0.135,-0.298,-3.035,0
-0.06,-0.111,-3.098,0
0.006,-0.041,-3.109,0
-0.002,0.007,-2.968,0
0.107,0.066,-2.879,0
0.013,0.226,-2.309,0
-0.02,0.207,-1.774,0
-0.12,0.153,-0.904,0
-0.147,0.2,-0.471,0
-0.144,0.335,-0.222,0
-0.155,0.391,-0.306,0
-0.189,0.43,-0.719,0
-0.114,0.498,-1.203,0
-0.133,0.444,-1.329,0
-0.135,0.392,-0.8,0
-0.293,0.266,0.192,0
-0.479,0.098,0.923,0
-0.884,-0.116,1.846,0
-0.945,-0.074,2.179,0
-0.771,0.171,2.378,0
-0.516,0.342,2.202,0
-0.008,0.934,1.899,0
0.442,1.463,1.474,0
1.248,2.242,0.356,0
1.564,2.36,-0.125,0
1.326,1.868,-0.092,0
1.085,1.166,0.585,1
0.623,-0.165,3.111,1
0.072,-1.268,4.473,1
-1.018,-2.607,6.505,1
-1.314,-2.799,7.668,1
-0.7,-2.394,7.935,1
0.529,-1.454,6.539,1
1.748,-0.079,3.547,1
2.14,0.372,1.199,1
2.189,0.947,-0.451,1
1.968,1.037,-0.72,1
1.507,0.879,-0.572,1
1.246,0.664,-0.389,1
0.895,0.466,-0.369,1
0.955,0.464,-0.367,1
1.086,0.178,-1.045,1
1.295,0.12,-1.367,1
1.489,-0.055,-1.529,1
1.488,-0.319,-1.378,1
1.484,-0.337,-1.373,1
1.037,-0.961,-0.66,1
0.655,-1.241,-0.666,0
0.381,-1.368,-0.739,0
0.227,-1.391,-1.231,0
0.186,-1.299,-1.762,0
0.057,-1.134,-2.233,0
0.02,-1.023,-2.52,0
0.121,-0.861,-2.48,0
0.195,-0.794,-2.073,0
0.404,-0.515,-1.687,0
0.645,-0.274,-1.941,0
0.767,0.016,-2.003,0
0.63,-0.075,-1.838,0
0.636,0.012,-2.054,0
0.631,0.272,-2.344,0
0.637,0.237,-2.333,0
0.531,0.396,-1.871,0
0.488,0.411,-1.643,0
0.523,0.48,-1.514,0
0.698,0.623,-1.346,0
0.774,0.688,-0.937,0
0.713,0.72,-0.108,0
0.684,0.672,0.269,0
0.539,0.59,0.789,0
0.397,0.601,0.996,0
0.384,0.568,0.81,0
0.293,0.539,0.967,0
0.514,0.727,1.279,0
0.627,0.747,1.481,0
0.427,0.657,1.88,0
0.271,0.399,2.612,0
0.199,0.088,3.341,0
0.008,-0.028,3.269,1
-0.696,0.295,2.598,1
-0.773,0.704,1.75,1
-0.318,1.198,0.523,1
-0.003,1.583,-0.582,1
0.45,2.043,-1.977,1
0.564,1.817,-1.874,1
0.559,1.85,-1.886,1
0.486,0.077,2.205,1
0.229,-0.825,4.089,1
0.143,-1.404,4.935,1
-0.082,-1.779,4.631,1
-0.115,-1.559,3.217,1
0.295,-0.762,0.197,1
0.495,-0.425,-0.918,1
0.572,0.042,-1.464,1
0.574,0.335,-1.482,1
0.467,0.453,-1.311,1
0.418,0.472,-0.927,1
0.38,0.492,-0.934,1
0.278,0.062,-0.2,1
0.207,-0.227,0.191,0
0.241,-0.394,0.285,0
0.462,-0.428,0.052,0
0.612,-0.341,-0.391,0
0.741,-0.336,-0.997,0
0.676,-0.411,-1.414,0
0.527,-0.419,-1.77,0
0.532,-0.431,-2.074,0
0.534,-0.388,-2.474,0
0.413,-0.378,-2.426,0
0.043,-0.518,-1.824,0
-0.108,-0.595,-1.331,0
-0.312,-0.397,-0.925,0
-0.405,-0.222,-1.222,0
-0.349,0.093,-1.795,0
-0.19,0.333,-2.034,0
-0.054,0.499,-1.986,0
-0.074,0.416,-1.387,0
-0.205,0.136,-0.334,0
-0.261,0.067,0.046,0
-0.257,0.039,0.055,0
0.013,0.173,0.207,0
0.443,0.411,-0.155,0
0.643,0.497,-0.383,0
0.739,0.454,-0.358,0
0.859,0.377,-0.31,0
0.616,0.219,0.023,0
0.446,0.158,0.404,0
0.142,-0.062,1.257,0
-0.063,-0.173,1.705,0
-0.042,-0.172,1.765,0
0.055,-0.106,1.602,0
0.105,-0.024,1.483,0
0.236,0.002,1.413,0
0.296,-0.09,1.775,0
0.132,-0.229,2.224,1
0.137,-0.256,2.235,1
-0.674,0.45,1.238,1
-0.103,0.433,0.388,1
0.362,0.183,0.579,1
1.083,0.095,1.754,1
1.324,-0.153,2.546,1
0.71,-0.404,3.057,1
0.03,-0.237,2.872,1
-0.187,-0.075,1.061,1
-0.202,0,-0.329,1
-0.168,0.001,-0.328,1
0.393,0.543,-1.637,1
0.41,0.522,-1.618,1
0.129,0.137,-1.021,1
-0.19,-0.568,-0.239,1
-0.212,-0.792,-0.192,1
-0.2,-1.17,-0.073,1
-0.091,-1.457,0.035,1
-0.139,-1.575,-0.05,1
-0.205,-1.567,-0.327,1
-0.196,-1.532,-0.34,0
-0.327,-1.35,-1.224,0
-0.366,-1.175,-1.381,0
-0.413,-0.961,-1.324,0
-0.425,-0.677,-1.22,0
-0.505,-0.565,-1.242,0
-0.559,-0.333,-1.081,0
-0.496,-0.191,-1.068,0
-0.385,-0.014,-1.08,0
-0.351,0.091,-1.109,0
-0.241,0.231,-1.443,0
-0.207,0.326,-1.656,0
-0.259,0.387,-1.769,0
-0.359,0.378,-1.848,0
-0.625,0.249,-2.01,0
-0.748,0.187,-1.984,0
-0.745,0.137,-1.896,0
-0.711,0.101,-1.67,0
-0.733,0.009,-1.061,0
-0.61,0.016,-0.881,0
-0.365,0.228,-0.804,0
-0.323,0.286,-0.893,0
-0.373,0.453,-1.045,0
-0.502,0.524,-1.24,0
-0.905,0.641,-1.455,0
-1.035,0.669,-1.268,0
-1.154,0.672,-0.435,0
-1.147,0.703,0.122,0
-0.898,0.606,0.746,0
-0.736,0.536,1.205,0
-0.536,0.509,2.103,0
-0.476,0.306,2.78,0
-0.4,0.173,3.588,0
-0.918,0.58,3.99,1
-1.352,1.38,2.619,1
-1.279,1.65,1.036,1
-1.085,1.983,-0.206,1
-1.14,2.514,-0.581,1
-0.267,2.511,-1.209,1
0.406,1.8,-0.165,1
0.824,-0.01,3.314,1
0.63,-1.429,6.502,1
0.368,-2.45,9.821,1
0.163,-2.512,9.811,1
0.231,-1.728,6.191,1
0.221,-1.213,3.013,1
0.057,-0.645,-0.295,1
0.087,-0.259,-1.613,1
-0.166,0.175,-2.76,1
-0.599,-0.007,-3.09,1
-1.008,-0.611,-2.614,1
-0.915,-1.034,-1.862,1
-0.359,-1.308,-0.62,1
-0.01,-1.289,-0.042,1
0.454,-1.263,0.227,0
0.334,-1.287,-0.416,0
0.179,-1.344,-2.049,0
0.081,-1.213,-2.815,0
0.056,-1.099,-2.821,0
-0.095,-1.071,-2.865,0
-0.145,-1.004,-3.301,0
-0.249,-0.858,-3.061,0
-0.199,-0.656,-1.891,0
-0.037,-0.419,-1.603,0
0.013,-0.039,-1.914,0
-0.024,0.128,-2.081,0
0.014,0.336,-2.145,0
0.034,0.462,-2.29,0
0.157,0.687,-2.383,0
0.276,0.787,-2.419,0
0.368,0.696,-2.022,0
0.451,0.64,-1.382,0
0.36,0.379,0.077,0
0.249,0.15,0.676,0
-0.099,-0.099,1.339,0
-0.142,-0.155,1.949,0
0.105,-0.103,2.295,0
0.249,-0.115,2.069,0
0.529,0.083,1.411,0
0.703,0.201,1.137,0
0.714,0.188,1.141,0
0.858,0.373,1.292,0
0.532,0.149,1.875,0
0.366,-0.143,1.961,0
0.097,-0.373,2.23,0
-0.056,-0.292,2.46,0
-0.529,0.202,2.08,0
-0.346,0.649,1.094,1
-0.345,0.606,1.109,1
0.691,1.265,0.395,1
0.809,1.076,1.25,1
0.714,0.521,2.381,1
-0.1,-0.391,3.384,1
-0.783,-0.757,3.973,1
-0.898,-0.932,4.41,1
-0.611,-0.695,4.167,1
0.035,-0.058,2.712,1
0.282,0.307,1.564,1
0.365,0.602,0.252,1
0.33,0.55,-0.219,1
0.095,0.306,-1.086,1
0.017,0.059,-1.422,1
0.013,-0.328,-0.837,1
0.086,-0.606,-0.225,1
-0.014,-1.057,0.526,1
-0.111,-1.307,0.703,1
-0.092,-1.375,0.144,1
-0.055,-1.303,-0.444,1
0.231,-0.983,-1.237,0
0.338,-0.771,-1.881,0
0.35,-0.783,-1.877,0
0.335,-0.515,-3.131,0
0.182,-0.553,-2.948,0
0.009,-0.683,-2.363,0
-0.263,-0.87,-1.11,0
-0.43,-0.967,-0.684,0
-0.671,-1.016,-0.458,0
-0.682,-0.907,-0.541,0
-0.316,-0.435,-1.219,0
-0.085,-0.068,-1.798,0
-0.217,0.147,-2.241,0
-0.4,0.084,-2.303,0
-0.587,-0.004,-2.408,0
-0.577,0.011,-2.411,0
-0.558,-0.002,-2.406,0
-0.368,0.08,-1.722,0
-0.311,-0.012,-0.523,0
-0.275,-0.052,0.067,0
-0.346,-0.093,0.392,0
-0.406,-0.139,0.377,0
-0.425,-0.183,0.391,0
-0.106,0.215,-0.247,0
0.046,0.565,-0.829,0
0.101,0.668,-0.986,0
0.154,0.711,-0.848,0
0.138,0.632,-0.485,0
0.103,0.426,0.727,0
0.198,0.242,1.706,0
0.212,0.021,2.567,0
0.295,-0.095,3.237,0
0.597,-0.167,3.822,0
0.592,0.104,3.589,1
0.088,0.973,1.851,1
0.023,1.369,0.608,1
0.459,1.737,-1.056,1
0.669,1.925,-1.874,1
0.191,2.14,-1.845,1
-0.184,1.763,-1.177,1
-0.516,0.565,0.846,1
-0.324,-0.556,2.578,1
0.037,-1.794,5.51,1
0.215,-2.054,6.741,1
0.593,-1.839,6.4,1
0.854,-1.188,4.438,1
0.711,-0.37,-0.183,1
0.277,-0.29,-1.806,1
-0.127,-0.087,-2.545,1
-0.45,0.11,-2.672,1
-0.68,0.219,-2.448,1
-0.724,0.091,-1.891,1
-0.474,-0.417,-0.298,1
-0.222,-0.59,0.305,1
0.131,-0.714,0.235,0
0.249,-0.82,0.096,0
0.506,-0.759,-0.055,0
0.466,-0.721,-0.47,0
0.504,-0.656,-1.084,0
0.427,-0.545,-1.386,0
0.246,-0.502,-1.645,0
0.234,-0.468,-1.873,0
0.365,-0.212,-2.27,0
0.538,-0.024,-2.307,0
0.591,0.101,-2.06,0
0.527,0.144,-1.976,0
0.343,0.126,-1.928,0
0.133,0.112,-2.048,0
-0.126,0.12,-2.278,0
-0.374,0.133,-2.14,0
-0.69,0.065,-1.549,0
-0.945,-0.069,-1.14,0
-1.037,-0.25,-0.843,0
-0.885,-0.138,-0.795,0
-0.73,0.074,-0.478,0
-0.552,0.099,-0.181,0
-0.576,0.086,-0.177,0
-0.388,0.224,0.518,0
-0.334,0.122,1.009,0
-0.396,0.027,1.131,0
-0.48,-0.112,1.141,0
-0.44,-0.216,0.995,0
-0.339,-0.15,0.919,0
-0.131,-0.202,1.142,0
0.226,-0.257,1.577,0
0.446,-0.139,2.065,0
0.599,0.121,2.542,0
0.408,0.624,2.354,0
0.773,1.282,0.939,0
1.106,1.355,0.32,1
1.11,1.33,0.328,1
1.314,1.055,-0.037,1
1.669,0.518,1.33,1
1.267,-0.019,2.836,1
0.326,-0.776,4.167,1
-0.104,-0.988,4.625,1
-0.414,-1.052,4.537,1
-0.281,-1.044,4.101,1
0.119,-0.663,3.206,1
0.461,-0.403,2.701,1
0.802,-0.255,1.944,1
0.808,-0.31,1.356,1
0.802,-0.301,0.52,1
0.982,-0.202,0.058,1
1.115,-0.292,-0.414,1
1.077,-0.42,-0.411,1
0.931,-0.695,-0.342,1
0.899,-0.831,-0.476,1
0.723,-1.02,-1.059,1
0.721,-1.085,-1.562,1
0.719,-1.126,-1.891,0
0.678,-1.04,-1.736,0
0.818,-0.854,-1.607,0
0.64,-0.743,-1.577,0
0.417,-0.592,-1.849,0
0.321,-0.481,-2.261,0
-0.048,-0.332,-2.645,0
-0.214,-0.246,-2.689,0
-0.215,-0.081,-3.066,0
-0.249,0.158,-3.205,0
-0.214,0.37,-2.916,0
-0.103,0.326,-2.655,0
-0.162,0.31,-1.922,0
-0.007,0.335,-1.267,0
0.134,0.454,-0.589,0
0.051,0.475,-0.236,0
-0.134,0.205,-0.302,0
-0.293,0.057,-0.684,0
-0.192,0.154,-1.11,0
-0.007,0.267,-1.048,0
-0.032,0.331,-0.422,0
-0.156,0.285,0.203,0
-0.367,0.347,1.069,0
-0.548,0.309,1.255,0
-0.99,0.177,1.022,0
-0.865,0.229,0.862,0
-0.519,0.501,1.057,0
-0.208,0.734,1.429,0
0.213,0.847,2.362,0
0.343,0.731,2.72,0
0.495,0.44,3.216,0
0.483,0.331,3.508,1
-0.157,0.816,3.256,1
-0.251,1.134,2.502,1
-0.341,1.402,1.185,1
-0.396,1.41,0.131,1
-0.651,1.642,-0.526,1
-0.725,1.782,-0.642,1
-0.625,1.433,0.051,1
-0.56,0.918,0.842,1
-0.105,-0.162,2.135,1
0.004,-0.553,2.961,1
0.175,-1.093,4.322,1
0.185,-1.23,4.48,1
0.101,-1.066,2.766,1
0.011,-0.815,0.632,1
-0.062,-0.447,-1.335,1
-0.074,-0.222,-2.16,1
-0.214,0.144,-2.839,1
-0.302,0.177,-2.746,1
-0.356,-0.131,-1.891,1
-0.275,-0.337,-1.207,1
0.003,-0.751,-0.399,0
0.068,-0.961,-0.247,0
0.202,-1.28,0.022,0
0.292,-1.33,0.008,0
0.341,-1.189,-0.604,0
0.391,-1.109,-1.176,0
0.384,-0.926,-1.87,0
0.581,-0.745,-2.287,0
0.619,-0.469,-2.674,0
0.598,-0.369,-2.774,0
0.473,-0.25,-2.761,0
0.296,-0.238,-2.374,0
0.144,-0.172,-2.016,0
0.142,-0.066,-2.31,0
-0.119,0.027,-2.402,0
-0.263,0.014,-2.251,0
-0.265,-0.028,-2.025,0
-0.292,0.138,-1.937,0
-0.126,0.294,-1.369,0
-0.117,0.238,-1.126,0
-0.191,0.116,-0.412,0
-0.264,0.023,0.207,0
-0.438,-0.313,1.039,0
-0.664,-0.377,1.434,0
-0.679,-0.468,1.686,0
-0.616,-0.445,1.685,0
-0.413,-0.313,1.47,0
-0.193,-0.146,1.191,0
0.036,-0.001,1.302,0
0.278,0.114,1.671,0
0.404,0.173,2.163,0
0.131,0.3,2.57,0
-0.364,0.787,2.124,0
-0.435,1.006,1.221,0
0.208,1.59,-0.433,0
0.537,1.827,-1.021,1
0.626,1.614,-1.141,1
0.289,1.09,-0.258,1
-0.504,-0.138,2.181,1
-0.402,-0.617,3.411,1
0.011,-1.129,4.989,1
0.137,-1.451,5.97,1
-0.028,-1.827,6.979,1
-0.078,-1.768,6.636,1
0.285,-1.253,4.544,1
0.814,-0.571,2.338,1
1.475,0.129,0.078,1
1.761,0.273,-0.617,1
2.034,0.401,-0.905,1
2.259,0.443,-0.695,1
2.307,0.265,-0.166,1
2.103,-0.032,-0.073,1
1.687,-0.614,-0.382,1
1.41,-0.933,-0.773,1
1.198,-1.152,-1.508,1
1.198,-1.123,-1.862,1
1.165,-0.991,-2.447,0
1.228,-0.876,-2.683,0
1.071,-0.71,-2.556,0
0.929,-0.698,-2.36,0
0.691,-0.504,-2.223,0
0.609,-0.374,-2.259,0
0.509,-0.16,-2.463,0
0.447,-0.097,-2.819,0
0.399,0.047,-3.206,0
0.424,0.143,-3.091,0
0.324,0.25,-2.202,0
0.35,0.226,-1.753,0
0.216,0.197,-1.299,0
0.148,0.189,-1.073,0
0.309,0.218,-0.753,0
0.4,0.248,-0.434,0
0.462,0.173,0.217,0
0.492,0.153,0.197,0
0.73,0.325,-0.289,0
0.772,0.392,-0.383,0
0.645,0.444,-0.156,0
0.647,0.544,-0.174,0
0.598,0.695,0.137,0
0.498,0.725,0.372,0
0.453,0.838,0.541,0
0.612,0.926,0.448,0
0.622,0.73,1.306,0
0.577,0.518,2.218,0
0.607,0.325,3.223,0
0.706,0.307,3.685,0
0,0.598,3.512,0
-0.358,0.896,2.43,1
-0.346,0.854,2.445,1
-0.322,1.618,0.323,1
-0.166,1.706,-1.05,1
-0.175,1.545,-1.153,1
-0.052,0.702,0.81,1
0.117,-0.063,2.707,1
0.447,-1.02,4.804,1
0.645,-1.377,5.939,1
0.918,-1.538,6.759,1
0.98,-1.461,5.662,1
1.073,-0.548,1.709,1
0.924,-0.048,-0.215,1
0.661,0.199,-1.72,1
0.32,0.317,-2.154,1
-0.017,0.318,-2.214,1
-0.195,0.012,-1.818,1
-0.466,-0.777,-0.414,1
-0.36,-1.13,0.2,1
-0.087,-1.488,0.286,1
0.047,-1.556,0.186,1
0.516,-1.473,-0.142,0
0.557,-1.413,-0.608,0
0.809,-1.17,-1.927,0
0.714,-0.998,-2.224,0
0.505,-0.779,-2.042,0
0.378,-0.759,-2.063,0
0.008,-0.704,-2.295,0
-0.159,-0.606,-2.314,0
-0.297,-0.531,-2.631,0
-0.156,-0.36,-3.234,0
0.029,-0.035,-3.339,0
0.12,0.114,-2.843,0
0.155,0.28,-2.099,0
0.126,0.282,-2.027,0
0.281,0.41,-1.976,0
0.145,0.396,-1.701,0
-0.096,0.119,-1.082,0
-0.054,0.058,-0.999,0
-0.235,0.092,-0.751,0
-0.346,0.028,-0.414,0
-0.329,-0.168,-0.007,0
-0.3,-0.096,0.169,0
-0.347,-0.018,0.697,0
-0.5,-0.107,1.038,0
-0.7,0.017,1.503,0
-0.466,0.101,1.287,0
-0.233,0.286,0.807,0
-0.005,0.375,0.737,0
0.222,0.339,1.258,0
0.339,0.344,1.867,0
0.679,0.334,3.036,0
0.55,0.391,3.052,0
0.146,0.831,2.082,0
0.07,0.992,1.656,1
0.093,0.979,1.661,1
0.477,1.173,0.695,1
0.705,1.225,0.622,1
0.609,1.125,1.352,1
0.214,0.746,2.826,1
0.008,0.586,3.241,1
-0.107,0.228,2.988,1
0.053,0.122,2.525,1
0.245,0.04,2.522,1
0.328,-0.162,2.814,1
0.193,-0.411,3.141,1
0.142,-0.416,2.681,1
0.237,-0.292,1.373,1
0.329,-0.162,0.641,1
0.522,-0.03,-0.23,1
0.666,-0.028,-0.817,1
0.976,0.005,-1.753,1
1.145,-0.021,-2.025,1
1.171,-0.347,-1.762,1
1.109,-0.603,-1.046,1
0.936,-0.869,-0.301,0
0.713,-1.036,-0.259,0
0.37,-1.138,-0.706,0
0.287,-1.015,-1.141,0
0.391,-0.683,-2.166,0
0.382,-0.478,-2.814,0
0.605,-0.076,-3.71,0
0.763,0.193,-4.019,0
0.812,0.507,-4.083,0
0.714,0.546,-3.477,0
0.372,0.312,-2.185,0
0.012,0.09,-1.619,0
-0.528,-0.19,-0.837,0
-0.72,-0.307,-0.46,0
-0.68,-0.224,-0.374,0
-0.456,0.005,-0.756,0
0.051,0.368,-1.449,0
0.214,0.52,-1.489,0
0.492,0.604,-1.42,0
0.544,0.543,-1.252,0
0.644,0.524,-0.708,0
0.631,0.427,-0.426,0
0.639,0.434,-0.427,0
-0.038,0.019,1.063,0
-0.497,-0.266,1.591,0
-0.684,-0.268,1.648,0
-0.392,0.015,1.149,0
-0.074,0.353,0.867,0
0.034,0.513,1.336,0
0.09,0.389,1.76,0
0.161,0.19,2.23,0
0.111,0.207,2.618,0
-0.256,0.59,2.656,0
-0.324,0.927,1.939,1
-0.495,1.26,0.936,1
-0.487,1.242,0.15,1
-0.546,1.292,-0.826,1
-0.563,1.185,-0.597,1
-0.208,0.547,0.775,1
-0.135,0.025,2.128,1
-0.274,-1.091,4.496,1
-0.262,-1.466,5.16,1
0.022,-1.265,4.536,1
0.408,-0.914,3.092,1
0.695,-0.112,0.399,1
0.795,0.268,-0.832,1
0.64,0.528,-1.871,1
0.412,0.62,-2.298,1
0.136,0.388,-2.334,1
0.085,0.117,-1.74,1
0.283,-0.39,-0.46,1
0.401,-0.567,0.19,1
0.427,-0.855,0.698,1
0.42,-0.954,0.697,1
0.491,-1.004,0.091,0
0.524,-0.892,-0.573,0
0.542,-0.814,-1.499,0
0.585,-0.785,-1.783,0
0.581,-0.674,-1.956,0
0.467,-0.677,-2.048,0
0.153,-0.779,-1.963,0
0.101,-0.754,-2.082,0
-0.013,-0.522,-2.628,0
-0.134,-0.332,-2.845,0
-0.067,0.055,-3.139,0
0.027,0.286,-3.153,0
-0.201,0.427,-2.712,0
-0.319,0.437,-2.263,0
-0.514,0.363,-1.636,0
-0.637,0.301,-1.242,0
-0.774,0.131,-0.613,0
-0.76,0.146,-0.148,0
-0.633,0.191,0.401,0
-0.534,0.215,0.448,0
-0.558,0.205,0.45,0
-0.228,0.466,0.29,0
-0.071,0.539,0.659,0
-0.024,0.549,0.919,0
0.016,0.632,1.369,0
0.009,0.565,1.821,0
-0.006,0.555,1.823,0
0.126,0.313,2.38,0
0.317,0.289,2.636,0
0.484,0.26,2.76,0
0.332,0.269,2.879,0
0.008,0.449,2.734,0
0.006,0.412,2.746,0
0.075,0.992,1.305,1
0.104,0.969,1.314,1
0.393,1.174,0.583,1
0.429,1.178,0.583,1
0.082,0.429,2.183,1
0.104,-0.014,2.982,1
0.148,-0.116,2.843,1
0.377,-0.312,2.293,1
0.405,-0.392,2.06,1
0.401,-0.372,1.66,1
0.456,-0.336,1.309,1
0.625,-0.192,0.308,1
0.691,-0.103,-0.51,1
0.758,-0.149,-1.259,1
0.713,-0.228,-1.249,1
0.543,-0.545,-0.655,1
0.531,-0.691,-0.362,1
0.324,-0.976,-0.084,1
0.199,-1.141,-0.059,1
0.076,-1.299,-0.341,1
0.026,-1.278,-0.561,1
0.334,-1.006,-0.97,0
0.339,-1.003,-0.97,0
0.693,-0.451,-1.695,0
0.802,-0.334,-1.963,0
0.787,-0.024,-2.124,0
0.747,0.082,-2.206,0
0.615,0.179,-2.549,0
0.489,0.255,-2.748,0
0.392,0.386,-2.724,0
0.212,0.31,-2.577,0
0.159,0.375,-2.607,0
0.199,0.525,-2.494,0
0.17,0.637,-2.118,0
0.134,0.627,-1.786,0
0.032,0.561,-0.934,0
0.032,0.499,-0.637,0
0.027,0.445,-0.296,0
-0.078,0.412,0.14,0
0.028,0.346,0.31,0
0.008,0.312,0.317,0
-0.204,0.264,0.681,0
-0.312,0.206,0.935,0
-0.595,0.184,1.299,0
-0.632,0.211,1.205,0
-0.552,0.39,0.498,0
-0.389,0.522,0.135,0
-0.366,0.493,0.145,0
0.275,0.646,1.201,0
0.452,0.54,2.273,0
0.254,0.489,2.466,0
-0.365,0.752,2.889,0
-0.38,0.948,2.732,1
-0.404,1.485,1.632,1
-0.48,1.655,1.129,1
-0.416,1.921,-0.005,1
-0.195,1.853,-0.469,1
0.359,1.186,0.468,1
0.426,0.381,2.369,1
0.289,-1.182,5.372,1
0.041,-1.88,6.987,1
-0.123,-2.472,7.522,1
-0.118,-2.251,6.004,1
-0.185,-1.439,1.595,1
-0.153,-1.064,-0.134,1
0.064,-0.422,-1.979,1
-0.13,-0.263,-2.544,1
-0.395,-0.256,-2.547,1
-0.487,-0.31,-2.013,1
-0.211,-0.612,-0.67,1
0.041,-0.803,-0.562,1
0.238,-1.017,-0.293,1
0.359,-1.168,-0.094,1
0.452,-1.286,0.007,0
0.435,-1.321,-0.35,0
0.417,-1.164,-1.486,0
0.366,-1.049,-2.07,0
0.379,-0.873,-2.403,0
0.361,-0.836,-2.713,0
0.41,-0.822,-2.714,0
0.214,-0.448,-3.465,0
0.303,-0.122,-3.428,0
0.418,0.031,-3.309,0
0.454,0.275,-2.986,0
0.499,0.446,-2.83,0
0.479,0.541,-2.307,0
0.296,0.48,-1.921,0
-0.017,0.334,-1.683,0
-0.138,0.318,-1.604,0
-0.307,0.242,-1.163,0
-0.316,0.234,-0.933,0
-0.401,0.321,-0.464,0
-0.47,0.329,-0.072,0
-0.556,0.299,0.207,0
-0.492,0.35,0.221,0
-0.501,0.335,0.574,0
-0.61,0.221,0.808,0
-0.796,0.004,1.207,0
-0.794,-0.053,1.591,0
-0.526,-0.098,2.174,0
-0.392,-0.122,2.178,0
-0.125,-0.085,2.233,0
0.144,-0.051,2.279,0
0.471,0.248,2.489,0
0.42,0.562,2.616,0
0.079,1.39,2.182,0
0.259,1.774,1.518,1
0.814,2.398,0.199,1
1.15,2.62,-0.528,1
1.365,2.207,-0.179,1
1.032,1.588,1.081,1
0.324,0.042,2.929,1
-0.143,-0.617,3.745,1
-0.291,-1.424,5.064,1
-0.318,-1.731,5.59,1
-0.444,-1.815,5.201,1
-0.444,-1.615,4.19,1
-0.181,-0.941,1.952,1
0.05,-0.695,0.954,1
0.39,-0.296,-0.48,1
0.486,-0.129,-1.234,1
0.581,-0.238,-1.601,1
0.589,-0.391,-1.141,1
0.629,-0.687,-0.028,1
0.7,-0.814,0.313,1
0.6,-0.914,0.346,1
0.498,-0.97,0.024,1
0.487,-0.989,0.028,0
0.643,-0.6,-1.519,0
0.832,-0.128,-2.372,0
0.858,0.048,-2.643,0
0.848,0.212,-2.943,0
0.779,0.291,-3.019,0
0.692,0.327,-2.909,0
0.467,0.229,-2.474,0
0.007,-0.064,-1.611,0
-0.229,-0.14,-1.421,0
-0.426,-0.211,-1.43,0
-0.323,-0.148,-1.54,0
-0.067,0.213,-1.819,0
0.16,0.384,-1.849,0
0.163,0.353,-1.84,0
0.407,0.594,-1.6,0
0.373,0.553,-1.161,0
0.334,0.479,-0.776,0
0.374,0.408,0.031,0
0.477,0.327,0.306,0
0.567,0.053,0.616,0
0.496,-0.045,0.819,0
0.523,-0.072,1.232,0
0.6,0.033,1.138,0
0.639,0.344,0.746,0
0.617,0.464,0.53,0
0.647,0.427,0.544,0
0.514,0.624,0.764,0
0.554,0.577,1.544,0
0.665,0.405,2.129,0
0.85,0.239,2.586,0
0.768,0.246,2.561,0
0.41,0.581,1.969,0
0.43,0.885,1.061,1
0.443,1.207,0.16,1
0.644,1.308,-0.002,1
0.479,1.635,-0.081,1
0.427,1.677,-0.246,1
0.565,0.997,0.103,1
0.718,0.326,1.044,1
0.929,-0.77,2.928,1
0.772,-1.286,3.809,1
0.218,-1.968,4.879,1
0.005,-2.04,4.269,1
0.082,-1.277,0.791,1
0.174,-0.845,-0.566,1
0.421,-0.402,-1.853,1
0.217,-0.143,-2.196,1
0.267,-0.109,-2.204,1
-0.36,-0.036,-1.95,1
-0.304,-0.377,-1.38,1
-0.224,-0.623,-0.957,1
0.01,-0.929,-0.163,1
0.096,-1.119,-0.071,1
0.141,-1.346,-0.108,0
0.255,-1.253,-0.29,0
0.437,-1.085,-0.972,0
0.493,-0.905,-1.549,0
0.565,-0.508,-2.138,0
0.554,-0.371,-2.277,0
0.387,-0.149,-2.378,0
0.3,-0.034,-2.55,0
0.249,0.173,-2.827,0
0.254,0.287,-2.789,0
0.373,0.384,-2.608,0
0.438,0.451,-2.341,0
0.379,0.375,-1.905,0
0.19,0.308,-1.588,0
-0.011,0.242,-1.132,0
-0.025,0.295,-0.899,0
-0.027,0.373,-0.614,0
-0.131,0.417,-0.513,0
-0.175,0.421,-0.264,0
-0.103,0.483,-0.033,0
0.023,0.566,0.335,0
0.086,0.558,0.395,0
0.064,0.548,0.397,0
0.112,0.354,0.927,0
-0.012,0.252,1.263,0
-0.049,0.269,1.386,0
0.173,0.387,1.104,0
0.292,0.392,0.99,0
0.418,0.293,1.354,0
0.417,0.271,1.361,0
0.657,0.347,2.362,0
0.772,0.278,2.632,0
0.757,0.247,2.641,1
-0.236,0.574,2.298,1
-0.234,0.536,2.311,1
0.138,0.864,0.664,1
0.721,0.813,0.693,1
0.96,0.67,1.205,1
1.005,-0.125,2.796,1
0.587,-0.602,3.841,1
-0.289,-0.966,4.216,1
-0.285,-0.862,3.362,1
0.279,-0.24,1.459,1
0.499,0.278,0.499,1
0.582,0.616,-0.563,1
0.613,0.666,-0.75,1
0.411,0.407,-0.721,1
0.299,0.168,-0.791,1
0.201,0.004,-1.166,1
0.306,-0.105,-1.449,1
0.327,-0.073,-1.459,1
0.234,-0.654,-0.675,1
0.254,-0.841,-0.335,1
0.133,-0.861,-0.405,0
-0.019,-0.913,-0.464,0
-0.102,-0.939,-0.79,0
-0.121,-0.797,-1.622,0
-0.108,-0.513,-1.901,0
0.002,-0.266,-2.041,0
0.15,-0.07,-1.966,0
0.372,0.257,-1.865,0
0.467,0.427,-1.818,0
0.463,0.431,-1.82,0
0.386,0.411,-1.824,0
0.224,0.348,-1.555,0
0.106,0.249,-1.614,0
0.159,0.376,-2.305,0
0.269,0.586,-2.822,0
0.204,0.694,-2.629,0
0.289,0.668,-2.349,0
0.342,0.697,-1.893,0
0.238,0.641,-1.504,0
0.265,0.532,-1.071,0
0.378,0.549,-0.649,0
0.286,0.387,0.319,0
0.217,0.265,0.915,0
0.119,0.179,1.271,0
-0.159,0.147,1.331,0
-0.117,0.318,0.848,0
-0.111,0.437,0.568,0
-0.153,0.374,0.839,0
-0.024,0.301,1.422,0
-0.01,0.115,2.649,0
0.061,-0.058,3.1,0
0.141,-0.225,2.905,0
0.042,-0.258,3.014,1
-0.399,0.142,3.118,1
-0.492,0.525,2.681,1
-0.158,1.166,1.453,1
0.296,1.489,0.927,1
0.883,2.141,0.619,1
0.856,2.288,0.472,1
0.491,1.469,1.061,1
0.366,0.456,2.129,1
0.55,-0.521,3.587,1
0.564,-0.917,4.426,1
0.339,-1.257,5.169,1
0.299,-1.191,4.597,1
0.264,-0.568,1.82,1
0.216,-0.228,0.447,1
0.239,0.184,-0.723,1
0.136,0.353,-1.355,1
0.104,0.479,-2.097,1
0.201,0.174,-2.118,1
0.259,-0.351,-1.511,1
0.35,-0.71,-0.964,1
0.549,-1.2,-0.333,0
0.449,-1.453,-0.042,0
0.513,-1.65,0.169,0
0.48,-1.564,-0.011,0
0.423,-1.422,-0.962,0
0.417,-1.155,-2.075,0
0.346,-0.904,-2.781,0
0.392,-0.742,-3.071,0
0.416,-0.386,-3.517,0
0.382,-0.249,-3.594,0
0.285,-0.182,-3.175,0
0.221,-0.222,-2.717,0
0.158,-0.16,-2.022,0
0.14,-0.055,-1.774,0
0.267,0.094,-1.728,0
0.264,0.286,-1.699,0
0.109,0.374,-1.525,0
-0.003,0.346,-1.361,0
-0.284,0.223,-0.669,0
-0.438,0.157,-0.074,0
-0.541,0.116,0.371,0
-0.543,0.165,0.373,0
-0.438,0.225,0.313,0
-0.289,0.275,0.315,0
-0.19,0.373,0.608,0
-0.174,0.452,0.651,0
-0.188,0.433,0.657,0
0.069,0.866,0.554,0
0.284,1.054,0.417,0
0.325,1.019,0.47,0
0.237,0.773,1.21,0
0.206,0.564,1.971,0
0.184,0.342,2.699,0
0.022,0.437,3.006,1
-0.406,0.901,2.822,1
-0.314,1.043,2.193,1
0.019,1.369,1.318,1
0.365,1.481,0.883,1
0.683,1.333,1.358,1
0.404,0.864,2.617,1
-0.196,-0.178,3.796,1
-0.688,-0.877,4.266,1
-0.842,-1.348,4.654,1
-0.792,-1.523,4.664,1
-0.579,-1.406,3.943,1
-0.21,-1.053,2.877,1
0.458,-0.332,1.032,1
0.871,0.046,0.11,1
1.465,0.501,-1.185,1
1.624,0.661,-1.715,1
1.463,0.522,-1.437,1
1.266,0.19,-0.807,1
1.09,-0.272,0.075,1
1.03,-0.454,0.321,1
0.676,-0.827,0.058,0
0.399,-1.063,-0.318,0
0.173,-1.164,-1.03,0
0.202,-1.034,-1.675,0
0.286,-0.702,-2.314,0
0.415,-0.446,-2.785,0
0.424,-0.082,-3.067,0
0.326,0.135,-3.204,0
0.18,0.286,-3.363,0
-0.001,0.349,-3.246,0
-0.232,0.369,-2.957,0
-0.302,0.317,-2.699,0
-0.335,0.161,-2.008,0
-0.268,0.119,-1.444,0
-0.142,0.136,-0.967,0
-0.082,0.088,-0.788,0
0.004,-0.027,-0.625,0
0.112,-0.078,-0.876,0
0.345,0.138,-1.466,0
0.468,0.35,-1.7,0
0.566,0.484,-1.576,0
0.514,0.457,-1.221,0
0.456,0.389,-0.753,0
0.51,0.438,-0.667,0
0.402,0.447,-0.174,0
0.282,0.367,0.344,0
0.223,0.336,0.724,0
0.329,0.402,0.606,0
0.427,0.601,0.456,0
0.568,0.729,0.508,0
0.841,0.858,0.724,0
0.976,0.968,1.192,0
0.87,0.969,1.994,0
0.326,1.007,2.712,0
-0.234,1.316,2.795,0
-0.219,1.642,1.832,0
-0.183,2.054,0.895,1
0.371,2.262,0.237,1
1.055,2.413,-0.336,1
1.428,1.934,0.894,1
1.419,0.404,3.48,1
0.911,-0.809,5.192,1
0.414,-2.165,7.358,1
0.151,-2.981,7.783,1
0.091,-2.747,6.389,1
0.292,-2.033,3.718,1
0.406,-0.826,0.291,1
0.571,-0.353,-1.232,1
0.309,0.197,-3.583,1
-0.08,0.327,-4.383,1
-0.551,0.063,-4.259,1
-0.53,-0.014,-3.311,1
0.04,-0.151,-1.575,1
0.651,-0.199,-0.693,1
0.896,-0.402,-0.337,1
0.988,-0.684,-0.511,1
0.978,-0.905,-0.752,1
0.847,-1.049,-0.622,0
0.498,-1.386,-0.57,0
0.146,-1.5,-0.512,0
0.165,-1.471,-0.521,0
-0.396,-1.46,-0.707,0
-0.547,-1.425,-1.416,0
-0.49,-1.208,-2.05,0
-0.21,-0.662,-2.594,0
-0.014,-0.378,-2.601,0
0.236,0.001,-2.219,0
0.284,0.138,-2.057,0
0.213,0.182,-2.022,0
0.012,0.114,-2.111,0
-0.309,-0.102,-1.958,0
-0.403,-0.177,-1.642,0
-0.267,-0.015,-1.372,0
-0.107,0.128,-1.208,0
-0.1,0.203,-0.58,0
-0.198,0.176,0.006,0
-0.193,0.189,0.002,0
-0.324,0.217,0.751,0
-0.36,0.349,0.848,0
-0.418,0.394,0.692,0
-0.446,0.364,0.701,0
-0.349,0.715,0.087,0
-0.365,0.91,-0.057,0
-0.316,0.842,0.115,0
-0.246,0.73,0.868,0
-0.09,0.703,1.58,0
0.3,0.757,2.269,0
0.298,0.913,2.426,0
0.098,1.284,2.58,0
0.394,1.514,2.036,0
0.604,1.821,0.695,1
0.673,1.834,0.143,1
0.416,1.248,0.643,1
0.154,0.577,1.873,1
-0.156,-0.231,3.555,1
-0.456,-0.769,4.515,1
-0.608,-1.238,5.055,1
-0.585,-1.445,4.769,1
-0.588,-1.368,3.509,1
-0.384,-1.106,2.272,1
0.049,-0.668,0.883,1
0.407,-0.446,0.137,1
0.706,-0.254,-0.901,1
0.838,-0.153,-1.537,1
0.931,-0.217,-2.053,1
0.883,-0.408,-2.125,1
0.834,-0.589,-1.456,1
0.957,-0.683,-0.845,1
1.008,-0.855,-0.494,1
0.858,-0.936,-0.682,1
0.656,-1.054,-1.197,1
0.578,-0.98,-1.424,0
0.583,-0.965,-1.428,0
0.477,-0.581,-1.806,0
0.468,-0.336,-2.214,0
0.424,-0.13,-2.47,0
0.426,0.105,-2.774,0
0.557,0.283,-2.755,0
0.581,0.538,-2.388,0
0.568,0.598,-2.25,0
0.376,0.508,-1.923,0
0.178,0.477,-1.548,0
0.021,0.45,-1.062,0
0.015,0.477,-0.918,0
0.007,0.49,-0.807,0
-0.019,0.471,-0.534,0
0.109,0.549,-0.194,0
0.252,0.643,-0.104,0
0.244,0.642,-0.104,0
0.732,0.897,-0.155,0
0.882,0.952,0.149,0
0.927,0.888,0.44,0
0.914,0.877,0.442,0
0.4,0.53,1.635,0
0.245,0.363,2.196,0
0.194,0.382,2.289,0
0.254,0.535,2.211,0
0.377,0.587,2.007,0
0.606,0.869,1.681,0
0.81,1.056,1.488,0
0.823,1.016,1.5,0
0.728,1.272,1.246,0
0.302,1.455,1.221,1
0.058,1.542,0.976,1
-0.036,1.686,0.676,1
0.159,1.754,0.577,1
0.539,1.86,0.902,1
0.913,1.673,1.527,1
1.371,1.095,2.463,1
1.614,0.566,3.044,1
1.558,-0.377,4.193,1
1.273,-0.979,5.425,1
0.986,-1.323,5.646,1
0.663,-1.176,4.166,1
0.38,-0.769,0.33,1
0.161,-0.602,-1.073,1
0.043,-0.327,-2.367,1
-0.341,-0.282,-2.719,1
-0.701,-0.391,-3.002,1
-0.792,-0.46,-3.096,1
-0.698,-0.605,-2.877,1
-0.436,-0.724,-2.496,1
-0.059,-0.826,-2.095,1
0.033,-0.956,-1.938,0
-0.038,-1.144,-1.984,0
-0.213,-1.346,-1.955,0
-0.309,-1.405,-2.12,0
-0.349,-1.374,-2.265,0
-0.381,-1.295,-2.139,0
-0.377,-1.16,-1.973,0
-0.289,-0.975,-1.839,0
-0.246,-0.743,-1.746,0
-0.168,-0.427,-1.65,0
-0.159,-0.305,-1.805,0
-0.164,-0.059,-2.08,0
-0.238,0.062,-2.072,0
-0.238,0.066,-2.073,0
-0.149,0.185,-1.98,0
-0.134,0.354,-1.337,0
-0.221,0.287,-1.005,0
-0.225,0.297,-1.008,0
-0.591,0.107,-0.436,0
-0.606,0.11,-0.437,0
-0.304,0.384,0.223,0
-0.352,0.515,0.572,0
-0.361,0.513,0.789,0
-0.542,0.47,1.187,0
-0.745,0.386,1.539,0
-0.721,0.181,1.546,0
-0.574,0.238,1.519,0
-0.315,0.256,1.818,0
-0.076,0.201,2.038,0
0.19,0.283,2.428,0
0.193,0.37,2.847,0
-0.162,0.677,3.12,1
-0.381,1.204,2.538,1
-0.102,1.649,1.082,1
0.108,1.886,0.459,1
0.359,1.988,-0.198,1
0.432,1.718,-0.184,1
0.18,0.687,1.629,1
-0.166,-0.279,3.25,1
-0.51,-1.002,4.746,1
-0.547,-1.201,5.495,1
-0.167,-1.232,5.518,1
0.062,-0.965,4.493,1
0.34,-0.343,2.219,1
0.507,0.051,0.76,1
0.734,0.243,-0.256,1
0.744,0.23,-0.585,1
0.558,0.082,-0.847,1
0.461,-0.112,-0.773,1
0.501,-0.247,-0.522,1
0.616,-0.321,-0.389,1
0.646,-0.468,-0.487,1
0.7,-0.565,-0.749,0
0.76,-0.578,-1.179,0
0.787,-0.568,-1.432,0
0.907,-0.483,-1.88,0
0.831,-0.417,-2.131,0
0.663,-0.422,-2.318,0
0.51,-0.457,-2.278,0
0.193,-0.496,-2.13,0
0.042,-0.481,-2.057,0
-0.08,-0.344,-2.106,0
0.077,-0.111,-2.257,0
0.286,0.295,-2.53,0
0.265,0.41,-2.575,0
0.116,0.422,-2.414,0
0.046,0.386,-2.285,0
0.121,0.406,-2.199,0
0.139,0.442,-1.945,0
0.153,0.418,-1.095,0
0.168,0.349,-0.436,0
0.161,0.304,0.151,0
0.349,0.326,0.245,0
0.828,0.635,-0.25,0
0.916,0.806,-0.444,0
0.872,0.699,-0.339,0
0.753,0.573,0.089,0
0.342,0.447,0.76,0
0.121,0.398,1,0
-0.136,0.382,1.223,0
-0.168,0.373,1.31,0
-0.202,0.356,1.313,0
-0.168,0.406,1.494,0
0.046,0.59,1.833,0
0.164,0.625,2.143,0
0.03,0.903,2.428,0
-0.263,1.255,2.126,0
-0.327,1.56,0.725,1
-0.196,1.64,0.005,1
-0.043,1.713,-0.145,1
0.08,1.626,0.063,1
0.272,1.255,0.89,1
0.603,0.507,2.017,1
0.511,-0.565,3.509,1
0.244,-1.386,4.711,1
-0.071,-2.193,5.663,1
-0.358,-2.233,5.117,1
-0.275,-1.683,2.434,1
-0.062,-1.09,0.075,1
0.379,-0.325,-1.762,1
0.274,-0.047,-2.71,1
-0.268,0.043,-3.365,1
-0.538,-0.087,-3.153,1
-0.824,-0.238,-2.199,1
-0.698,-0.429,-1.198,1
-0.33,-0.723,-0.353,1
-0.227,-0.809,-0.269,1
-0.001,-0.934,0.006,1
-0.032,-1.044,-0.047,0
-0.088,-1.096,-0.354,0
-0.074,-1,-0.711,0
-0.008,-0.711,-1.188,0
-0.042,-0.567,-1.393,0
-0.014,-0.538,-1.403,0
-0.203,-0.394,-2.009,0
-0.281,-0.21,-2.075,0
-0.14,-0.062,-2.162,0
-0.007,0.191,-2.324,0
0.071,0.337,-2.369,0
0.292,0.517,-2.47,0
0.253,0.623,-2.36,0
-0.017,0.532,-2.023,0
-0.23,0.349,-1.805,0
-0.509,0.157,-1.264,0
-0.58,0.129,-1.029,0
-0.592,0.126,-1.068,0
-0.638,0.208,-1.055,0
-0.758,0.269,-0.868,0
-0.693,0.364,-0.721,0
-0.499,0.527,-0.367,0
-0.428,0.536,0.054,0
-0.47,0.411,0.485,0
-0.625,0.35,0.855,0
-0.788,0.188,1.469,0
-0.849,0.02,1.622,0
-0.788,0.137,1.254,0
-0.658,0.211,0.964,0
-0.423,0.408,1.089,0
-0.435,0.557,1.745,0
-0.556,1.079,2.412,0
-0.408,1.321,2.139,0
0.348,1.282,1.62,1
0.659,1.385,1.503,1
0.76,1.141,1.638,1
0.531,0.562,2.05,1
0.01,-0.386,3.176,1
-0.22,-0.679,3.661,1
-0.145,-0.767,3.646,1
0.045,-0.784,3.592,1
0.234,-0.741,3.31,1
0.214,-0.618,2.751,1
0.193,-0.174,1.686,1
0.262,0.133,0.795,1
0.381,0.411,0.063,1
0.46,0.412,-0.142,1
0.585,0.335,-0.319,1
0.612,0.262,-0.25,1
0.659,-0.042,-0.044,1
0.796,-0.319,-0.048,1
0.741,-0.598,-0.057,1
0.755,-0.591,-0.059,1
0.526,-0.833,-0.346,1
0.361,-0.833,-0.796,0
0.106,-0.808,-1.388,0
0.097,-0.712,-1.699,0
0.275,-0.525,-2.112,0
0.34,-0.295,-2.121,0
0.329,-0.247,-1.827,0
0.322,-0.224,-1.665,0
0.21,-0.21,-1.576,0
0.091,-0.283,-1.63,0
0.087,-0.233,-1.975,0
0.18,-0.083,-2.092,0
0.362,0.191,-2.146,0
0.453,0.31,-2.188,0
0.459,0.299,-2.184,0
0.599,0.638,-2.292,0
0.507,0.669,-1.823,0
0.394,0.619,-1.338,0
0.264,0.523,-0.771,0
0.32,0.556,-0.605,0
0.438,0.625,-0.575,0
0.466,0.589,-0.54,0
0.492,0.631,-0.441,0
0.558,0.734,-0.294,0
0.608,0.809,-0.108,0
0.488,0.902,0.151,0
0.456,1.019,0.177,0
0.287,1.064,0.438,0
-0.059,1.014,1.082,0
-0.155,0.956,1.136,0
-0.111,1.05,0.948,0
-0.029,1.016,0.924,0
0.042,1.033,1.127,0
-0.167,1.219,1.524,0
-0.174,1.672,1.398,0
0.009,1.875,0.68,0
0.197,1.978,0.199,1
0.434,1.817,0.362,1
0.597,1.319,1.438,1
0.668,0.637,2.121,1
0.573,-0.339,3.913,1
0.418,-1.166,5.525,1
-0.054,-2.168,6.837,1
-0.322,-2.474,6.887,1
-0.555,-2.388,5.62,1
-0.58,-1.884,3.559,1
-0.635,-1.131,0.64,1
-0.51,-0.703,-0.699,1
-0.675,-0.367,-2.577,1
-0.929,-0.239,-3.381,1
-1.059,-0.104,-3.407,1
-0.739,-0.011,-2.929,1
-0.197,0.213,-1.716,1
0.349,0.138,-1.014,1
0.578,-0.156,-0.946,1
0.503,-0.505,-0.8,1
0.485,-0.884,-0.437,1
0.357,-0.997,-0.279,0
0.249,-0.927,-0.442,0
0.221,-0.816,-0.813,0
0.147,-0.652,-1.35,0
0.072,-0.559,-1.597,0
0.08,-0.43,-2.396,0
-0.16,-0.454,-3.141,0
-0.448,-0.433,-3.59,0
-0.412,-0.43,-3.393,0
-0.12,-0.197,-2.684,0
0.106,0.002,-2.169,0
0.153,0.04,-1.98,0
-0.011,0.002,-1.975,0
-0.242,-0.085,-2.068,0
-0.378,-0.089,-2.011,0
-0.479,-0.078,-1.753,0
-0.503,-0.019,-1.63,0
-0.635,0.047,-1.161,0
-0.624,0.1,-0.678,0
-0.565,0.26,-0.068,0
-0.479,0.341,0.21,0
-0.634,0.389,0.651,0
-0.677,0.467,1.021,0
-0.52,0.686,1.217,0
-0.352,0.94,1.204,0
-0.192,1.144,1.41,0
-0.049,1.135,1.624,0
0.292,1.089,2.089,0
0.358,1.006,2.751,0
0.305,0.775,3.112,0
-0.139,0.868,3.24,0
-0.482,1.275,2.777,0
-0.226,1.419,1.839,0
-0.047,1.47,1.12,1
-0.095,1.084,1.315,1
-0.505,0.042,2.581,1
-0.648,-0.712,3.789,1
-0.932,-1.317,4.867,1
-1.023,-1.554,5.252,1
-0.987,-1.804,4.823,1
-0.745,-1.722,3.882,1
-0.244,-1.123,2.232,1
0.073,-0.548,1.105,1
0.37,-0.163,-0.224,1
0.47,-0.086,-0.725,1
0.573,-0.03,-1.197,1
0.625,-0.031,-1.209,1
0.665,-0.085,-1.025,1
0.767,-0.115,-1.148,1
0.865,-0.183,-1.421,1
0.825,-0.315,-1.469,1
0.714,-0.513,-1.283,1
0.624,-0.677,-1.101,1
0.487,-0.873,-0.878,1
0.346,-0.93,-0.862,0
0.301,-0.897,-0.929,0
0.339,-0.768,-1.25,0
0.358,-0.511,-1.991,0
0.468,-0.264,-2.416,0
0.617,0.035,-2.466,0
0.732,0.21,-2.724,0
0.657,0.49,-2.591,0
0.664,0.577,-2.275,0
0.618,0.635,-1.994,0
0.473,0.614,-1.766,0
0.487,0.616,-1.765,0
0.263,0.468,-1.104,0
0.242,0.466,-0.879,0
0.248,0.482,-0.74,0
0.38,0.572,-0.578,0
0.536,0.702,-0.548,0
0.653,0.868,-0.338,0
0.752,0.924,-0.21,0
0.657,0.912,-0.077,0
0.603,0.897,0.068,0
0.438,0.885,0.217,0
0.339,0.899,0.238,0
0.237,1.027,0.311,0
0.216,1.095,0.351,0
0.265,1.158,0.415,0
0.317,1.265,0.526,0
0.318,1.223,0.538,0
0.158,0.988,1.661,0
0.31,0.909,1.655,0
0.304,0.957,1.667,0
-0.043,1.206,1.802,1
-0.053,1.392,1.333,1
-0.052,1.71,0.554,1
0.024,1.771,0.313,1
0.081,1.58,0.537,1
-0.003,1.296,1.19,1
0.063,0.418,2.55,1
-0.072,-0.298,3.521,1
-0.14,-0.252,3.503,1
-0.095,-1.652,5.429,1
-0.193,-1.962,5.298,1
-0.237,-1.723,3.797,1
-0.117,-0.963,0.48,1
0.121,-0.539,-1.238,1
0.063,-0.152,-2.64,1
-0.205,-0.117,-3.105,1
-0.546,-0.183,-2.953,1
-0.583,-0.168,-2.335,1
-0.193,-0.152,-1.359,1
-0.002,-0.17,-1.012,1
0.122,-0.429,-0.95,1
0.075,-0.633,-0.855,0
0.039,-0.941,-0.791,0
-0.119,-1.063,-0.66,0
-0.233,-1.195,-0.611,0
-0.164,-1.088,-0.878,0
-0.17,-1.067,-0.883,0
0.087,-0.596,-1.928,0
0.186,-0.361,-2.341,0
0.26,-0.209,-2.617,0
0.277,0.009,-2.523,0
0.263,0.112,-2.413,0
-0.023,0.16,-2.094,0
-0.199,0.139,-1.967,0
-0.279,0.255,-2.054,0
-0.309,0.345,-2.069,0
-0.272,0.473,-1.7,0
-0.198,0.469,-1.293,0
-0.148,0.521,-0.486,0
-0.105,0.507,0.011,0
-0.187,0.507,0.467,0
-0.209,0.473,0.849,0
-0.256,0.331,1.298,0
-0.386,0.225,1.482,0
-0.602,0.104,1.545,0
-0.701,0.028,1.558,0
-0.682,0.133,1.394,0
-0.537,0.279,1.175,0
-0.386,0.387,1.035,0
-0.413,0.356,1.163,0
-0.376,0.3,1.505,0
-0.374,0.319,1.862,0
-0.638,0.607,1.999,0
-0.857,1.173,1.75,1
-0.286,1.825,0.782,1
0.159,2.226,-0.126,1
0.556,2.531,-0.881,1
0.273,1.935,-0.376,1
-0.413,0.36,2.069,1
-0.879,-0.462,3.931,1
-1.581,-1.7,5.88,1
-1.878,-2.404,6.853,1
-1.748,-2.606,7.005,1
-1.351,-2.188,6.163,1
-0.803,-1.587,4.203,1
-0.416,-1.067,2.462,1
0.058,-0.412,0.638,1
0.346,-0.208,-0.373,1
0.512,-0.125,-1.654,1
0.56,-0.103,-2.016,1
0.854,-0.131,-1.487,1
1.068,-0.17,-0.794,1
1.155,-0.406,-0.086,1
1.088,-0.569,-0.123,1
1.003,-0.682,-0.893,0
0.8,-0.745,-1.536,0
0.763,-0.663,-2.156,0
0.78,-0.533,-2.518,0
0.816,-0.363,-2.784,0
0.753,-0.298,-2.825,0
0.666,-0.288,-2.823,0
0.404,-0.39,-2.657,0
0.142,-0.484,-2.204,0
0.01,-0.473,-2.095,0
-0.006,-0.303,-2.404,0
0.095,-0.095,-2.653,0
0.383,0.236,-2.588,0
0.561,0.461,-2.219,0
0.471,0.528,-1.794,0
0.416,0.505,-1.658,0
0.354,0.55,-1.322,0
0.337,0.571,-1.03,0
0.317,0.576,-0.788,0
0.369,0.577,-0.785,0
0.513,0.576,-0.801,0
0.562,0.561,-0.598,0
0.625,0.54,-0.337,0
0.59,0.578,0,0
0.545,0.661,0.214,0
0.485,0.73,0.265,0
0.355,0.771,0.635,0
0.19,0.714,0.924,0
-0.039,0.697,1.108,0
-0.071,0.699,0.929,0
-0.036,0.702,0.604,0
0.11,0.751,0.366,0
0.354,0.755,0.476,0
0.343,0.606,1.073,0
-0.34,0.53,1.788,0
-0.334,0.522,1.791,0
-0.671,0.955,0.718,1
-0.511,1.136,0.304,1
-0.129,1.245,-0.469,1
0.226,1.198,-0.243,1
0.293,0.606,1.69,1
0.03,-0.088,2.96,1
-0.296,-0.7,3.727,1
-0.35,-0.988,3.699,1
-0.387,-1.121,2.781,1
-0.363,-0.826,1.123,1
-0.037,-0.035,-0.89,1
0.278,0.297,-1.5,1
0.141,0.418,-1.753,1
-0.187,0.385,-1.371,1
-0.383,0.171,-0.599,1
-0.527,0.01,-0.219,1
-0.456,-0.366,0.097,1
-0.474,-0.588,0.345,1
-0.488,-1.011,0.761,1
-0.531,-1.246,1.027,1
-0.503,-1.388,1.042,1
-0.388,-1.318,0.637,0
-0.021,-0.875,-0.4,0
0.193,-0.51,-1.365,0
0.171,-0.264,-2.122,0
0.195,-0.151,-2.627,0
0.103,-0.046,-3.059,0
0.037,0.025,-2.939,0
0.061,0.068,-2.278,0
0.027,0.077,-1.777,0
0.023,0.142,-1.508,0
-0.015,0.314,-1.68,0
0.014,0.436,-1.765,0
0.044,0.594,-1.517,0
-0.166,0.573,-1.178,0
-0.439,0.454,-1.083,0
-0.704,0.288,-1.079,0
-0.879,0.197,-0.733,0
-0.956,0.091,-0.103,0
-1.071,0.096,0.46,0
-0.977,0.201,0.817,0
-0.826,0.277,0.845,0
-0.69,0.451,0.841,0
-0.607,0.487,0.887,0
-0.659,0.51,1.024,0
-0.474,0.563,1.097,0
-0.338,0.636,1.112,0
-0.291,0.497,1.006,0
-0.283,0.326,1.154,0
-0.218,0.213,1.292,0
-0.186,0.3,1.391,0
-0.129,0.663,1.278,0
-0.148,0.622,1.29,0
-0.225,1.66,0.051,0
0.246,1.757,-0.523,1
0.356,1.636,-0.623,1
0.19,1.002,0.779,1
0.165,0.236,2.435,1
-0.309,-0.568,3.847,1
-0.605,-0.921,4.505,1
-0.585,-1.186,4.947,1
-0.469,-1.249,4.587,1
-0.554,-1.01,3.418,1
-0.59,-0.794,2.34,1
-0.569,-0.416,1.035,1
-0.464,-0.23,0.174,1
-0.349,-0.099,-0.837,1
-0.125,-0.038,-1.53,1
-0.032,-0.003,-1.966,1
0.123,-0.052,-1.673,1
0.41,-0.254,-0.76,1
0.537,-0.372,-0.387,1
0.494,-0.561,-0.281,1
0.384,-0.665,-0.282,1
0.099,-0.833,-0.378,1
-0.096,-0.86,-0.586,0
-0.31,-0.819,-0.962,0
-0.323,-0.667,-1.372,0
-0.178,-0.352,-1.758,0
-0.01,-0.147,-1.705,0
0.133,0.065,-1.924,0
0.406,0.293,-2.379,0
0.295,0.436,-1.807,0
0.198,0.329,-1.229,0
-0.086,0.191,-1.089,0
-0.23,0.12,-1.131,0
-0.144,0.17,-1.355,0
-0.123,0.317,-1.509,0
0.021,0.481,-1.734,0
0.22,0.544,-1.831,0
0.295,0.624,-1.657,0
0.294,0.619,-1.545,0
0.462,0.678,-1.541,0
0.619,0.717,-1.253,0
0.847,0.749,-0.3,0
0.829,0.637,0.357,0
0.253,0.419,0.878,0
-0.279,0.205,1.198,0
-0.801,0.05,1.185,0
-0.753,0.184,0.629,0
-0.513,0.565,0.44,0
-0.243,0.622,0.69,0
-0.066,0.62,1.3,0
0.084,0.544,1.55,0
0.302,0.438,1.738,0
0.319,0.362,1.869,0
-0.275,0.882,2.151,0
-0.414,1.181,1.641,0
-0.125,1.46,0.272,1
-0.019,1.517,-0.053,1
-0.059,1.533,-0.205,1
-0.154,1.424,0.115,1
0.239,0.745,1.174,1
0.398,0.019,2.219,1
0.274,-0.882,3.624,1
0.06,-1.354,4.955,1
-0.278,-1.529,4.886,1
-0.466,-1.207,3.396,1
-0.518,-0.693,0.113,1
-0.511,-0.286,-0.911,1
-0.587,-0.16,-1.646,1
-0.958,-0.117,-1.828,1
-1.119,-0.176,-1.687,1
-0.943,-0.288,-1.419,1
-0.491,-0.528,-1.184,1
-0.119,-0.566,-1.053,1
0.282,-0.674,-0.837,1
0.425,-0.904,-0.329,1
0.458,-1.014,0.017,1
0.285,-1.046,-0.178,0
0.12,-0.995,-0.736,0
0.026,-0.852,-1.289,0
0.01,-0.555,-1.942,0
0.063,-0.327,-2.295,0
0.189,-0.019,-2.507,0
0.324,0.213,-2.553,0
0.432,0.424,-2.167,0
0.293,0.462,-1.763,0
0.022,0.467,-1.45,0
-0.084,0.438,-1.243,0
-0.382,0.37,-0.747,0
-0.493,0.349,-0.586,0
-0.471,0.411,-0.516,0
-0.454,0.433,-0.523,0
-0.453,0.422,-0.521,0
-0.358,0.495,-1.068,0
-0.138,0.552,-0.529,0
-0.152,0.446,0.196,0
-0.145,0.231,0.323,0
-0.07,0.172,0.117,0
-0.2,0.02,0.776,0
-0.236,-0.092,1.247,0
-0.241,-0.064,1.36,0
-0.261,0.073,1.293,0
-0.155,0.22,0.938,0
-0.036,0.341,0.853,0
0.023,0.428,1.104,0
0.067,0.483,1.302,0
0.169,0.883,1.305,0
0.122,1.415,0.875,0
0.534,1.638,-0.363,0
0.912,1.597,-0.652,1
0.912,1.589,-0.65,1
0.455,0.577,1.55,1
-0.046,-0.298,2.949,1
-0.558,-0.447,3.709,1
-0.515,-0.649,4.153,1
-0.29,-0.717,3.951,1
-0.123,-0.69,3.242,1
0.032,-0.62,2.863,1
0.18,-0.446,2.393,1
0.299,-0.356,1.743,1
0.48,-0.276,0.478,1
0.593,-0.191,-0.419,1
0.801,-0.09,-1.092,1
0.932,-0.095,-0.949,1
0.811,-0.318,-0.069,1
0.754,-0.601,0.446,1
0.616,-0.91,0.647,1
0.649,-0.947,0.551,1
0.837,-0.894,0.174,1
0.886,-0.811,-0.332,1
0.956,-0.557,-1.128,0
0.985,-0.338,-1.65,0
1.017,-0.13,-2.211,0
1.018,-0.066,-2.552,0
1.011,0.064,-3.019,0
0.982,0.108,-3.14,0
0.875,0.115,-2.689,0
0.793,0.106,-2.293,0
0.799,0.087,-2.288,0
0.768,0.423,-2.263,0
0.628,0.6,-2.502,0
0.565,0.653,-2.636,0
0.509,0.705,-2.952,0
0.557,0.741,-2.902,0
0.49,0.609,-1.77,0
0.424,0.406,-0.984,0
0.413,0.403,-0.983,0
0.59,0.432,-0.301,0
0.599,0.479,0.047,0
0.516,0.374,0.303,0
0.432,0.295,0.46,0
0.333,0.29,0.602,0
0.281,0.282,0.995,0
0.264,0.269,1.211,0
0.234,0.408,1.027,0
0.271,0.532,0.904,0
0.288,0.6,1.275,0
0.324,0.58,1.632,0
0.369,0.601,1.933,0
0.365,0.806,2.229,0
0.013,1.316,1.913,0
-0.041,1.742,0.838,0
0.272,2.1,-0.428,0
0.638,2.169,-1.047,0
0.767,1.982,-1.294,1
0.691,1.488,-0.309,1
0.68,0.177,2.47,1
0.515,-0.867,4.55,1
0.452,-1.636,6.856,1
0.525,-2.129,7.798,1
0.565,-1.913,6.826,1
0.484,-1.52,4.252,1
0.428,-0.591,0.952,1
0.434,-0.258,-0.456,1
0.028,-0.068,-1.986,1
-0.418,-0.008,-2.433,1
-0.675,-0.195,-2.124,1
-0.665,-0.224,-1.326,1
-0.202,-0.402,-0.273,1
0.058,-0.578,0.096,1
0.224,-0.786,-0.151,1
0.309,-0.925,-0.314,1
0.231,-1.008,-0.761,1
0.164,-1.016,-1.141,1
0.047,-0.975,-1.532,1
0.011,-0.888,-1.785,0
-0.08,-0.865,-2.193,0
-0.152,-0.805,-2.4,0
-0.047,-0.626,-2.615,0
-0.099,-0.449,-2.46,0
-0.123,-0.317,-1.921,0
-0.098,-0.193,-1.808,0
-0.262,-0.013,-2.134,0
-0.306,0.077,-2.293,0
-0.189,0.248,-2.196,0
-0.026,0.38,-2.147,0
-0.03,0.383,-2.148,0
0.033,0.527,-1.768,0
0.026,0.528,-1.769,0
0.024,0.597,-1.548,0
0.041,0.589,-1.209,0
-0.044,0.578,-0.742,0
-0.066,0.576,-0.742,0
-0.286,0.369,0.831,0
-0.37,0.292,1.362,0
-0.381,0.29,1.362,0
-0.538,0.279,1.366,0
-0.622,0.307,1.006,0
-0.632,0.506,0.732,0
-0.389,0.615,0.859,0
-0.075,0.618,1.181,0
-0.024,0.458,1.372,0
0.144,0.504,1.755,0
0.214,0.715,1.821,0
-0.208,1.301,1.267,0
-0.163,1.445,0.484,0
-0.154,1.419,0.491,1
0.395,1.546,-0.925,1
0.901,1.203,0.097,1
1.042,0.876,1.561,1
0.288,0.24,3.802,1
0.04,-0.126,4.894,1
0.1,-0.262,5.135,1
0.295,-0.415,4.807,1
0.282,-0.667,4.45,1
0.097,-0.872,4.241,1
-0.103,-1.039,3.839,1
-0.044,-1.034,3.105,1
0.116,-0.855,1.474,1
0.206,-0.72,0.577,1
0.341,-0.613,-0.067,1
0.418,-0.529,-0.637,1
0.59,-0.485,-1.497,1
0.653,-0.503,-1.886,1
0.59,-0.637,-1.964,1
0.594,-0.775,-1.805,1
0.599,-0.789,-1.801,1
0.75,-0.893,-1.276,0
0.697,-0.846,-1.368,0
0.495,-0.871,-1.673,0
0.243,-0.926,-2.399,0
0.03,-0.796,-2.153,0
0.231,-0.623,-2.028,0
0.329,-0.399,-2.162,0
0.276,-0.257,-2.074,0
0.24,-0.247,-1.943,0
0.008,-0.244,-1.828,0
-0.073,-0.216,-1.849,0
-0.018,-0.047,-2.25,0
0.093,0.074,-2.593,0
0.21,0.166,-2.572,0
0.271,0.226,-2.325,0
0.267,0.212,-2.32,0
0.614,0.424,-1.721,0
0.588,0.368,-1.039,0
0.478,0.213,-0.617,0
0.466,0.21,-0.616,0
0.234,0.022,-0.153,0
0.18,0.007,-0.159,0
0.128,0.2,-0.455,0
0.264,0.54,-0.722,0
0.22,0.764,-0.535,0
0.225,0.807,-0.126,0
0.188,0.766,0.36,0
0.173,0.538,1.48,0
0.263,0.367,1.941,0
0.181,0.158,2.986,0
0.248,0.049,3.747,0
-0.059,0.472,3.838,0
-0.06,1.013,2.835,0
-0.173,1.465,0.924,0
-0.332,1.558,0.109,0
-0.549,1.488,-0.844,1
-0.525,1.453,-1.104,1
-0.463,0.908,0.24,1
-0.206,0.355,2.23,1
-0.042,-0.374,3.792,1
-0.308,-0.876,4.715,1
-0.528,-1.459,5.178,1
-0.568,-1.371,3.949,1
-0.621,-0.727,1.378,1
-0.536,-0.416,0.345,1
-0.259,0.071,-0.834,1
-0.401,0.407,-1.835,1
-0.515,0.53,-2.403,1
-0.497,0.489,-2.091,1
-0.26,0.357,-1.523,1
-0.061,0.223,-0.99,1
0.221,-0.218,0.111,1
0.248,-0.508,0.316,1
0.067,-0.857,0.482,1
-0.101,-1.125,0.444,1
-0.312,-1.338,0.187,1
-0.376,-1.25,-0.34,0
-0.338,-0.923,-1.262,0
-0.273,-0.745,-1.506,0
-0.1,-0.499,-1.805,0
0.15,-0.218,-2.273,0
0.328,0.104,-2.211,0
0.262,0.076,-1.899,0
0.241,0.065,-1.896,0
-0.017,-0.055,-1.458,0
-0.066,0.099,-1.678,0
-0.085,0.209,-1.943,0
-0.108,0.306,-2.149,0
-0.033,0.402,-2.185,0
0.043,0.583,-1.881,0
0.05,0.655,-1.586,0
0.018,0.645,-1.196,0
-0.058,0.52,-0.96,0
-0.38,0.235,-0.177,0
-0.522,0.001,0.364,0
-0.743,-0.284,1.045,0
-0.908,-0.416,1.496,0
-0.932,-0.474,1.649,0
-0.944,-0.353,1.355,0
-0.693,0.082,0.333,0
-0.529,0.379,-0.148,0
-0.226,0.704,-0.027,0
-0.136,0.78,0.355,0
-0.2,0.904,0.944,0
-0.337,0.909,1.456,0
-0.515,1.021,1.279,0
-0.324,1.13,0.666,0
0.004,1.473,0.147,0
0.213,1.544,0.21,0
0.266,1.219,1.334,1
-0.113,0.657,2.426,1
-0.971,-0.213,3.751,1
-1.118,-0.471,3.909,1
-0.894,-0.585,3.797,1
-0.894,-0.72,3.719,1
-1.087,-0.999,3.677,1
-1.256,-0.979,3.456,1
-1.239,-1.087,2.524,1
-1.11,-0.934,1.793,1
-0.645,-0.613,0.791,1
-0.18,-0.362,0.017,1
0.133,-0.101,-1.062,1
0.294,-0.058,-1.761,1
0.453,-0.114,-2.101,1
0.595,-0.211,-1.974,1
0.688,-0.423,-1.349,1
0.699,-0.538,-0.695,1
0.634,-0.902,-0.081,1
0.489,-1.022,-0.061,1
0.332,-1.031,-0.098,1
0.327,-0.943,-0.375,0
0.358,-0.93,-0.378,0
0.559,-0.144,-2.18,0
0.511,0.148,-3.131,0
0.629,0.294,-3.56,0
0.55,0.422,-3.628,0
0.311,0.316,-3.08,0
0.123,0.144,-2.299,0
0.106,0.233,-1.95,0
0.078,0.279,-1.129,0
0.054,0.257,-0.521,0
0.077,0.416,-0.699,0
0.161,0.661,-1.35,0
0.233,0.94,-1.979,0
0.243,1.049,-1.989,0
0.09,0.985,-1.469,0
-0.024,0.842,-1.077,0
-0.094,0.588,-0.512,0
-0.051,0.497,-0.04,0
0.042,0.459,0.599,0
0.036,0.41,1.084,0
-0.127,0.289,1.399,0
-0.259,0.315,1.266,0
-0.256,0.291,1.272,0
-0.289,0.477,0.935,0
-0.276,0.453,0.943,0
-0.318,0.279,2.268,0
-0.281,0.086,2.964,0
-0.263,0.05,3.19,0
-0.633,0.248,3.314,0
-0.798,0.514,2.734,0
-0.56,0.965,1.408,1
-0.378,1.162,1.112,1
0.217,1.377,0.937,1
0.268,1.295,1.112,1
0.317,0.73,2.118,1
0.52,0.23,2.704,1
0.714,-0.277,3.04,1
0.796,-0.621,3.311,1
0.435,-1.142,3.505,1
0.079,-1.226,2.931,1
-0.2,-0.995,0.678,1
-0.459,-0.879,-0.403,1
-0.662,-0.828,-1.194,1
-0.916,-0.816,-1.739,1
-1.175,-0.589,-2.326,1
-1.056,-0.414,-2.481,1
-0.713,-0.326,-2.403,1
-0.527,-0.34,-2.218,1
-0.248,-0.465,-2.094,1
-0.192,-0.595,-1.841,1
-0.262,-0.592,-1.842,1
-0.303,-1.022,-1.149,0
-0.305,-1.156,-0.994,0
-0.296,-1.095,-0.925,0
-0.252,-0.947,-0.825,0
-0.322,-0.914,-0.913,0
-0.487,-0.836,-0.988,0
-0.612,-0.75,-0.929,0
-0.715,-0.608,-1.049,0
-0.804,-0.517,-1.219,0
-0.781,-0.262,-1.654,0
-0.659,-0.034,-1.911,0
-0.386,0.189,-2.144,0
-0.276,0.37,-1.972,0
-0.313,0.441,-1.548,0
-0.477,0.365,-1.216,0
-0.55,0.306,-0.818,0
-0.484,0.34,-0.578,0
-0.579,0.303,-0.314,0
-0.535,0.316,-0.382,0
-0.44,0.462,0.014,0
-0.41,0.48,0.617,0
-0.346,0.438,0.937,0
-0.296,0.504,0.864,0
-0.228,0.553,0.626,0
-0.32,0.509,0.609,0
-0.345,0.536,0.974,0
-0.309,0.472,1.258,0
-0.27,0.429,1.555,0
-0.219,0.499,1.734,0
-0.054,0.467,2.182,0
-0.092,0.553,2.296,1
-0.089,0.537,2.301,1
-0.589,0.886,1.169,1
-0.573,0.87,1.173,1
0.138,0.95,0.824,1
0.154,0.958,0.821,1
0.356,0.475,2.057,1
-0.122,-0.152,2.681,1
-0.483,-0.488,2.931,1
-0.464,-0.922,3.45,1
-0.354,-1.061,3.71,1
-0.236,-1.096,3.616,1
-0.233,-1.035,3.177,1
-0.288,-0.743,1.651,1
-0.261,-0.455,0.518,1
-0.106,-0.055,-0.628,1
0.118,0.099,-1.271,1
0.176,0.106,-1.273,1
0.396,0.259,-1.73,1
0.429,0.121,-1.179,1
0.491,-0.056,-0.789,1
0.489,-0.346,-0.478,0
0.354,-0.528,-0.324,0
0.192,-0.771,-0.163,0
0.107,-0.894,-0.117,0
0.048,-0.917,-0.256,0
-0.077,-0.898,-0.451,0
-0.282,-0.897,-0.83,0
-0.236,-0.77,-1.2,0
0.016,-0.374,-1.916,0
0.182,-0.098,-2.119,0
0.27,0.083,-2.188,0
0.181,0.152,-2.367,0
0.188,0.243,-2.809,0
0.132,0.308,-2.528,0
0.125,0.296,-2.525,0
-0.118,0.367,-1.984,0
-0.237,0.417,-2.077,0
-0.209,0.535,-2.037,0
-0.211,0.611,-1.477,0
-0.152,0.625,-1.233,0
0.025,0.825,-1.14,0
0.11,0.894,-0.929,0
0.134,0.761,-0.404,0
0.131,0.692,-0.217,0
0.116,0.677,-0.213,0
-0.047,0.386,-0.123,0
-0.175,0.207,0.047,0
-0.27,0.202,0.246,0
-0.18,0.337,0.533,0
-0.053,0.426,0.688,0
-0.048,0.65,1.381,0
0.083,0.683,1.835,0
0.069,0.647,2.069,0
0.023,0.549,2.135,0
-0.015,0.633,1.987,0
-0.287,1.021,1.601,0
-0.255,1.379,0.66,0
0.005,1.653,0.091,0
0.282,1.977,-0.8,1
0.292,2.056,-0.776,1
-0.06,1.638,0.332,1
-0.036,0.692,1.805,1
-0.193,-0.725,4.417,1
-0.311,-1.437,5.95,1
-0.486,-2.445,7.826,1
-0.545,-2.525,7.669,1
-0.661,-1.929,5.3,1
-0.595,-1.537,2.735,1
-0.551,-0.738,-0.055,1
-0.247,-0.292,-1.212,1
-0.51,0.009,-2.503,1
-0.749,0.07,-2.974,1
-0.774,0.094,-2.777,1
-0.639,0.16,-1.989,1
-0.105,-0.102,-0.88,1
0.027,-0.27,-0.488,1
0.309,-0.547,0.203,1
0.367,-0.664,0.514,1
0.344,-0.794,0.474,1
0.172,-0.878,-0.15,0
-0.093,-0.812,-1.455,0
-0.13,-0.701,-2.028,0
-0.102,-0.501,-2.588,0
-0.093,-0.428,-2.819,0
-0.123,-0.238,-2.937,0
-0.11,-0.137,-2.734,0
-0.136,-0.056,-2.399,0
-0.144,-0.002,-2.442,0
-0.077,0.137,-2.62,0
-0.019,0.244,-2.598,0
-0.118,0.267,-2.306,0
-0.218,0.192,-2.078,0
-0.546,0.058,-1.354,0
-0.605,0.012,-0.962,0
-0.406,0.042,-0.737,0
-0.355,0.176,-0.349,0
-0.208,0.305,0.124,0
-0.192,0.357,0.175,0
-0.171,0.295,0.237,0
-0.214,0.209,0.486,0
-0.42,-0.03,1.026,0
-0.55,-0.121,1.164,0
-0.602,-0.113,1.144,0
-0.553,-0.069,0.924,0
-0.493,0.045,0.324,0
-0.176,0.284,0.296,0
0.388,0.728,0.817,0
0.531,0.973,1.375,0
0.14,1.36,1.651,0
-0.302,1.649,0.916,0
-0.094,1.453,-0.373,0
-0.027,1.428,-0.677,1
0.01,1.234,-0.725,1
-0.034,0.974,-0.227,1
-0.464,0.156,1.639,1
-0.711,-0.182,2.316,1
-0.359,-0.755,3.18,1
-0.117,-1.066,3.979,1
-0.022,-1.513,5,1
-0.029,-1.491,5.155,1
-0.097,-1.478,4.158,1
-0.144,-1.394,2.783,1
-0.037,-1.086,0.54,1
0.179,-0.849,-0.216,1
0.387,-0.677,-0.937,1
0.412,-0.505,-1.577,1
0.509,-0.438,-1.573,1
0.609,-0.534,-0.91,1
0.524,-0.763,-0.046,1
0.461,-0.876,0.068,1
0.457,-0.864,0.065,1
0.381,-0.982,-0.034,1
0.438,-0.752,-0.594,0
0.571,-0.518,-1.213,0
0.696,-0.074,-2.064,0
0.718,0.087,-2.485,0
0.763,0.36,-3.004,0
0.688,0.513,-3.207,0
0.542,0.558,-2.696,0
0.351,0.469,-2.072,0
-0.067,0.25,-1.504,0
-0.34,0.15,-1.45,0
-0.481,0.189,-1.533,0
-0.317,0.405,-1.699,0
-0.046,0.74,-1.885,0
0.126,0.946,-1.93,0
0.154,0.951,-1.481,0
0.159,0.898,-1.074,0
0.103,0.728,-0.416,0
0.02,0.562,-0.09,0
0.011,0.564,-0.09,0
-0.013,0.193,0.712,0
0.087,0.243,1.112,0
0.097,0.284,1.166,0
0.243,0.583,0.826,0
0.283,0.693,0.505,0
0.27,0.871,0.678,0
0.356,0.937,0.957,0
0.332,0.914,1.246,0
0.308,0.831,1.393,0
0.256,0.729,1.417,0
0.13,0.755,1.537,0
0.121,0.708,1.551,0
-0.314,1.243,0.674,0
0.076,1.497,0.049,0
0.275,1.586,-0.081,0
0.314,1.638,0.147,1
0.185,1.485,0.869,1
0.172,0.51,2.43,1
0.007,-0.348,3.8,1
-0.144,-1.482,5.956,1
-0.204,-2.055,6.701,1
-0.528,-2.373,6.86,1
-0.656,-2.226,5.019,1
-0.687,-1.439,1.198,1
-0.492,-1.092,-0.05,1
-0.078,-0.504,-1.624,1
-0.14,-0.062,-2.348,1
-0.185,0.187,-2.527,1
-0.194,0.16,-2.545,1
-0.056,0.04,-2.578,1
0.111,-0.196,-2.195,1
0.383,-0.616,-1.369,1
0.464,-0.826,-1.013,1
0.3,-1.233,-0.236,1
0.155,-1.4,0.025,1
-0.022,-1.342,-0.361,1
-0.061,-1.177,-1.016,0
-0.015,-0.819,-1.961,0
0.051,-0.603,-2.279,0
0.08,-0.321,-2.397,0
0.087,-0.197,-2.372,0
0.142,-0.026,-2.321,0
0.094,0.013,-2.162,0
0.084,0.13,-2.124,0
-0.013,0.183,-2.162,0
-0.122,0.155,-1.922,0
-0.224,0.102,-1.693,0
-0.28,0.049,-1.331,0
-0.141,0.028,-1.222,0
-0.15,0.028,-1.222,0
-0.227,-0.034,-0.1,0
-0.355,-0.225,0.514,0
-0.451,-0.247,0.58,0
-0.367,-0.236,0.418,0
-0.303,-0.162,0.337,0
-0.34,-0.027,0.414,0
-0.364,0.079,0.346,0
-0.461,0.158,0.319,0
-0.452,0.12,0.288,0
-0.478,0.097,0.422,0
-0.201,0.086,0.729,0
0.317,-0.023,1.226,0
0.425,0.018,1.76,0
0.456,0.115,2.2,0
0.138,0.491,2.228,0
-0.216,1.124,1.263,0
0.041,1.358,0.224,1
0.608,1.744,-0.293,1
0.727,1.792,-0.257,1
0.345,1.476,0.907,1
-0.456,1.126,2.017,1
-1.033,0.499,2.396,1
-0.873,0.296,2.351,1
-0.205,-0.029,3.262,1
0.125,-0.186,3.985,1
0.185,-0.512,4.711,1
0.064,-0.754,4.568,1
0.11,-0.932,3.322,1
0.149,-0.963,2.222,1
0.351,-0.875,1.043,1
0.613,-0.712,0.607,1
0.76,-0.568,-0.303,1
0.878,-0.521,-1.038,1
0.949,-0.562,-1.522,1
0.934,-0.753,-1.256,1
1.122,-1.056,-0.572,1
1.125,-1.181,-0.344,1
1.102,-1.262,-0.601,0
1.073,-1.214,-1.025,0
1.141,-0.973,-1.91,0
1.251,-0.652,-2.417,0
1.256,-0.236,-2.622,0
1.257,-0.079,-2.706,0
1.194,0.145,-2.937,0
1.008,0.202,-2.803,0
0.694,0.128,-2.516,0
0.512,0.095,-2.482,0
0.351,0.107,-2.338,0
0.3,0.083,-2.201,0
0.081,0.074,-1.923,0
0.04,0.058,-1.714,0
-0.054,-0.006,-1.415,0
-0.115,-0.005,-0.96,0
-0.109,0.053,-0.409,0
0.026,0.121,-0.266,0
0.189,0.217,0.136,0
0.278,0.262,0.35,0
0.268,0.257,0.352,0
0.606,0.551,-0.293,0
0.58,0.675,0.126,0
0.45,0.503,0.39,0
0.117,0.321,1.173,0
0.305,0.294,1.479,0
0.807,0.534,1.874,0
1.034,0.615,2.06,0
1.12,0.43,2.123,0
0.961,0.307,1.969,0
0.883,0.311,1.723,0
0.484,0.574,1.893,0
-0.096,0.925,1.469,0
-0.362,1.091,0.472,0
-0.31,1.257,-0.328,1
-0.094,1.296,-0.561,1
0.175,1.432,-0.45,1
0.641,1.169,0.065,1
1.512,0.219,1.714,1
1.803,-0.604,2.887,1
1.447,-1.709,5.727,1
0.992,-2.05,6.67,1
0.428,-2.042,5.592,1
0.406,-2.024,5.585,1
0.187,-0.925,0.411,1
0.373,-0.468,-0.855,1
0.041,-0.11,-2.018,1
-0.014,-0.01,-2.19,1
0.044,-0.074,-1.821,1
0.29,-0.315,-1.377,1
0.25,-0.303,-1.383,1
0.844,-0.76,-0.72,1
0.953,-0.89,-0.931,1
0.934,-1.017,-1.028,1
0.908,-1.004,-1.033,1
0.712,-0.954,-1.457,0
0.588,-0.829,-1.686,0
0.547,-0.765,-1.853,0
0.415,-0.65,-1.926,0
0.309,-0.629,-1.716,0
0.169,-0.567,-1.379,0
0.071,-0.509,-1.205,0
-0.041,-0.458,-1.296,0
-0.064,-0.382,-1.561,0
0.08,-0.142,-1.867,0
0.197,-0.038,-1.787,0
0.231,0.078,-1.354,0
0.311,0.085,-1.046,0
0.286,0.086,-0.77,0
0.219,0.038,-0.541,0
0.219,0.049,-0.413,0
0.158,0.073,-0.183,0
0.123,-0.03,0.412,0
0.024,-0.08,0.589,0
0.204,-0.043,0.446,0
0.515,0.167,0.384,0
0.745,0.439,0.814,0
0.835,0.414,0.96,0
0.59,0.358,0.902,0
0.513,0.324,0.934,0
0.513,0.275,1.14,0
0.558,0.244,1.553,0
0.73,0.267,1.934,0
0.754,0.362,2.02,0
0.624,0.62,2.168,0
0.198,1,1.724,0
-0.004,1.366,0.588,0
0.212,1.365,0.355,0
0.565,1.221,0.765,1
0.553,0.973,1.404,1
0.204,0.205,3.391,1
0.19,0.225,3.384,1
0.076,-0.252,4.305,1
0.645,-0.318,3.899,1
1.406,-0.163,3.185,1
1.6,-0.103,2.97,1
1.536,-0.218,2.567,1
1.364,-0.358,1.998,1
1.113,-0.55,0.815,1
1.083,-0.627,0.254,1
0.921,-0.758,-0.243,1
0.863,-0.886,-0.391,1
0.764,-1.029,-0.727,1
0.663,-1.235,-0.972,1
0.725,-1.353,-1.099,1
0.827,-1.435,-1.2,1
0.944,-1.396,-1.331,1
1.01,-1.356,-1.439,1
1.013,-1.306,-1.75,1
1.106,-1.13,-2.112,0
0.972,-0.931,-2.2,0
0.874,-0.831,-2.186,0
0.707,-0.761,-2.22,0
0.493,-0.758,-2.052,0
0.238,-0.719,-1.743,0
0.09,-0.639,-1.704,0
0.008,-0.429,-1.83,0
0.057,-0.267,-1.965,0
0.162,-0.028,-2.089,0
0.187,0.095,-1.974,0
0.147,0.046,-1.551,0
0.159,-0.016,-1.108,0
0.243,-0.025,-0.752,0
0.292,-0.003,-0.515,0
0.283,-0.002,-0.516,0
0.29,-0.084,0.175,0
0.437,-0.034,0.341,0
0.522,0.07,0.412,0
0.854,0.261,0.606,0
0.875,0.261,0.924,0
0.768,0.359,1.122,0
0.786,0.498,0.981,0
0.802,0.479,0.988,0
0.553,0.543,1.369,0
0.501,0.272,2.113,0
0.48,0.207,2.596,0
0.657,0.022,3.04,0
0.577,-0.078,3.328,0
0.329,0.035,3.101,0
-0.077,0.421,2.094,0
-0.164,0.925,0.492,1
0.263,1.341,-0.618,1
0.742,1.802,-1.487,1
0.74,1.848,-1.416,1
0.567,1.35,0.125,1
0.629,0.503,1.145,1
0.675,-0.629,2.507,1
0.591,-1.44,4.027,1
0.081,-2.319,6.126,1
-0.199,-2.366,5.909,1
-0.295,-1.799,3.003,1
-0.206,-1.34,0.848,1
-0.03,-0.721,-0.662,1
0.046,-0.474,-1.054,1
-0.296,-0.383,-1.544,1
-0.466,-0.558,-1.444,1
-0.442,-0.887,-0.986,1
-0.275,-1.017,-0.452,1
-0.035,-1.043,-0.061,1
0.116,-1.05,-0.152,1
0.335,-0.942,-0.787,1
0.447,-0.863,-1.473,0
0.583,-0.767,-2.499,0
0.557,-0.804,-2.696,0
0.373,-0.943,-2.639,0
0.2,-1.029,-2.506,0
-0.075,-1.082,-2.131,0
-0.061,-0.987,-1.94,0
0.015,-0.775,-1.485,0
0.035,-0.612,-1.233,0
0.205,-0.375,-1.403,0
0.098,-0.28,-1.432,0
0.003,-0.165,-1.063,0
-0.054,-0.114,-0.981,0
-0.15,-0.044,-1.111,0
-0.19,-0.073,-1.209,0
-0.049,-0.023,-1.491,0
0.125,0.054,-1.464,0
0.323,-0.054,-0.42,0
0.421,-0.156,0.139,0
0.473,-0.217,0.538,0
0.41,-0.233,0.685,0
0.332,-0.289,0.966,0
0.048,-0.27,1.171,0
-0.135,-0.208,1.078,0
-0.254,-0.17,0.9,0
-0.488,0.102,0.498,0
-0.428,0.257,0.251,0
-0.41,0.228,0.261,0
0.339,0.739,0.288,0
0.592,0.802,0.921,0
0.387,0.696,1.395,0
-0.463,0.684,1.157,0
-0.743,0.675,0.409,0
-0.406,0.553,0.075,0
-0.042,0.51,0.265,0
-0.037,0.534,0.256,1
0.37,0.101,2.137,1
0.046,-0.412,3.185,1
-0.149,-0.588,3.382,1
0,-0.74,3.792,1
0.173,-0.894,3.718,1
0.283,-1.022,3.33,1
0.242,-0.958,3.063,1
0.152,-0.755,1.961,1
0.19,-0.57,1.116,1
0.357,-0.335,-0.198,1
0.406,-0.232,-0.689,1
0.435,-0.269,-0.987,1
0.288,-0.292,-0.768,1
0.139,-0.488,-0.37,1
0.094,-0.686,-0.116,1
0.08,-0.862,-0.121,1
0.017,-0.994,-0.234,1
-0.077,-1.202,-0.295,1
-0.031,-1.258,-0.225,1
-0.042,-1.18,-0.277,1
-0.072,-1.061,-0.546,0
0.056,-0.835,-1.448,0
0.094,-0.652,-2.253,0
-0.016,-0.454,-2.703,0
0.018,-0.438,-2.85,0
0.063,-0.231,-2.51,0
-0.024,-0.243,-1.43,0
-0.084,-0.337,-0.758,0
-0.209,-0.212,-1.12,0
-0.218,-0.223,-1.117,0
-0.339,0.04,-1.635,0
-0.435,0.046,-1.28,0
-0.465,0.027,-0.915,0
-0.435,0.104,-0.846,0
-0.257,0.187,-0.91,0
-0.104,0.265,-0.327,0
-0.002,0.198,0.089,0
0.221,0.1,0.199,0
0.307,0.085,0.402,0
0.425,-0.007,1.235,0
0.37,-0.032,1.789,0
0.151,-0.06,1.986,0
0.015,-0.024,1.881,0
-0.098,0.074,1.21,0
-0.105,0.121,0.798,0
-0.063,0.33,0.504,0
0.019,0.407,0.721,0
0.181,0.378,1.37,0
0.13,0.3,1.775,0
0.029,0.234,1.983,0
-0.38,0.443,1.982,0
-0.487,0.78,1.122,1
-0.352,0.957,0.348,1
-0.147,1.13,-0.301,1
-0.115,1.025,-0.599,1
-0.296,0.617,-0.23,1
-0.229,0.203,0.663,1
0.059,-0.407,2.27,1
0.015,-0.944,3.093,1
-0.097,-1.84,4.402,1
-0.344,-2.222,4.872,1
-0.714,-2.49,4.048,1
-0.786,-2.173,2.236,1
-0.58,-1.333,-0.374,1
-0.128,-0.827,-1.231,1
0.176,-0.024,-2.745,1
0.217,0.425,-3.081,1
0.218,0.565,-2.763,1
0.167,0.452,-2.321,1
0.114,0.184,-1.672,1
0.166,-0.155,-1.097,1
0.264,-0.643,-0.443,1
0.163,-0.87,-0.239,0
0.087,-1.253,0.43,0
0.058,-1.344,0.578,0
-0.034,-1.222,0.158,0
0,-1.059,-0.546,0
0.109,-0.64,-1.772,0
0.216,-0.445,-2.219,0
0.137,-0.359,-2.078,0
0.014,-0.36,-1.619,0
-0.2,-0.534,-0.737,0
-0.391,-0.621,-0.38,0
-0.436,-0.577,-0.524,0
-0.364,-0.393,-0.844,0
-0.271,-0.253,-1.106,0
-0.163,-0.055,-1.348,0
0.009,0.239,-1.568,0
0.093,0.287,-1.455,0
0.052,0.268,-1.144,0
0.072,0.242,-1.226,0
-0.024,0.147,-0.876,0
-0.117,-0.008,-0.143,0
-0.075,-0.276,0.51,0
-0.282,-0.501,0.889,0
-0.352,-0.71,1.063,0
-0.368,-0.697,1.118,0
-0.409,-0.403,1.273,0
-0.272,-0.225,1.155,0
-0.112,0.043,0.717,0
-0.057,0.075,0.689,0
0.184,0.017,0.972,0
0.429,0.139,1.52,0
0.407,0.22,2.165,0
0.196,0.402,2.275,0
0.346,0.621,1.798,0
0.514,0.887,1.389,1
0.499,0.856,1.4,1
0.916,0.967,1.398,1
0.875,0.688,2.083,1
0.523,0.321,2.863,1
0.183,-0.096,3.197,1
0.228,-0.302,2.823,1
0.305,-0.663,2.451,1
0.294,-0.9,2.614,1
0.152,-1.199,2.722,1
0.102,-1.289,2.437,1
0.119,-1.153,1.442,1
0.238,-0.994,0.718,1
0.348,-0.797,-0.24,1
0.371,-0.694,-0.698,1
0.339,-0.653,-1.47,1
0.343,-0.674,-1.914,1
0.429,-0.732,-2.044,1
0.493,-0.843,-1.984,1
0.514,-1.078,-0.98,1
0.52,-1.275,-0.249,1
0.264,-1.636,0.21,0
0.104,-1.767,0.291,0
0.032,-1.747,0.149,0
0.08,-1.563,-0.389,0
0.24,-1.184,-1.395,0
0.334,-0.946,-1.857,0
0.427,-0.6,-2.402,0
0.528,-0.45,-2.691,0
0.543,-0.238,-2.476,0
0.51,-0.202,-2.041,0
0.451,-0.238,-1.707,0
0.288,-0.304,-1.407,0
0.123,-0.449,-1.1,0
0.084,-0.47,-1.054,0
0.059,-0.409,-1.136,0
0.183,-0.286,-1.179,0
0.47,-0.019,-1.156,0
0.614,0.106,-1.091,0
0.739,0.242,-1.04,0
0.75,0.23,-0.856,0
0.618,0.123,-0.33,0
0.512,-0.01,0.188,0
0.323,-0.22,0.731,0
0.308,-0.235,0.927,0
0.434,-0.112,1.047,0
0.499,-0.076,1.144,0
0.683,-0.019,1.107,0
0.878,0.071,1.108,0
1.089,0.213,1.2,0
1.21,0.207,1.374,0
1.349,0.087,1.646,0
1.026,0.061,2.113,0
0.419,0.423,2.348,0
0.271,0.673,1.861,0
0.186,1.198,0.304,1
0.061,1.261,-0.068,1
-0.165,1.012,0.163,1
-0.168,0.724,0.856,1
0.275,0.033,2.195,1
0.757,-0.407,3.092,1
1.186,-1.191,4.74,1
1.266,-1.607,5.711,1
0.823,-2.113,6.632,1
0.582,-2.093,5.83,1
0.438,-1.428,2.027,1
0.442,-0.953,-0.039,1
0.724,-0.439,-1.801,1
0.584,-0.173,-2.489,1
0.087,-0.254,-2.358,1
-0.127,-0.482,-1.604,1
-0.017,-0.712,-0.563,1
0.156,-0.831,-0.286,1
0.301,-1.045,-0.371,1
0.258,-1.194,-0.418,1
0.201,-1.36,-0.499,1
0.136,-1.347,-0.855,0
-0.009,-1.276,-1.446,0
-0.038,-1.157,-1.94,0
-0.155,-1.086,-2.457,0
-0.186,-1.017,-2.635,0
-0.18,-0.861,-2.428,0
-0.026,-0.691,-2.252,0
0.22,-0.393,-2.087,0
0.303,-0.219,-2.114,0
0.16,-0.065,-2.217,0
0.146,-0.075,-2.214,0
0.061,0.04,-1.947,0
-0.036,0.034,-1.448,0
-0.152,-0.102,-0.89,0
-0.216,-0.197,-0.597,0
-0.204,-0.181,-0.602,0
-0.247,-0.159,-0.038,0
-0.265,-0.12,0.03,0
-0.259,-0.021,-0.042,0
-0.183,0.099,-0.157,0
-0.064,0.139,-0.142,0
-0.07,0.065,0.39,0
-0.153,-0.088,0.735,0
-0.227,-0.359,1.282,0
-0.207,-0.382,1.494,0
0.032,-0.241,1.07,0
0.241,-0.104,0.642,0
0.608,-0.012,0.59,0
0.631,-0.085,0.958,0
0.564,-0.122,1.574,0
0.471,-0.129,2.172,0
0.065,0.088,2.554,0
-0.229,0.469,2.048,0
0.009,0.793,1.065,1
0.409,1.039,0.838,1
0.842,1.148,0.291,1
0.887,0.993,0.42,1
0.686,0.725,1.551,1
0.81,0.571,2.123,1
1.325,0.458,2.061,1
1.63,0.306,2.153,1
1.714,-0.307,2.874,1
1.508,-0.588,3.548,1
0.972,-1.078,4.32,1
0.77,-1.234,4.14,1
0.661,-1.02,2.015,1
0.721,-0.673,0.476,1
0.839,-0.55,-0.455,1
0.894,-0.417,-1.081,1
1.011,-0.273,-1.597,1
1.147,-0.292,-2.002,1
1.352,-0.437,-1.985,1
1.381,-0.659,-1.524,1
1.276,-1.096,-0.548,1
1.063,-1.274,0.025,0
0.58,-1.563,0.298,0
0.414,-1.541,0.139,0
0.44,-1.288,-0.767,0
0.63,-0.853,-1.496,0
0.902,-0.171,-2.376,0
0.962,0.078,-2.715,0
0.843,0.259,-3.208,0
0.743,0.313,-3.489,0
0.586,0.199,-3.225,0
0.543,0.097,-2.328,0
0.485,-0.036,-1.144,0
0.299,-0.257,-0.352,0
0.171,-0.495,0.439,0
0.255,-0.444,0.535,0
0.458,-0.222,0.253,0
0.631,-0.1,-0.008,0
0.917,0.176,-0.375,0
0.991,0.263,-0.374,0
1.11,0.196,-0.333,0
1.077,0.137,-0.139,0
1.092,0.133,-0.137,0
1.102,-0.159,0.623,0
1.106,-0.025,1.009,0
1.164,0.057,1.277,0
1.02,0.123,1.403,0
0.989,0.163,1.403,0
1.01,0.304,1.78,0
1.084,0.317,2.022,0
1.342,0.464,2.072,0
1.411,0.529,2.014,0
1.039,0.788,1.938,0
0.664,1.002,1.537,0
0.422,1.284,0.346,1
0.603,1.437,-0.318,1
0.736,1.519,-0.908,1
0.789,1.393,-0.753,1
0.882,0.789,0.399,1
1.132,0.021,1.884,1
1.186,-1.296,4.346,1
1.026,-2.088,5.931,1
0.498,-2.845,6.955,1
0.249,-2.747,6.055,1
0.104,-2.224,2.471,1
0.294,-1.558,0.75,1
0.756,-0.623,-1.021,1
0.888,-0.207,-2.236,1
0.78,0.191,-2.883,1
0.852,0.06,-2.501,1
0.804,-0.418,-1.347,1
0.706,-0.834,-0.203,1
0.787,-1.367,0.586,1
0.683,-1.512,0.604,1
0.641,-1.716,0.323,1
0.603,-1.663,-0.294,0
0.609,-1.386,-1.042,0
0.644,-1.161,-1.497,0
0.656,-0.812,-2.016,0
0.625,-0.629,-2.336,0
0.662,-0.368,-3.199,0
0.576,-0.295,-3.359,0
0.476,-0.323,-2.923,0
0.445,-0.333,-2.384,0
0.32,-0.429,-1.586,0
0.241,-0.514,-1.321,0
0.174,-0.476,-1.215,0
0.237,-0.375,-1.306,0
0.449,-0.123,-1.519,0
0.553,0.091,-1.716,0
0.48,0.216,-1.773,0
0.404,0.213,-1.749,0
0.271,0.178,-1.458,0
0.258,0.061,-1.212,0
0.198,-0.114,-0.576,0
0.102,-0.317,0.282,0
0.213,-0.533,1.107,0
0.331,-0.558,1.202,0
0.122,-0.59,1.541,0
0.206,-0.563,1.874,0
0.195,-0.576,1.878,0
0.4,-0.016,0.848,0
0.668,0.125,0.405,0
0.913,0.138,0.415,0
1.161,0.246,0.763,0
1.247,0.202,1.303,0
0.765,0.255,1.827,0
0.296,0.609,1.454,0
0.272,0.888,0.206,0
0.56,0.873,0,0
0.923,0.853,0.167,1
0.949,0.808,0.565,1
0.384,0.793,1.169,1
0.45,0.649,1.133,1
1.16,0.273,1.077,1
1.487,-0.106,1.948,1
1.645,-0.905,4.32,1
1.285,-1.248,5.209,1
0.666,-1.668,5.317,1
0.505,-1.79,4.39,1
0.648,-1.306,1.88,1
0.855,-0.852,0.773,1
1.067,-0.568,-0.379,1
1.07,-0.485,-0.908,1
1.058,-0.767,-1.023,1
1.009,-1.071,-0.174,1
1.134,-1.493,1.055,1
1.079,-1.6,1.18,1
0.955,-1.576,0.916,1
1.002,-1.398,0.461,1
1.055,-0.973,-0.565,1
1.237,-0.536,-1.539,0
1.544,-0.016,-2.57,0
1.657,0.133,-2.871,0
1.673,0.182,-2.724,0
1.486,0.092,-2.376,0
1.118,-0.124,-1.975,0
0.746,-0.24,-1.86,0
0.305,-0.449,-1.653,0
0.136,-0.417,-1.604,0
0.295,-0.095,-1.897,0
0.508,0.211,-2.128,0
0.508,0.199,-2.124,0
0.972,0.56,-2.086,0
1.032,0.51,-1.437,0
0.867,0.315,-0.912,0
0.543,-0.085,0.142,0
0.365,-0.258,0.611,0
0.218,-0.373,1.091,0
0.312,-0.332,1.151,0
0.605,-0.089,0.979,0
0.658,0.158,0.947,0
0.825,0.46,0.843,0
0.805,0.574,0.842,0
0.935,0.68,1.336,0
1.032,0.658,1.802,0
1.033,0.513,2.28,0
1.097,0.36,2.406,0
1.017,0.326,2.586,0
1.126,0.325,2.658,0
0.76,0.576,2.355,0
0.517,0.852,1.559,0
0.444,1.117,0.351,0
0.473,1.233,-0.032,0
0.239,1.302,0.118,1
-0.074,1.184,0.461,1
-0.092,1.181,0.46,1
0.251,-0.089,1.784,1
0.657,-1.243,3.647,1
0.629,-1.957,5.145,1
0.228,-2.688,6.823,1
0.261,-2.54,6.373,1
0.545,-1.576,2.603,1
0.509,-0.958,0.365,1
0.586,-0.594,-1.332,1
0.439,-0.297,-2.344,1
0.125,-0.234,-2.644,1
0.057,-0.524,-2.054,1
0.259,-0.907,-0.726,1
0.505,-1.093,-0.094,1
0.821,-1.332,-0.145,1
0.789,-1.436,-0.286,1
0.904,-1.523,-0.643,1
0.943,-1.318,-1.255,1
1.038,-0.998,-1.922,1
1.052,-0.801,-1.987,0
0.931,-0.659,-2.261,0
0.801,-0.615,-2.428,0
0.727,-0.424,-2.34,0
0.778,-0.313,-2.13,0
0.656,-0.282,-1.888,0
0.573,-0.239,-1.975,0
0.705,0.005,-2.345,0
0.859,0.177,-2.231,0
0.769,0.198,-1.935,0
0.587,0.157,-1.668,0
0.341,0.045,-1.086,0
0.218,-0.045,-0.646,0
0.209,-0.038,-0.649,0
0.049,-0.03,-0.581,0
0.098,0.117,-0.531,0
0.092,0.155,-0.172,0
0.137,0.175,0.2,0
0.141,0.079,0.267,0
0.284,0.119,0.327,0
0.393,0.098,0.554,0
0.24,-0.061,1.379,0
0.139,-0.184,1.694,0
0.011,-0.311,1.901,0
0.11,-0.314,1.721,0
0.324,-0.133,1.288,0
0.571,-0.031,1.387,0
0.616,-0.115,1.778,0
0.399,0.135,2.004,0
0.076,0.901,1.406,0
0.203,1.057,0.598,1
0.209,1.027,0.608,1
0.968,0.983,0.499,1
1.035,0.401,1.921,1
0.743,-0.105,3.069,1
0.228,-0.3,3.38,1
0.389,-0.45,3.442,1
1.219,-0.701,3.353,1
1.461,-0.738,3.395,1
1.133,-1.04,3.586,1
0.78,-1.196,3.307,1
0.564,-1.164,1.665,1
0.677,-1.002,0.497,1
0.872,-0.837,-0.731,1
0.911,-0.831,-1.316,1
0.708,-0.811,-1.643,1
0.75,-0.8,-1.643,1
0.68,-0.977,-0.953,1
0.77,-1.028,-0.843,1
0.777,-1.018,-0.846,1
0.796,-1.249,-0.19,1
0.719,-1.408,0.087,0
0.626,-1.421,-0.03,0
0.723,-1.203,-0.397,0
0.863,-0.963,-0.864,0
1.043,-0.549,-1.741,0
1.138,-0.326,-2.248,0
1.181,-0.096,-2.658,0
1.15,-0.058,-2.679,0
1.057,-0.013,-2.459,0
0.962,-0.011,-2.115,0
0.968,-0.017,-2.112,0
0.724,-0.003,-1.999,0
0.684,0.125,-1.784,0
0.652,0.127,-1.378,0
0.676,0.257,-1.062,0
0.701,0.344,-1.037,0
0.682,0.34,-1.056,0
0.614,0.291,-1.014,0
0.558,0.173,-0.615,0
0.616,0.125,-0.36,0
0.612,0.126,-0.361,0
0.893,0.05,0.484,0
0.959,0.07,1.505,0
0.914,0.087,1.92,0
0.83,0.192,1.838,0
0.93,0.394,1.519,0
1.155,0.658,1.079,0
1.15,0.704,1.204,0
1.072,0.504,1.965,0
1.052,0.317,2.47,0
0.991,0.072,2.487,0
0.749,0.057,2.196,0
0.74,0.005,2.213,0
0.014,0.584,0.205,0
0.264,0.84,-0.685,1
0.562,1.021,-0.911,1
0.648,1.366,-1.062,1
0.731,1.22,-0.883,1
0.845,0.508,0.492,1
1.179,-0.203,1.845,1
1.247,-1.239,4.339,1
1.005,-1.697,5.553,1
0.516,-1.976,5.948,1
0.458,-1.746,4.305,1
0.243,-0.984,0.601,1
0.265,-0.676,-0.383,1
0.486,-0.101,-1.287,1
0.43,0.333,-1.872,1
0.597,0.274,-2.181,1
0.672,-0.064,-1.628,1
0.847,-0.681,0.056,1
0.945,-1.053,0.588,1
0.837,-1.455,0.846,1
0.87,-1.585,0.988,1
0.824,-1.684,0.265,1
0.662,-1.531,-0.715,0
0.71,-1.215,-1.783,0
0.741,-0.98,-2.211,0
0.36,-0.902,-2.363,0
0.193,-0.869,-2.539,0
-0.186,-0.787,-2.131,0
-0.246,-0.807,-1.685,0
-0.089,-0.597,-1.296,0
-0.012,-0.42,-1.273,0
0.212,-0.165,-1.447,0
0.307,-0.028,-1.481,0
0.352,0.128,-1.291,0
0.32,0.199,-1.266,0
0.116,0.18,-1.155,0
-0.041,0.093,-0.928,0
-0.039,0.105,-0.931,0
-0.13,-0.001,-0.3,0
-0.066,0.038,-0.051,0
0.127,0.119,0.059,0
0.348,0.207,0.136,0
0.472,0.268,0.144,0
0.413,0.318,0.561,0
0.375,0.345,0.796,0
0.316,0.481,0.659,0
0.375,0.549,0.495,0
0.488,0.547,0.696,0
0.491,0.519,0.994,0
0.479,0.397,1.505,0
0.357,0.193,2.016,0
0.001,0.138,2.619,0
-0.455,0.375,2.584,0
-0.589,0.681,1.569,0
-0.289,0.711,0.826,0
0.163,0.707,0.911,1
0.467,0.731,1.308,1
0.671,0.293,2.534,1
0.461,-0.096,3.564,1
0.52,-0.448,3.699,1
0.63,-0.57,3.488,1
0.809,-0.837,3.264,1
0.68,-0.887,3.205,1
0.372,-0.876,2.492,1
0.265,-0.788,1.688,1
0.166,-0.66,0.26,1
0.143,-0.67,-0.262,1
0.095,-0.803,-0.581,1
0.073,-0.836,-0.668,1
0.117,-0.778,-0.905,1
0.293,-0.785,-1.175,1
0.443,-0.84,-1.315,1
0.465,-0.874,-1.313,1
0.405,-1.013,-0.972,1
0.284,-1.087,-0.587,1
0.192,-1.173,-0.269,1
0.168,-1.059,-0.424,0
0.038,-0.914,-0.801,0
0.026,-0.782,-1.052,0
0.236,-0.459,-1.477,0
0.385,-0.233,-1.724,0
0.677,0.138,-1.881,0
0.782,0.242,-1.844,0
0.848,0.351,-1.909,0
0.89,0.407,-2.074,0
0.894,0.4,-2.071,0
0.755,0.379,-1.662,0
0.639,0.287,-1.424,0
0.554,0.242,-1.451,0
0.482,0.231,-1.305,0
0.413,0.212,-1.019,0
0.298,0.172,-0.555,0
0.282,0.133,-0.44,0
0.381,0.203,-0.227,0
0.407,0.175,-0.128,0
0.448,0.152,-0.043,0
0.41,0.148,-0.034,0
0.308,0.145,-0.151,0
0.267,0.174,-0.203,0
0.122,0.249,0.31,0
0.247,0.275,0.57,0
0.325,0.507,1.015,0
0.376,0.535,1.226,0
0.49,0.583,1.611,0
0.793,0.755,1.798,0
1.165,0.947,1.732,0
0.956,1.066,1.695,0
0.373,1.203,0.8,0
0.079,1.177,0.135,1
-0.095,1.218,-0.415,1
-0.012,1.259,-0.534,1
0.265,1.333,0.08,1
0.462,1.22,1.127,1
0.73,0.547,2.365,1
0.757,-0.102,3.344,1
0.919,-1.182,4.864,1
0.881,-1.865,6.046,1
0.758,-2.057,5.362,1
0.509,-1.815,3.555,1
0.403,-1.347,0.083,1
0.402,-1.008,-0.981,1
0.515,-0.65,-2.231,1
0.226,-0.609,-2.542,1
0.02,-0.757,-1.972,1
0.052,-0.822,-1.063,1
0.341,-1.019,-0.234,1
0.451,-1.099,-0.296,1
0.54,-1.222,-0.514,1
0.618,-1.347,-0.529,1
0.638,-1.298,-0.541,0
0.655,-1.157,-0.621,0
0.657,-1.137,-0.627,0
0.751,-0.683,-1.506,0
0.672,-0.541,-1.919,0
0.651,-0.426,-1.902,0
0.62,-0.299,-1.884,0
0.58,-0.226,-1.838,0
0.574,-0.223,-1.479,0
0.49,-0.216,-1.326,0
0.437,-0.159,-1.522,0
0.4,-0.115,-1.549,0
0.242,-0.149,-1.23,0
0.146,-0.13,-0.947,0
0.041,-0.127,-0.698,0
-0.021,-0.139,-0.616,0
-0.018,0.009,-0.771,0
0.052,0.056,-0.792,0
0.007,0.109,-0.676,0
-0.094,0.09,-0.658,0
-0.098,0.084,-0.656,0
-0.003,0.24,-0.746,0
0.003,0.239,-0.745,0
-0.265,0.284,0.483,0
-0.312,0.374,0.761,0
-0.298,0.443,0.81,0
0.114,0.651,0.951,0
0.399,0.601,1.083,0
0.597,0.484,1.38,0
0.57,0.389,1.763,0
0.503,0.249,2.437,0
0.248,0.513,2.798,0
-0.181,1.021,1.993,0
0.005,0.994,1.175,0
0.033,0.983,1.18,1
0.763,0.927,1.329,1
0.634,0.594,2.18,1
-0.01,0.304,2.56,1
-0.319,-0.022,2.049,1
-0.068,-0.014,1.59,1
0.724,-0.039,1.532,1
1.008,-0.173,1.896,1
0.774,-0.569,2.569,1
0.484,-0.791,2.38,1
0.235,-0.933,1.367,1
0.286,-0.903,0.775,1
0.433,-0.76,-0.013,1
0.488,-0.695,-0.567,1
0.524,-0.72,-0.901,1
0.637,-0.786,-0.921,1
0.837,-0.884,-0.552,1
0.863,-0.993,-0.355,1
0.9,-1.145,-0.433,1
0.844,-1.178,-0.601,1
0.775,-1.132,-0.786,1
0.923,-0.896,-1.117,0
1.21,-0.435,-1.641,0
1.369,-0.213,-1.923,0
1.616,0.155,-2.32,0
1.743,0.355,-2.309,0
1.691,0.491,-1.881,0
1.613,0.459,-1.66,0
1.131,0.229,-1.339,0
0.865,0.033,-1.099,0
0.682,-0.018,-1.037,0
0.638,0.13,-1.002,0
0.668,0.155,-0.857,0
0.704,0.238,-0.798,0
0.701,0.232,-0.797,0
0.793,0.402,-0.623,0
0.793,0.398,-0.622,0
0.827,0.463,-0.302,0
0.87,0.387,-0.064,0
0.831,0.326,0.134,0
0.657,0.107,0.734,0
0.541,-0.021,1.082,0
0.491,0.108,0.959,0
0.493,0.24,0.858,0
0.532,0.376,0.995,0
0.421,0.361,1.348,0
0.33,0.307,1.555,0
0.448,0.287,1.571,0
0.68,0.378,1.943,0
0.839,0.438,2.21,0
0.628,0.499,2.133,0
0.026,0.747,1.558,0
-0.421,1.057,0.351,1
-0.269,1.191,-0.289,1
0.248,1.516,-0.707,1
0.379,1.542,-0.245,1
0.601,1.062,1.479,1
0.766,0.334,2.63,1
1.064,-0.579,3.782,1
1.222,-1.113,5.044,1
0.999,-1.539,5.949,1
0.634,-1.572,5.586,1
0.241,-1.53,2.662,1
0.041,-1.134,0.93,1
-0.014,-0.809,-0.363,1
0.039,-0.661,-1.169,1
-0.284,-0.454,-1.797,1
-0.104,-0.542,-1.742,1
-0.109,-0.535,-1.744,1
0.756,-0.577,-0.815,1
0.924,-0.908,-0.507,1
0.982,-1.055,-0.551,1
0.914,-1.353,-0.506,1
0.895,-1.5,-0.703,0
0.701,-1.518,-1.11,0
0.633,-1.511,-1.417,0
0.695,-1.289,-1.894,0
0.839,-0.998,-2.485,0
0.933,-0.611,-2.992,0
1.013,-0.424,-3.263,0
0.937,-0.199,-3.331,0
0.865,-0.157,-3.077,0
0.815,-0.215,-2.411,0
0.758,-0.212,-2.022,0
0.596,-0.311,-1.419,0
0.543,-0.352,-1.16,0
0.419,-0.288,-0.932,0
0.46,-0.182,-0.83,0
0.507,-0.029,-0.843,0
0.524,0.062,-0.932,0
0.468,0.074,-0.957,0
0.471,0.051,-0.879,0
0.505,-0.041,-0.331,0
0.49,-0.144,0.218,0
0.544,-0.172,0.747,0
0.62,-0.158,0.937,0
0.518,-0.177,0.922,0
0.506,-0.091,0.512,0
0.621,0.303,-0.18,0
0.739,0.373,-0.089,0
0.825,0.155,0.617,0
0.788,0.034,1.148,0
0.883,-0.174,1.919,0
0.916,-0.097,2.226,0
0.571,0.457,2.206,0
0.293,1.033,1.244,0
0.656,1.373,-0.302,1
1.119,1.574,-0.232,1
1.572,1.657,0.545,1
1.312,1.361,1.436,1
0.547,0.497,2.716,1
0.609,-0.045,2.977,1
1.112,-0.714,4.043,1
1.315,-1.185,5.278,1
1.183,-1.854,6.994,1
0.911,-1.913,6.917,1
0.649,-1.694,4.831,1
0.649,-1.523,2.812,1
0.761,-0.962,0.482,1
0.952,-0.725,0.006,1
1.073,-0.511,-1.005,1
1.002,-0.62,-1.102,1
1.073,-0.963,-0.725,1
1.233,-1.058,-0.344,1
1.486,-1.142,0.259,1
1.624,-1.213,0.311,1
1.879,-0.971,-0.228,1
1.894,-0.766,-0.698,0
1.814,-0.577,-1.631,0
1.698,-0.378,-2.04,0
1.528,-0.248,-2.328,0
1.455,-0.222,-2.922,0
1.204,-0.113,-3.194,0
1.149,-0.136,-2.875,0
0.893,-0.241,-2.162,0
0.696,-0.282,-1.675,0
0.641,-0.236,-1.455,0
0.481,-0.209,-1.481,0
0.264,-0.202,-1.511,0
0.197,-0.161,-1.425,0
0.217,-0.149,-1.426,0
0.113,-0.096,-1.114,0
0.246,-0.041,-1.032,0
0.395,0.009,-0.935,0
0.815,0.175,-0.623,0
1.019,0.31,-0.403,0
0.999,0.309,-0.406,0
1.015,0.301,0.564,0
0.903,0.352,1.265,0
0.822,0.386,1.319,0
0.532,0.522,1.047,0
0.502,0.636,0.965,0
0.642,0.912,1.198,0
0.741,0.963,1.424,0
0.962,0.834,2.138,0
1.005,0.717,2.545,0
1.134,0.503,2.868,0
1.138,0.289,3.125,0
0.869,0.375,3.236,0
0.494,0.58,2.402,0
0.265,0.972,0.446,1
0.247,1.129,-0.026,1
0.223,1.197,-0.339,1
0.141,1.11,-0.464,1
0.301,0.95,-0.344,1
0.456,0.576,0.873,1
0.909,-0.264,2.85,1
1.17,-0.692,3.877,1
1.303,-0.969,4.567,1
1.291,-0.99,4.172,1
1.196,-0.771,1.883,1
0.973,-0.571,0.397,1
0.674,-0.593,-0.632,1
0.584,-0.583,-0.794,1
0.33,-0.602,-1.365,1
0.262,-0.815,-1.28,1
0.452,-1.187,-0.727,1
0.536,-1.284,-0.48,1
0.654,-1.472,-0.516,1
0.674,-1.527,-0.731,1
0.813,-1.416,-1.461,1
0.862,-1.326,-1.945,0
0.902,-1.279,-1.931,0
0.824,-1.273,-1.486,0
0.709,-1.174,-1.405,0
0.614,-1.097,-1.401,0
0.535,-0.959,-1.163,0
0.5,-0.824,-1.114,0
0.45,-0.704,-1.099,0
0.411,-0.646,-1.156,0
0.488,-0.44,-1.527,0
0.693,-0.263,-1.82,0
0.688,-0.261,-1.821,0
0.916,-0.04,-1.319,0
0.807,-0.083,-1.103,0
0.755,-0.143,-0.857,0
0.675,-0.164,-0.617,0
0.555,-0.19,-0.188,0
0.382,-0.318,0.251,0
0.256,-0.255,0.033,0
0.32,-0.055,-0.479,0
0.324,0.056,-0.602,0
0.331,0.053,-0.6,0
0.682,0.456,-0.738,0
0.699,0.627,-0.674,0
0.77,0.619,-0.516,0
0.648,0.529,0.327,0
0.659,0.39,0.999,0
0.632,0.171,1.416,0
0.605,0.116,1.533,0
0.607,-0.067,1.99,0
0.621,-0.203,2.399,0
0.398,-0.226,2.576,0
-0.06,0.047,2.292,0
-0.591,0.605,1.088,1
-0.428,0.822,0.519,1
0.463,1.063,0.383,1
0.926,1.048,0.73,1
1.272,0.659,2.106,1
0.91,0.318,2.655,1
0.726,-0.024,2.341,1
0.786,-0.403,2.137,1
0.89,-1.06,2.462,1
0.867,-1.325,2.748,1
0.302,-1.584,2.75,1
0.032,-1.513,2.229,1
-0.126,-1.233,0.643,1
-0.141,-1.054,-0.146,1
-0.075,-0.817,-0.875,1
-0.05,-0.639,-1.381,1
-0.011,-0.493,-1.644,1
0.147,-0.461,-1.325,1
0.551,-0.583,-0.766,1
0.677,-0.693,-0.401,1
0.813,-0.978,0.351,1
0.858,-1.068,0.6,0
0.8,-1.107,0.668,0
0.797,-0.998,0.372,0
0.959,-0.645,-0.373,0
0.991,-0.351,-0.918,0
0.982,-0.098,-1.52,0
1.067,0.082,-1.785,0
1.161,0.323,-1.856,0
1.137,0.428,-1.8,0
1.146,0.485,-1.952,0
1.099,0.491,-1.759,0
1.053,0.595,-1.148,0
1.047,0.612,-1.13,0
0.874,0.585,-1.401,0
0.847,0.586,-1.372,0
0.731,0.455,-0.807,0
0.769,0.376,-0.485,0
0.902,0.472,-0.086,0
1.034,0.478,0.152,0
1.136,0.435,0.543,0
1.069,0.312,0.859,0
1.056,0.158,0.864,0
1.053,0.196,0.594,0
0.854,0.189,0.661,0
0.754,0.142,0.786,0
0.442,0.192,0.562,0
0.36,0.246,0.321,0
0.444,0.504,0.017,0
0.623,0.633,0.187,0
0.761,0.56,1.174,0
0.811,0.446,1.873,0
0.649,0.184,2.864,0
0.451,-0.056,3.093,0
-0.036,0.119,2.245,0
-0.124,0.341,1.36,0
-0.163,0.879,0.179,1
-0.138,1.148,-0.591,1
0.158,1.777,-1.538,1
0.477,2.045,-1.663,1
0.939,1.811,-0.486,1
1.102,0.835,1.628,1
0.769,-1.153,5.084,1
0.397,-2.203,7.039,1
0.193,-3.237,9.103,1
0.121,-3.198,7.998,1
0.287,-2.24,3.27,1
0.388,-1.491,0.897,1
0.889,-0.541,-2.039,1
0.803,0.076,-4.102,1
0.439,0.431,-4.843,1
0.271,0.313,-4.018,1
0.164,-0.003,-2.312,1
0.271,-0.285,-1.571,1
0.529,-0.741,-1.261,1
0.456,-0.756,-1.265,1
0.588,-1.291,-0.337,1
0.671,-1.258,-0.567,0
0.697,-1.095,-1.064,0
0.637,-1.026,-1.174,0
0.43,-0.844,-1.253,0
0.268,-0.808,-1.379,0
-0.007,-0.772,-1.604,0
-0.114,-0.69,-1.727,0
-0.121,-0.54,-1.703,0
-0.03,-0.405,-1.659,0
0.217,-0.192,-1.499,0
0.384,0.006,-1.243,0
0.619,0.228,-1.126,0
0.611,0.336,-1.041,0
0.496,0.359,-0.923,0
0.424,0.384,-0.977,0
0.366,0.527,-1.131,0
0.432,0.581,-1.224,0
0.556,0.628,-1.106,0
0.615,0.617,-0.926,0
0.669,0.511,-0.563,0
0.727,0.401,-0.178,0
0.536,0.22,0.458,0
0.29,0.103,0.955,0
-0.232,-0.133,2.144,0
-0.512,-0.163,2.258,0
-0.546,0.138,1.215,0
-0.295,0.512,0.167,0
-0.106,0.823,-0.504,0
0.131,0.94,-0.772,0
0.19,1.037,-0.357,0
0.307,0.877,0.612,0
-0.095,0.53,1.827,0
-0.567,0.622,2.029,0
-0.454,0.907,1.112,0
-0.18,1.063,0.46,1
0.289,1.105,0.466,1
0.61,0.793,1.23,1
0.599,0.821,1.22,1
0.036,-0.596,4.149,1
-0.29,-1.156,5.028,1
-0.268,-1.326,5.026,1
-0.361,-1.672,4.551,1
-0.424,-1.885,4.042,1
-0.659,-1.746,2.591,1
-0.641,-1.605,1.451,1
-0.201,-1.155,-0.176,1
0.367,-0.645,-1.37,1
1.026,-0.042,-2.919,1
1.168,0.212,-3.226,1
1.09,-0.074,-2.599,1
1.021,-0.266,-2.08,1
0.871,-0.626,-1.161,1
0.725,-0.972,-0.785,1
0.373,-1.359,-0.29,1
0.311,-1.487,0.014,1
0.379,-1.357,0.196,0
0.56,-1.117,0.088,0
0.566,-1.102,0.084,0
0.748,-0.467,-0.739,0
0.697,-0.112,-1.527,0
0.604,-0.003,-1.792,0
0.549,0.175,-1.9,0
0.614,0.333,-1.957,0
0.719,0.332,-1.871,0
0.679,0.459,-1.73,0
0.673,0.455,-1.73,0
0.94,0.592,-1.104,0
1.075,0.611,-0.61,0
1.164,0.665,-0.431,0
1.035,0.58,-0.205,0
0.983,0.551,-0.053,0
0.888,0.489,0.001,0
0.769,0.477,0.029,0
0.733,0.464,-0.064,0
0.651,0.428,0.078,0
0.6,0.439,0.421,0
0.687,0.487,0.402,0
0.596,0.579,0.194,0
0.486,0.543,0.187,0
0.348,0.538,0.322,0
0.295,0.532,0.752,0
0.223,0.465,1.204,0
0.206,0.265,1.328,0
0.218,0.132,1.561,0
0.328,0.05,1.946,0
0.528,0.081,2.225,0
0.304,0.176,2.187,1
-0.086,0.717,1.244,1
-0.244,1.017,0.257,1
0.091,1.507,-0.794,1
0.314,1.72,-0.978,1
0.451,1.576,-0.393,1
0.464,1.063,0.811,1
0.75,-0.182,2.828,1
0.683,-0.881,3.852,1
0.522,-1.877,5.582,1
0.331,-2.47,6.236,1
-0.066,-1.984,4.473,1
-0.004,-1.488,1.601,1
-0.257,-1.03,-0.52,1
-0.225,-0.775,-1.672,1
-0.634,-0.454,-2.729,1
-0.956,-0.434,-2.674,1
-0.768,-0.534,-1.99,1
-0.446,-0.529,-1.686,1
0.093,-0.71,-1.339,1
0.272,-0.892,-1.135,1
0.509,-1.096,-0.804,0
0.654,-1.248,-0.537,0
0.771,-1.185,-0.444,0
0.704,-1.168,-0.522,0
0.713,-1.135,-0.532,0
0.307,-1.166,-1.261,0
0.124,-1.052,-1.564,0
0.088,-0.874,-1.59,0
0.104,-0.6,-1.903,0
0.158,-0.361,-2.07,0
0.272,-0.094,-2.067,0
0.353,0.049,-2.196,0
0.298,0.175,-2.377,0
0.301,0.276,-2.257,0
0.473,0.321,-1.669,0
0.428,0.351,-1.279,0
0.282,0.208,-0.718,0
0.179,0.097,-0.553,0
0.163,0.098,-0.555,0
-0.065,0.115,-0.407,0
-0.114,0.139,-0.176,0
-0.061,0.27,-0.216,0
-0.075,0.349,-0.043,0
-0.127,0.3,0.197,0
-0.273,0.359,0.584,0
-0.313,0.32,0.736,0
-0.337,0.264,0.862,0
-0.279,0.435,0.87,0
-0.177,0.561,1.157,0
-0.122,0.535,1.424,0
-0.11,0.481,1.687,0
-0.079,0.368,2.1,0
-0.083,0.454,2.474,0
-0.313,0.691,2.358,1
-0.324,0.666,2.365,1
0.255,1.253,0.836,1
0.8,1.205,0.906,1
0.764,0.989,1.393,1
0.509,0.218,2.799,1
0.107,-0.118,3.577,1
-0.026,-0.346,3.664,1
0.174,-0.431,3.498,1
0.557,-0.602,3.154,1
0.635,-0.678,2.965,1
0.315,-0.768,2.72,1
0.103,-0.826,2.021,1
0.002,-0.705,0.58,1
0.109,-0.577,-0.291,1
0.332,-0.491,-0.706,1
0.544,-0.357,-0.952,1
0.779,-0.346,-1.188,1
0.834,-0.487,-1.074,1
0.927,-0.737,-0.966,1
0.93,-0.849,-1.022,1
0.939,-1.021,-0.984,0
0.89,-1.183,-0.928,0
0.788,-1.198,-1.196,0
0.801,-1.116,-1.299,0
0.846,-0.927,-1.433,0
0.846,-0.847,-1.418,0
0.658,-0.768,-1.137,0
0.549,-0.755,-1.171,0
0.41,-0.554,-1.586,0
0.345,-0.445,-1.707,0
0.349,-0.455,-1.703,0
0.352,-0.197,-1.801,0
0.391,-0.082,-1.922,0
0.476,0.027,-1.798,0
0.496,0.12,-1.371,0
0.523,0.111,-1.084,0
0.493,0.095,-0.858,0
0.475,0.113,-0.775,0
0.554,0.12,-0.643,0
0.504,0.082,-0.279,0
0.427,0.016,0.226,0
0.473,-0.053,0.268,0
0.523,-0.173,0.496,0
0.54,-0.241,0.909,0
0.674,-0.291,1.407,0
0.687,-0.208,1.339,0
0.59,-0.058,0.734,0
0.486,0.008,0.399,0
0.464,0.176,0.485,0
0.542,0.241,0.829,0
0.539,0.034,1.437,0
0.601,-0.056,1.832,0
0.841,0.011,1.793,0
0.658,0.353,1.433,0
0.326,1.064,0.364,0
0.437,1.326,-0.764,0
0.483,1.676,-1.226,1
0.662,1.678,-0.673,1
0.833,1.246,1.187,1
0.821,0.811,2.397,1
1.021,-0.062,3.411,1
1.21,-0.566,3.998,1
1.215,-1.344,5.066,1
0.947,-1.483,5.071,1
0.334,-1.575,3.665,1
0.115,-1.276,1.658,1
-0.035,-0.838,-0.061,1
0.082,-0.72,-0.563,1
-0.076,-0.415,-1.213,1
-0.035,-0.462,-1.202,1
0.178,-0.858,-0.517,1
0.351,-1.112,-0.112,1
0.541,-1.423,0.127,1
0.66,-1.521,-0.016,1
0.725,-1.573,-0.403,1
0.764,-1.558,-0.842,1
0.724,-1.354,-1.679,1
0.709,-1.202,-2.042,0
0.593,-1.098,-2.274,0
0.51,-1.031,-2.467,0
0.396,-0.817,-2.554,0
0.376,-0.702,-2.372,0
0.426,-0.585,-2.148,0
0.414,-0.4,-1.952,0
0.551,-0.208,-1.696,0
0.628,-0.042,-1.525,0
0.739,0.157,-1.36,0
0.792,0.2,-1.223,0
0.763,0.235,-0.904,0
0.771,0.254,-0.739,0
0.616,0.229,-0.6,0
0.631,0.257,-0.723,0
0.654,0.353,-0.894,0
0.667,0.346,-0.835,0
0.777,0.279,-0.513,0
0.741,0.165,-0.189,0
0.734,0.17,-0.192,0
0.531,-0.267,0.513,0
0.525,-0.27,0.513,0
0.319,-0.277,0.386,0
0.132,-0.122,0.091,0
0.219,-0.013,0.125,0
0.495,0.124,0.561,0
0.768,0.124,0.744,0
0.997,0.053,1.239,0
1.067,-0.107,1.794,0
1.134,0.036,2.836,0
0.601,0.542,2.898,0
0.23,0.916,1.005,0
0.468,0.994,0.342,0
0.483,0.982,0.347,1
1.232,0.946,1.634,1
1.042,0.431,3.052,1
0.812,0.133,3.436,1
0.973,-0.438,3.237,1
1.082,-0.779,3.423,1
1.059,-1.275,4.304,1
0.893,-1.387,4.444,1
0.731,-1.398,4.182,1
0.836,-1.224,2.998,1
0.974,-0.718,0.623,1
1.156,-0.502,-0.472,1
1.253,-0.285,-1.355,1
1.285,-0.234,-1.438,1
1.304,-0.565,-1.1,1
1.329,-0.852,-0.741,1
1.305,-1.172,-0.354,1
1.333,-1.254,-0.334,1
1.418,-1.294,-0.194,1
1.485,-1.166,-0.053,1
1.495,-1.151,-0.055,1
1.526,-0.691,-0.621,0
1.454,-0.322,-1.506,0
1.437,-0.195,-1.839,0
1.439,-0.026,-2.393,0
1.43,0.056,-2.718,0
1.288,0.2,-2.788,0
1.126,0.182,-2.744,0
0.98,0.161,-2.702,0
1.026,0.197,-2.395,0
0.977,0.232,-1.438,0
0.987,0.245,-1.138,0
0.973,0.249,-1.141,0
0.999,0.336,-0.61,0
0.943,0.209,0.462,0
0.788,0.062,0.989,0
0.721,0.089,1.017,0
0.915,0.215,0.855,0
1.23,0.424,1.022,0
1.305,0.455,1.256,0
1.272,0.388,1.596,0
1.167,0.312,1.628,0
0.806,0.243,1.569,0
0.608,0.161,1.562,0
0.411,0.16,1.351,0
0.46,0.378,1.126,0
0.728,0.629,1.018,0
0.848,0.597,1.339,0
1.07,0.459,1.816,0
1.275,0.453,2.049,0
1.308,0.604,2.089,0
1.1,0.79,1.83,0
0.794,1.092,0.809,1
0.72,1.202,0.273,1
0.618,1.278,-0.324,1
0.373,1.212,-0.486,1
0.139,0.801,0.106,1
0.141,0.46,0.96,1
0.586,-0.32,2.762,1
0.761,-0.913,3.956,1
0.745,-1.744,5.597,1
0.489,-2.022,5.665,1
0.417,-2.032,3.734,1
0.304,-1.509,1.202,1
0.218,-0.98,-0.534,1
0.361,-0.795,-1.385,1
0.304,-0.211,-2.558,1
0.554,-0.134,-2.542,1
0.886,-0.379,-1.758,1
0.963,-0.627,-1.103,1
1.039,-1.257,-0.439,1
1.101,-1.42,-0.495,1
1.117,-1.599,-0.599,1
1.112,-1.745,-0.818,0
0.976,-1.551,-1.327,0
0.986,-1.387,-1.796,0
1.025,-0.984,-1.996,0
1.062,-0.782,-1.968,0
1.029,-0.496,-2.205,0
0.999,-0.341,-2.333,0
0.91,-0.232,-2.194,0
0.763,-0.191,-2.003,0
0.65,-0.182,-1.475,0
0.623,-0.168,-1.218,0
0.594,-0.056,-1.098,0
0.623,-0.027,-0.995,0
0.706,0.001,-0.775,0
0.69,0.09,-0.728,0
0.685,0.096,-0.731,0
0.482,0.107,-0.37,0
0.408,0.178,-0.64,0
0.314,0.254,-0.729,0
0.299,0.309,-0.703,0
0.279,0.313,-0.5,0
0.275,0.314,-0.501,0
0.261,0.268,0.32,0
0.125,0.242,0.586,0
0.004,0.166,0.698,0
-0.106,0.2,1.012,0
0.092,0.273,0.993,0
0.515,0.478,0.713,0
0.538,0.494,0.813,0
0.631,0.343,1.22,0
0.58,0.208,1.457,0
0.05,0.194,1.988,0
-0.511,0.428,2.043,1
-0.524,0.409,2.048,1
-0.193,1.19,0.307,1
0.241,1.212,0.19,1
0.477,1.007,0.454,1
0.169,0.5,1.829,1
0.239,0.069,2.596,1
0.448,-0.505,3.532,1
0.517,-0.922,4.384,1
0.543,-1.543,5.463,1
0.2,-1.803,5.513,1
-0.102,-1.9,4.474,1
-0.076,-1.687,2.829,1
0.197,-1.158,0.73,1
0.38,-0.924,0.081,1
0.478,-0.706,-0.704,1
0.564,-0.555,-1.01,1
0.724,-0.524,-1.259,1
0.762,-0.643,-1.235,1
0.751,-0.641,-1.237,1
1.05,-0.788,-0.526,1
1.02,-0.906,-0.016,0
1.013,-0.831,-0.039,0
0.935,-0.62,-0.593,0
0.868,-0.494,-1.029,0
0.802,-0.179,-1.645,0
0.795,0.01,-1.877,0
0.881,0.222,-2.078,0
0.813,0.287,-2.386,0
0.767,0.37,-2.615,0
0.706,0.319,-2.23,0
0.53,0.174,-1.406,0
0.343,-0.03,-1.055,0
0.149,-0.247,-0.57,0
-0.057,-0.317,-0.416,0
-0.288,-0.446,-0.484,0
-0.238,-0.358,-0.48,0
0.09,-0.085,-0.573,0
0.287,0.104,-0.8,0
0.549,0.279,-1.069,0
0.72,0.398,-1.226,0
0.882,0.458,-1.221,0
0.849,0.35,-0.831,0
0.856,0.338,-0.827,0
0.321,-0.202,0.544,0
0.113,-0.308,0.735,0
0.181,-0.113,0.919,0
0.497,0.13,0.954,0
0.778,0.324,0.948,0
1.107,0.553,1.198,0
1.12,0.486,1.597,0
0.935,0.192,2.324,0
0.749,-0.004,2.787,0
0.138,0.207,2.729,0
-0.231,0.592,1.589,0
-0.33,1.147,-0.445,0
-0.162,1.295,-0.8,1
-0.142,1.266,-0.787,1
-0.007,1.353,-0.538,1
0.128,0.574,1.197,1
0.242,-0.146,2.273,1
0.188,-0.104,2.252,1
0.306,-1.759,5.63,1
0.066,-2.063,5.988,1
-0.139,-1.973,4.632,1
-0.111,-1.345,1.3,1
-0.104,-0.927,-0.409,1
0.127,-0.637,-1.722,1
-0.014,-0.42,-2.252,1
-0.17,-0.495,-2.181,1
-0.168,-0.736,-1.715,1
0.063,-1.161,-0.63,1
0.248,-1.335,-0.163,1
0.336,-1.534,-0.252,1
0.35,-1.586,-0.509,1
0.512,-1.515,-0.803,1
0.663,-1.327,-0.952,1
0.728,-1.165,-0.96,0
0.772,-1.125,-1.112,0
0.639,-1.019,-1.714,0
0.604,-0.95,-1.981,0
0.496,-0.796,-2.115,0
0.505,-0.627,-2.299,0
0.485,-0.502,-2.291,0
0.475,-0.343,-2.046,0
0.567,-0.165,-1.679,0
0.658,-0.099,-1.403,0
0.718,-0.082,-0.828,0
0.675,-0.102,-0.504,0
0.626,-0.152,-0.26,0
0.461,-0.166,-0.193,0
0.33,-0.134,-0.094,0
0.348,-0.039,-0.233,0
0.351,-0.04,-0.233,0
0.399,0.357,-0.373,0
0.377,0.401,0.095,0
0.418,0.442,0.34,0
0.421,0.439,0.341,0
0.089,0.486,0.669,0
0.002,0.542,0.379,0
0.05,0.582,0.419,0
0.225,0.567,0.705,0
0.298,0.432,0.997,0
0.576,0.379,1.527,0
0.695,0.39,1.678,0
0.693,0.35,1.8,0
0.436,0.497,1.808,0
-0.275,1.044,1.082,0
-0.378,1.249,0.399,0
0.228,1.339,-0.012,1
0.769,1.319,0.442,1
1.031,0.74,2.214,1
0.532,0.276,3.486,1
0.28,-0.129,3.389,1
0.546,-0.338,2.961,1
1.135,-0.951,3.371,1
1.151,-1.147,3.625,1
0.775,-1.32,3.707,1
0.678,-1.345,2.979,1
0.727,-0.986,1.17,1
0.751,-0.591,-0.096,1
0.939,-0.2,-1.502,1
0.963,-0.034,-2.248,1
0.957,0.202,-2.783,1
1.011,0.145,-2.892,1
1.032,-0.188,-2.454,1
0.924,-0.494,-1.852,1
0.711,-1.009,-0.854,1
0.482,-1.253,-0.236,1
0.517,-1.391,0.504,1
0.537,-1.363,0.946,0
0.577,-1.193,0.732,0
0.608,-0.965,0.052,0
0.627,-0.551,-1.322,0
0.635,-0.338,-1.939,0
0.537,-0.14,-2.306,0
0.403,-0.151,-2.079,0
0.145,-0.295,-1.435,0
-0.045,-0.392,-0.901,0
-0.081,-0.22,-0.537,0
-0.03,-0.082,-0.626,0
-0.066,0.12,-0.648,0
-0.049,0.139,-0.542,0
-0.122,0.152,-0.393,0
-0.144,0.176,-0.23,0
-0.066,0.113,-0.095,0
-0.067,0.097,-0.107,0
-0.006,0.08,-0.155,0
0.102,0.114,-0.177,0
0.295,0.173,-0.167,0
0.275,0.165,-0.002,0
0.052,0.123,0.496,0
-0.14,0.064,0.584,0
-0.478,0.021,0.665,0
-0.577,-0.004,1.173,0
-0.447,-0.013,1.35,0
-0.266,0.106,1.13,0
-0.165,0.155,0.9,0
-0.148,0.077,0.804,0
-0.351,0.207,0.817,0
-0.655,0.539,0.741,0
-0.957,1.236,-0.179,0
-0.791,1.456,-0.708,0
-0.777,1.439,-0.7,1
-0.414,1.463,-0.122,1
-0.527,0.899,0.527,1
-0.441,0.258,1.327,1
-0.255,-0.774,3.136,1
-0.316,-1.434,4.568,1
-0.157,-2.131,6.102,1
-0.256,-2.249,5.787,1
-0.635,-1.865,3.07,1
-0.708,-1.463,0.785,1
-0.718,-0.966,-0.649,1
-0.641,-0.755,-1.392,1
-0.877,-0.451,-1.883,1
-0.694,-0.364,-1.695,1
-0.363,-0.181,-1.153,1
-0.271,-0.241,-0.912,1
-0.162,-0.633,-0.681,1
-0.101,-0.826,-0.725,1
-0.034,-1.117,-0.834,1
0.126,-1.195,-0.843,1
0.166,-1.284,-0.721,1
0.046,-1.404,-0.688,0
-0.146,-1.397,-0.92,0
-0.185,-1.253,-1.026,0
-0.1,-0.956,-1.272,0
-0.023,-0.709,-1.502,0
-0.009,-0.429,-1.691,0
-0.058,-0.299,-1.663,0
-0.172,-0.091,-1.651,0
-0.183,0.031,-1.784,0
-0.199,0.051,-1.714,0
-0.157,0.058,-1.377,0
-0.184,0.043,-0.902,0
-0.135,0.083,-0.787,0
-0.048,0.118,-0.745,0
0.052,0.176,-0.942,0
0.007,0.304,-1.052,0
-0.012,0.339,-0.855,0
-0.043,0.384,-0.644,0
-0.15,0.396,-0.522,0
-0.254,0.37,-0.247,0
-0.45,0.297,0.201,0
-0.676,0.129,0.897,0
-0.68,0.113,1.119,0
-0.623,0.194,1.195,0
-0.414,0.364,1.101,0
-0.174,0.402,1.052,0
-0.154,0.281,1.356,0
0.015,0.205,1.947,0
0.061,0.236,2.131,0
-0.492,0.523,1.978,0
-0.845,0.775,1.249,0
-0.654,0.867,0.125,0
-0.483,0.963,0.39,1
0.078,1.065,1.21,1
0.187,0.846,1.978,1
-0.375,0.229,3.013,1
-0.707,-0.168,3.137,1
-0.605,-0.802,3.549,1
-0.456,-1.171,4.144,1
-0.572,-1.74,4.719,1
-0.805,-1.927,4.488,1
-0.985,-1.872,2.93,1
-0.815,-1.57,1.232,1
-0.432,-1.161,-0.048,1
-0.167,-0.93,-0.501,1
0.099,-0.504,-1.288,1
0.28,-0.41,-1.48,1
0.445,-0.661,-1.318,1
0.417,-0.754,-1.217,1
0.431,-0.743,-1.219,1
0.452,-0.972,-0.989,1
0.451,-0.966,-0.991,1
0.417,-0.97,-1.267,1
0.378,-0.821,-1.22,0
0.369,-0.623,-1.138,0
0.423,-0.305,-1.448,0
0.435,-0.299,-1.449,0
0.474,0.128,-1.67,0
0.453,0.184,-1.493,0
0.238,0.074,-1.447,0
0,-0.008,-1.571,0
-0.08,-0.077,-1.869,0
-0.001,0.007,-2.143,0
0.233,0.264,-2.201,0
0.382,0.303,-2.155,0
0.391,0.379,-1.847,0
0.29,0.334,-1.279,0
0.019,0.073,-0.203,0
-0.161,-0.077,0.049,0
-0.391,-0.17,0.174,0
-0.398,-0.19,0.344,0
-0.266,-0.11,0.332,0
-0.157,-0.048,0.124,0
0.086,0.13,0.13,0
0.144,0.189,0.192,0
0.16,0.32,0.227,0
0.063,0.376,0.398,0
-0.15,0.228,0.756,0
-0.219,0.105,0.784,0
-0.037,0.099,0.986,0
0.209,0.118,1.089,0
0.379,0.188,1.526,0
0.525,0.213,1.36,0
0.418,0.371,1.052,0
0.149,0.604,0.808,0
-0.542,1.219,0.006,0
-0.653,1.302,-0.378,0
-0.589,1.298,-0.542,1
-0.348,1.112,-0.293,1
0.119,0.523,1.386,1
0.364,-0.104,3.118,1
0.223,-1.09,5.06,1
0.134,-1.52,5.668,1
-0.084,-1.939,5.127,1
-0.155,-1.912,4.009,1
-0.435,-1.149,0.963,1
-0.608,-0.728,-0.439,1
-0.595,-0.439,-1.385,1
-0.741,-0.144,-2.291,1
-0.948,0.062,-2.372,1
-0.934,0.009,-2.187,1
-0.922,-0.036,-1.605,1
-0.642,-0.19,-1.108,1
-0.215,-0.515,-0.417,1
-0.173,-0.742,-0.186,1
-0.094,-1.134,0.411,1
-0.184,-1.402,0.97,1
-0.229,-1.563,1.093,1
-0.109,-1.435,0.577,0
-0.015,-1.229,-0.26,0
-0.018,-1.174,-0.541,0
-0.018,-1.095,-0.809,0
-0.126,-1.047,-0.885,0
-0.162,-0.798,-1.386,0
-0.22,-0.634,-1.839,0
-0.318,-0.427,-1.977,0
-0.385,-0.328,-1.899,0
-0.479,-0.252,-1.724,0
-0.43,-0.209,-1.544,0
-0.227,0.051,-1.132,0
-0.16,0.11,-1.025,0
-0.176,0.111,-1.075,0
-0.253,0.047,-0.879,0
-0.342,-0.041,-0.322,0
-0.34,-0.079,-0.177,0
-0.307,-0.038,-0.016,0
-0.181,0.037,0.127,0
-0.128,0.069,0.466,0
-0.136,0.069,0.709,0
-0.216,0.133,0.919,0
-0.29,0.185,0.953,0
-0.06,0.294,0.703,0
0.18,0.441,0.59,0
0.576,0.555,0.742,0
0.693,0.409,0.993,0
0.567,0.223,1.238,0
0.515,0.119,1.265,0
0.369,-0.054,0.884,0
0.047,0.114,0.905,0
0.059,0.085,0.915,0
-0.053,0.757,0.349,0
0.695,1.075,0.272,1
0.944,1.121,0.75,1
0.825,0.618,1.942,1
0.515,-0.091,2.594,1
-0.406,-0.691,2.954,1
-0.634,-0.932,2.665,1
-0.592,-0.836,1.363,1
-0.434,-0.61,0.757,1
-0.294,-0.439,0.471,1
-0.278,-0.482,0.354,1
-0.245,-0.58,0.465,1
-0.188,-0.753,0.527,1
-0.332,-0.967,0.475,1
-0.334,-1.076,0.421,1
-0.317,-1.065,0.418,1
-0.077,-1.294,0.041,1
0.132,-1.219,0.056,1
0.213,-1.166,0.006,1
0.44,-0.92,-0.536,1
0.576,-0.711,-0.865,1
0.741,-0.495,-0.907,1
0.758,-0.359,-1.133,0
0.766,-0.351,-1.135,0
0.442,-0.272,-1.725,0
0.509,-0.082,-2.039,0
0.506,-0.081,-2.04,0
0.863,0.447,-1.879,0
0.976,0.61,-1.903,0
1.047,0.754,-1.786,0
1.025,0.739,-1.578,0
0.804,0.865,-1.362,0
0.426,0.512,-0.726,0
0.417,0.25,-0.852,0
0.299,0.501,-0.879,0
0.284,0.293,-1.152,0
0.308,0.261,-1.388,0
0.422,0.391,-1.658,0
0.637,0.453,-1.808,0
0.593,0.372,-1.636,0
0.336,0.23,-0.969,0
-0.188,-0.353,0.345,0
-0.399,-0.529,0.714,0
-0.727,-0.468,0.796,0
-0.483,-0.537,0.869,0
-0.082,-0.338,1.37,0
0.737,-0.034,2.322,0
0.935,0.602,1.237,0
0.966,0.583,1.245,0
1.007,0.647,0.584,0
0.713,0.478,0.991,0
0.371,0.357,2.048,0
0.084,0.64,2.314,0
-0.311,1.151,1.285,0
-0.144,1.401,0.491,0
-0.028,1.62,0.845,1
0.021,1.376,1.111,1
-0.126,0.902,1.778,1
0.139,0.206,3.188,1
0.478,-0.966,5.149,1
0.501,-1.43,5.763,1
0.678,-2.021,6.252,1
0.458,-2.179,5.59,1
-0.329,-1.906,2.321,1
-0.568,-1.503,0.037,1
-0.697,-1.142,-1.37,1
-0.896,-0.978,-1.617,1
-1.462,-0.786,-1.215,1
-1.476,-0.694,-0.767,1
-1.028,-0.532,-0.68,1
-0.654,-0.437,-0.906,1
-0.155,-0.517,-1.198,1
-0.039,-0.623,-1.229,1
0.006,-0.891,-1.372,1
-0.209,-1.117,-1.36,1
-0.34,-1.321,-1.278,1
-0.414,-1.379,-1.385,0
-0.438,-1.24,-1.65,0
-0.439,-1.068,-1.748,0
-0.424,-0.729,-1.989,0
-0.406,-0.545,-2.193,0
-0.225,-0.192,-2.603,0
0.027,0.1,-2.79,0
0.16,0.295,-2.508,0
0.115,0.271,-2.068,0
0.099,0.28,-2.072,0
-0.044,0.111,-0.932,0
-0.054,0.124,-0.936,0
-0.192,0.108,-0.939,0
-0.231,0.186,-1.211,0
-0.235,0.186,-1.211,0
-0.304,0.349,-1.216,0
-0.32,0.42,-0.822,0
-0.372,0.416,-0.172,0
-0.453,0.405,0.422,0
-0.505,0.347,1.05,0
-0.547,0.332,1.21,0
-0.424,0.519,1.293,0
-0.48,0.537,1.043,0
-0.173,0.79,0.569,0
-0.052,0.933,0.354,0
0.107,1.007,0.247,0
0.164,0.841,0.423,0
0.166,0.82,0.43,0
-0.19,0.305,2.094,0
-0.341,0.193,2.482,0
-0.575,0.37,2.299,0
-0.759,1.406,0.859,1
-0.221,1.792,-0.178,1
0.686,2.005,-0.172,1
0.684,1.634,0.52,1
0.428,0.697,1.273,1
-0.071,-0.009,2.238,1
-0.615,-0.682,2.984,1
-0.587,-0.959,3.242,1
-0.38,-1.296,3.355,1
-0.453,-1.451,3.442,1
-1.037,-1.694,2.957,1
-1.249,-1.783,2.203,1
-1.432,-1.828,1.402,1
-1.066,-1.747,0.836,1
-0.433,-1.269,-0.147,1
-0.079,-1.03,-0.97,1
0.523,-0.714,-1.802,1
0.732,-0.685,-1.87,1
0.696,-0.784,-1.78,1
0.693,-0.764,-1.582,1
0.437,-1,-1.225,1
0.193,-1.146,-0.719,0
-0.062,-1.257,-0.255,0
-0.177,-1.245,-0.286,0
-0.243,-1.045,-0.34,0
-0.126,-0.815,-0.495,0
-0.007,-0.392,-1.275,0
0.114,-0.226,-1.606,0
-0.046,-0.07,-2.095,0
-0.056,-0.043,-2.087,0
-0.115,0.003,-1.702,0
-0.085,0,-1.2,0
-0.138,-0.035,-0.49,0
-0.227,-0.061,-0.377,0
-0.29,-0.163,-0.284,0
-0.27,-0.135,-0.387,0
0.021,0.065,-0.737,0
0.202,0.164,-1.006,0
0.501,0.323,-1.547,0
0.668,0.435,-1.586,0
0.584,0.269,-1.351,0
0.461,0.18,-1.081,0
0.469,0.178,-1.08,0
0.438,0.295,-0.321,0
0.289,0.364,-0.014,0
0.194,0.366,0.266,0
0.099,0.301,0.967,0
0.115,0.31,1.285,0
0.237,0.365,1.233,0
0.274,0.353,1.032,0
0.3,0.376,1.079,0
0.406,0.391,1.033,0
0.258,0.612,0.997,0
-0.088,0.948,1.01,0
-0.239,1.604,0.38,0
