accelX,accelY,accelZ,label
-0.090,0.231,0.339,0.000
-0.090,0.231,0.339,0.000
-0.091,0.231,0.340,0.000
0.585,0.976,1.168,0.000
0.590,0.987,1.282,0.000
0.593,0.837,1.380,0.000
0.404,0.722,1.401,0.000
0.205,0.344,1.707,0.000
-0.007,-0.056,2.017,0.000
-0.307,-0.467,2.104,0.000
-0.400,-0.390,1.952,0.000
-0.351,-0.228,1.723,0.000
-0.204,-0.135,1.455,0.000
-0.054,-0.076,1.217,0.000
0.100,-0.042,1.053,0.000
0.478,0.135,1.126,0.000
0.573,0.208,1.564,0.000
0.679,0.237,2.418,0.000
0.555,0.196,2.812,0.000
0.595,0.087,3.102,0.000
0.587,0.115,2.934,0.000
0.484,-0.059,2.108,0.000
0.243,-0.045,1.404,0.000
-0.047,-0.077,0.195,0.000
0.030,-0.140,-0.487,0.000
0.206,-0.197,-1.406,0.000
0.214,-0.214,-1.766,0.000
0.162,-0.265,-2.055,0.000
0.060,-0.507,-1.732,0.000
-0.023,-0.941,-0.568,0.000
0.008,-1.060,0.277,0.000
-0.073,-1.228,0.899,0.000
-0.152,-1.170,0.965,0.000
-0.182,-1.258,0.833,0.000
-0.205,-1.149,0.394,0.000
-0.173,-0.964,0.338,0.000
-0.287,-0.763,-1.390,0.000
-0.537,-0.462,-2.195,0.000
-0.412,-0.484,-2.176,0.000
-0.079,-0.074,-2.201,0.000
0.052,0.042,-1.845,0.000
0.234,0.178,-1.578,0.000
0.278,0.270,-1.665,0.000
0.446,0.477,-1.766,0.000
0.577,0.429,-1.720,0.000
0.923,0.568,-1.988,0.000
0.971,0.635,-2.073,0.000
1.169,0.893,-1.844,0.000
0.980,0.716,-1.470,0.000
0.475,0.337,-1.217,0.000
0.037,-0.045,-0.926,0.000
-0.429,-0.336,-0.447,0.000
-0.540,-0.408,-0.317,0.000
-0.790,-0.603,-0.112,0.000
-0.594,-0.590,-0.084,0.000
-0.045,-0.251,-0.182,0.000
0.278,0.003,-0.279,0.000
0.788,0.470,-0.267,0.000
1.013,0.677,0.040,0.000
1.340,0.916,0.771,0.000
1.165,0.922,1.033,0.000
0.598,0.650,1.377,0.000
0.172,0.456,1.664,0.000
-0.468,0.157,2.011,0.000
-0.576,0.154,1.943,0.000
-0.523,0.180,2.033,0.000
-0.273,0.207,2.161,0.000
0.046,0.249,2.301,0.000
0.213,0.450,2.240,0.000
0.179,0.806,2.042,0.000
0.038,0.925,1.823,0.000
-0.177,1.002,1.205,0.000
-0.231,1.005,0.783,0.000
-0.415,1.030,-0.191,0.000
-0.590,1.000,-0.585,0.000
-1.025,1.153,-1.483,0.000
-0.923,1.054,-1.897,0.000
-0.477,0.923,-2.077,0.000
-0.279,0.629,-1.821,0.000
-0.222,0.431,-1.688,0.000
0.338,-0.254,-0.390,0.000
0.507,-0.918,1.468,0.000
0.438,-1.276,2.533,0.000
0.150,-1.559,3.942,0.000
-0.130,-1.381,4.262,0.000
-0.301,-1.225,3.785,0.000
-0.250,-0.898,2.786,0.000
-0.231,-0.608,0.697,0.000
-0.312,-0.486,-0.436,0.000
-0.579,-0.274,-1.462,0.000
-0.595,-0.197,-1.584,0.000
-0.427,-0.060,-1.346,0.000
-0.186,-0.046,-0.961,0.000
0.565,0.301,-0.480,0.000
0.839,0.460,-0.309,0.000
1.204,0.566,-0.097,0.000
1.216,0.493,-0.092,0.000
0.899,0.435,-0.617,0.000
0.558,0.369,-1.057,0.000
0.081,0.095,-1.601,0.000
-0.066,-0.050,-1.577,0.000
-0.120,-0.179,-1.616,0.000
-0.063,-0.097,-1.690,0.000
0.240,0.268,-1.402,0.000
0.512,0.485,-1.114,0.000
0.731,0.702,-0.644,0.000
0.750,0.778,-0.655,0.000
0.608,0.874,-1.125,0.000
0.405,0.910,-1.460,0.000
-0.112,0.640,-1.703,0.000
-0.404,0.474,-1.591,0.000
-0.816,0.237,-1.204,0.000
-0.895,0.185,-1.163,0.000
-0.840,0.313,-1.093,0.000
-0.722,0.409,-1.040,0.000
-0.421,0.603,-0.894,0.000
-0.298,0.625,-0.800,0.000
-0.163,0.666,-0.693,0.000
-0.097,0.719,-0.492,0.000
-0.246,0.639,-0.072,0.000
-0.444,0.561,0.178,0.000
-0.779,0.400,0.466,0.000
-0.866,0.319,0.452,0.000
-0.772,0.201,0.866,0.000
-0.672,0.097,1.179,0.000
-0.300,0.351,1.747,0.000
0.005,0.455,2.071,0.000
0.488,0.375,2.116,0.000
0.493,0.301,1.865,0.000
0.217,0.433,0.999,0.000
0.104,0.476,0.392,0.000
-0.032,0.256,-0.296,0.000
-0.013,-0.002,-0.370,0.000
0.054,-0.087,0.201,0.000
-0.001,0.040,0.967,0.000
-0.185,0.089,2.381,0.000
-0.207,0.030,2.908,0.000
0.095,0.150,2.692,0.000
0.262,0.449,1.647,0.000
0.488,0.516,-0.094,0.000
0.766,0.406,-0.904,0.000
1.139,0.207,-1.543,0.000
1.240,0.125,-1.626,0.000
0.896,-0.016,-0.894,0.000
0.739,-0.198,-0.277,0.000
0.364,-0.514,0.614,0.000
0.212,-0.588,0.933,0.000
0.193,-0.707,1.109,0.000
0.351,-0.690,0.698,0.000
0.598,-0.474,-0.149,0.000
0.796,-0.425,-0.478,0.000
1.103,-0.429,-0.779,0.000
1.182,-0.412,-0.737,0.000
1.056,-0.596,-0.434,0.000
0.737,-0.757,-0.207,0.000
0.255,-0.944,0.016,0.000
-0.015,-1.045,0.075,0.000
-0.219,-1.159,0.183,0.000
-0.160,-1.077,0.059,0.000
0.231,-0.643,-0.372,0.000
0.530,-0.320,-0.747,0.000
0.987,0.156,-1.256,0.000
1.167,0.382,-1.423,0.000
1.270,0.665,-1.778,0.000
1.097,0.699,-1.802,0.000
0.455,0.441,-1.708,0.000
0.072,0.232,-1.646,0.000
0.108,0.232,-1.643,0.000
-0.449,0.021,-1.099,0.000
-0.328,0.052,-0.541,0.000
-0.137,0.135,-0.301,0.000
0.163,0.290,-0.405,0.000
0.270,0.344,-0.668,0.000
0.562,0.621,-0.683,0.000
0.785,0.698,-0.334,0.000
0.758,0.587,0.135,0.000
0.553,0.530,0.372,0.000
0.156,0.394,0.877,0.000
-0.017,0.212,1.189,0.000
-0.255,-0.026,1.584,0.000
-0.345,-0.099,1.763,0.000
-0.286,0.019,1.892,0.000
-0.272,0.083,1.777,0.000
-0.249,0.269,1.534,0.000
-0.090,0.350,1.286,0.000
0.265,0.556,1.114,0.000
0.526,0.667,1.223,0.000
0.684,0.927,1.484,0.000
0.712,1.014,1.407,0.000
0.942,0.875,1.222,0.000
0.911,0.778,1.229,0.000
0.311,0.735,1.239,0.000
-0.217,0.681,1.176,0.000
-0.646,0.644,0.920,0.000
-0.792,0.676,0.822,0.000
-0.651,0.656,0.375,0.000
-0.364,0.440,0.041,0.000
0.128,0.010,0.220,0.000
0.389,-0.395,0.776,0.000
0.701,-0.860,2.089,0.000
0.735,-0.931,2.615,0.000
0.572,-1.009,2.999,0.000
0.551,-0.910,2.528,0.000
0.615,-0.634,1.004,0.000
0.553,-0.536,0.116,0.000
0.561,-0.415,-1.052,0.000
0.549,-0.329,-1.433,0.000
0.423,-0.248,-1.607,0.000
0.322,-0.343,-1.461,0.000
0.216,-0.631,-0.825,0.000
0.294,-0.725,-0.388,0.000
0.417,-0.742,-0.079,0.000
0.385,-0.817,0.057,0.000
0.453,-0.813,0.045,0.000
0.437,-0.804,-0.155,0.000
0.299,-0.704,-0.752,0.000
0.278,-0.629,-1.169,0.000
0.270,-0.574,-1.857,0.000
0.205,-0.539,-2.170,0.000
0.027,-0.473,-2.537,0.000
-0.038,-0.473,-2.569,0.000
-0.128,-0.467,-2.351,0.000
-0.083,-0.356,-2.083,0.000
0.256,0.060,-1.587,0.000
0.480,0.263,-1.095,0.000
0.591,0.344,-0.815,0.000
0.478,0.332,-1.061,0.000
0.198,0.199,-1.481,0.000
0.039,0.055,-1.489,0.000
-0.210,-0.190,-1.170,0.000
-0.370,-0.316,-0.868,0.000
-0.627,-0.323,-0.369,0.000
-0.632,-0.315,-0.373,0.000
-0.405,0.076,0.299,0.000
-0.142,0.285,0.350,0.000
0.254,0.711,0.295,0.000
0.441,0.833,0.312,0.000
0.591,0.799,0.303,0.000
0.472,0.804,0.354,0.000
0.066,0.577,0.571,0.000
-0.184,0.318,0.769,0.000
-0.461,-0.002,1.152,0.000
-0.480,-0.069,1.217,0.000
-0.371,-0.142,1.439,0.000
-0.303,-0.240,1.509,0.000
-0.098,-0.243,1.529,0.000
0.065,-0.086,1.739,0.000
0.157,0.111,2.130,0.000
0.154,0.096,2.137,0.000
0.222,-0.140,1.968,0.000
0.209,-0.281,1.875,0.000
-0.092,-0.258,2.202,0.000
-0.315,-0.223,2.505,0.000
-0.330,-0.246,2.516,0.000
-0.349,-0.074,2.220,0.000
-0.138,0.284,1.499,0.000
-0.038,0.341,0.998,0.000
0.361,0.313,0.415,0.000
0.675,0.193,0.318,0.000
0.993,-0.043,0.642,0.000
1.065,-0.222,0.989,0.000
1.089,-0.513,1.332,0.000
1.040,-0.730,1.361,0.000
0.869,-0.876,0.887,0.000
0.831,-0.931,0.353,0.000
0.802,-1.100,-0.621,0.000
0.856,-1.114,-1.208,0.000
0.903,-1.002,-1.874,0.000
0.950,-1.058,-1.919,0.000
0.839,-1.302,-1.156,0.000
0.722,-1.413,-0.392,0.000
0.579,-1.619,0.885,0.000
0.301,-1.646,1.287,0.000
-0.236,-1.864,1.377,0.000
-0.353,-1.842,0.806,0.000
-0.325,-1.615,-0.390,0.000
-0.046,-1.340,-1.072,0.000
0.342,-0.719,-1.728,0.000
0.495,-0.490,-1.858,0.000
0.780,-0.115,-1.818,0.000
0.895,0.072,-1.778,0.000
0.822,0.212,-1.713,0.000
0.749,0.241,-1.615,0.000
0.736,0.276,-1.424,0.000
0.761,0.318,-1.336,0.000
0.896,0.402,-1.081,0.000
0.942,0.399,-0.932,0.000
0.989,0.407,-0.571,0.000
1.025,0.390,-0.408,0.000
0.988,0.286,-0.182,0.000
0.938,0.187,-0.109,0.000
0.814,0.126,0.138,0.000
0.731,0.122,0.330,0.000
0.700,0.170,0.887,0.000
0.683,0.257,1.169,0.000
0.638,0.418,1.337,0.000
0.591,0.490,1.292,0.000
0.450,0.480,0.825,0.000
0.392,0.524,0.525,0.000
0.394,0.602,0.195,0.000
0.468,0.662,0.149,0.000
0.658,0.749,0.522,0.000
0.765,0.750,0.844,0.000
0.862,0.773,1.291,0.000
0.901,0.880,1.696,0.000
1.059,1.070,2.045,0.000
1.147,1.015,2.041,0.000
1.199,0.982,1.891,0.000
1.051,0.952,1.825,0.000
0.456,0.696,1.448,0.000
-0.035,0.510,1.162,0.000
-0.602,0.264,0.730,0.000
-0.726,0.198,0.652,0.000
-0.638,0.018,0.673,0.000
-0.389,-0.139,0.701,0.000
0.190,-0.438,0.978,0.000
0.589,-0.643,1.438,0.000
0.949,-0.964,2.217,0.000
0.781,-1.152,2.580,0.000
0.374,-1.335,2.442,0.000
0.073,-1.453,1.864,0.000
-0.266,-1.523,0.743,0.000
-0.281,-1.533,0.055,0.000
-0.289,-1.281,-0.867,0.000
-0.269,-1.102,-1.153,0.000
-0.073,-0.896,-1.090,0.000
0.179,-0.833,-0.749,0.000
0.483,-0.837,-0.171,0.000
0.577,-0.853,0.114,0.000
0.536,-0.855,0.111,0.000
0.510,-0.871,0.099,0.000
0.480,-0.883,0.102,0.000
0.580,-0.725,-0.832,0.000
0.663,-0.630,-1.493,0.000
0.730,-0.623,-1.749,0.000
0.704,-0.707,-2.040,0.000
0.525,-0.742,-1.915,0.000
0.242,-0.770,-1.045,0.000
0.223,-0.719,-0.462,0.000
0.139,-0.557,0.065,0.000
0.153,-0.417,0.055,0.000
0.193,-0.174,-0.472,0.000
0.163,-0.068,-0.918,0.000
0.157,0.025,-1.584,0.000
0.340,0.092,-1.910,0.000
0.655,0.270,-2.318,0.000
0.590,0.250,-2.344,0.000
0.099,0.030,-1.640,0.000
-0.152,-0.102,-0.902,0.000
-0.560,-0.180,0.243,0.000
-0.672,-0.196,0.840,0.000
-0.542,-0.199,1.126,0.000
-0.331,-0.058,0.862,0.000
-0.016,0.315,0.159,0.000
0.225,0.446,-0.332,0.000
0.509,0.633,-0.565,0.000
0.519,0.609,-0.553,0.000
0.768,0.717,0.236,0.000
0.720,0.576,0.769,0.000
0.561,0.118,1.655,0.000
0.413,-0.146,2.138,0.000
0.043,-0.507,2.828,0.000
-0.072,-0.582,2.913,0.000
-0.143,-0.607,2.600,0.000
-0.148,-0.582,2.170,1.000
-0.007,-0.549,1.611,0.000
0.132,-0.447,1.523,0.000
0.128,-0.153,1.367,0.000
0.183,-0.027,1.180,0.000
0.182,0.108,1.027,0.000
0.142,0.184,0.875,0.000
0.328,-0.063,0.667,0.000
0.625,-0.364,0.711,0.000
0.919,-0.852,1.270,0.000
1.037,-1.101,1.895,0.000
1.142,-1.337,2.827,0.000
0.913,-1.361,3.011,0.000
0.540,-1.397,2.494,0.000
0.546,-1.396,1.681,0.000
0.674,-1.242,0.244,0.000
0.704,-1.114,-0.394,0.000
0.580,-1.020,-1.001,0.000
0.378,-1.058,-1.053,0.000
0.074,-1.157,-0.698,0.000
0.007,-1.254,-0.244,0.000
-0.025,-1.415,0.193,0.000
-0.007,-1.380,0.243,0.000
0.179,-1.281,0.209,0.000
0.393,-1.168,0.072,0.000
0.381,-1.166,0.070,0.000
0.960,-0.781,-0.706,0.000
0.946,-0.686,-0.752,0.000
0.916,-0.652,-0.638,0.000
0.597,-0.688,-0.483,0.000
0.347,-0.717,-0.421,0.000
0.283,-0.599,-0.501,0.000
0.418,-0.442,-0.783,0.000
0.485,-0.224,-1.255,0.000
0.610,-0.090,-1.477,0.000
0.895,0.147,-1.914,0.000
0.957,0.220,-2.119,0.000
0.928,0.372,-2.205,0.000
0.907,0.396,-1.954,0.000
0.808,0.269,-1.009,0.000
0.783,0.196,-0.424,0.000
0.604,0.022,0.319,0.000
0.462,-0.071,0.654,0.000
0.447,-0.181,0.879,0.000
0.537,-0.099,0.852,0.000
0.772,0.095,0.770,0.000
0.742,0.105,0.729,0.000
0.527,0.138,0.641,0.000
0.381,0.123,0.731,0.000
0.124,0.092,0.949,0.000
0.037,0.107,1.221,0.000
0.068,0.176,1.943,0.000
0.090,0.200,2.355,0.000
0.044,0.382,2.877,0.000
0.017,0.465,3.016,0.000
0.010,0.645,2.743,0.000
0.140,0.632,2.139,1.000
0.317,0.414,1.227,0.000
0.153,0.311,1.106,0.000
-0.398,0.148,1.393,0.000
-0.746,0.008,1.554,0.000
-1.116,-0.145,1.577,0.000
-1.145,-0.197,1.480,0.000
-0.893,-0.223,1.122,0.000
-0.544,-0.276,0.811,0.000
0.129,-0.539,0.625,0.000
0.476,-0.709,0.781,0.000
0.645,-0.974,1.205,0.000
0.614,-1.040,1.308,0.000
0.360,-1.180,1.112,0.000
0.193,-1.257,0.803,0.000
-0.125,-1.389,0.177,0.000
-0.210,-1.404,-0.046,0.000
-0.213,-1.388,-0.053,0.000
-0.129,-1.155,-0.535,0.000
0.189,-0.966,-0.732,0.000
0.446,-0.929,-0.884,0.000
0.886,-0.841,-1.132,0.000
1.080,-0.805,-1.210,0.000
1.116,-0.844,-1.108,0.000
0.935,-0.953,-0.790,0.000
0.520,-1.092,-0.309,0.000
0.306,-1.145,-0.265,0.000
0.121,-1.148,-0.627,0.000
0.068,-1.092,-1.048,0.000
0.069,-1.014,-1.792,0.000
0.156,-0.884,-2.208,0.000
0.523,-0.444,-2.507,0.000
0.650,-0.264,-2.268,0.000
0.649,-0.150,-1.729,0.000
0.555,-0.049,-1.406,0.000
0.252,-0.012,-0.851,0.000
0.092,-0.099,-0.800,0.000
-0.165,-0.145,-1.081,0.000
-0.235,-0.137,-1.311,0.000
-0.241,-0.123,-1.539,0.000
-0.254,-0.092,-1.447,0.000
-0.042,0.019,-0.870,0.000
0.181,0.264,-0.266,0.000
0.365,0.337,0.531,0.000
0.321,0.332,0.786,0.000
0.077,0.218,0.879,0.000
-0.135,0.112,0.820,0.000
-0.298,0.044,0.917,0.000
-0.320,0.029,0.878,0.000
-0.322,0.014,0.884,0.000
-0.015,0.137,0.806,0.000
0.383,0.208,0.911,0.000
0.602,0.294,1.367,0.000
0.902,0.337,2.164,0.000
0.960,0.372,2.709,1.000
0.614,0.342,3.105,0.000
0.396,0.275,2.892,0.000
0.279,-0.019,1.830,0.000
0.183,-0.187,1.368,0.000
-0.069,-0.319,1.116,0.000
-0.131,-0.245,1.163,0.000
-0.153,-0.156,1.452,0.000
-0.001,-0.102,1.567,0.000
0.532,0.021,1.456,0.000
1.017,0.055,1.204,0.000
1.859,0.062,0.843,0.000
2.096,0.053,0.812,0.000
1.939,-0.262,1.368,0.000
1.634,-0.520,1.892,0.000
1.112,-1.039,2.536,0.000
0.768,-1.244,2.423,0.000
0.180,-1.621,1.908,0.000
0.049,-1.714,1.487,0.000
0.109,-1.638,0.802,0.000
0.134,-1.556,0.370,0.000
0.062,-1.465,-0.202,0.000
0.142,-1.413,-0.565,0.000
0.341,-1.350,-0.975,0.000
0.397,-1.296,-1.198,0.000
0.399,-1.291,-1.200,0.000
0.579,-1.184,-0.991,0.000
0.525,-1.131,-0.427,0.000
0.489,-1.095,-0.162,0.000
0.641,-0.903,-0.069,0.000
0.768,-0.700,-0.255,0.000
0.990,-0.382,-0.878,0.000
1.049,-0.268,-1.299,0.000
1.150,-0.110,-2.155,0.000
1.086,-0.000,-2.478,0.000
0.963,0.103,-2.760,0.000
0.843,0.080,-2.703,0.000
0.349,-0.028,-1.890,0.000
0.221,-0.084,-1.243,0.000
0.128,-0.158,-0.404,0.000
0.178,-0.174,-0.217,0.000
0.321,-0.121,-0.295,0.000
0.335,-0.122,-0.450,0.000
0.589,-0.078,-0.964,0.000
0.846,0.117,-1.163,0.000
1.098,0.233,-1.032,0.000
1.233,0.213,-0.764,0.000
1.135,0.218,0.032,0.000
0.930,0.157,0.573,0.000
0.609,-0.005,1.351,0.000
0.386,-0.048,1.493,0.000
0.026,-0.159,1.438,0.000
0.035,-0.079,1.403,0.000
0.086,0.084,1.393,0.000
0.195,0.189,1.273,0.000
0.533,0.301,1.153,0.000
0.791,0.361,1.151,0.000
0.909,0.453,1.488,0.000
0.771,0.485,1.861,0.000
0.668,0.415,2.176,0.000
0.663,0.239,2.219,1.000
0.395,0.182,2.284,0.000
0.100,0.146,2.276,0.000
-0.424,0.087,1.805,0.000
-0.696,0.042,1.322,0.000
-0.764,0.133,0.551,0.000
-0.490,0.191,0.182,0.000
-0.494,0.199,0.178,0.000
0.782,-0.154,0.312,0.000
1.312,-0.629,1.372,0.000
1.306,-0.860,1.965,0.000
0.795,-1.231,2.294,0.000
0.325,-1.342,2.329,0.000
-0.321,-1.622,2.212,0.000
-0.353,-1.738,1.802,0.000
-0.165,-1.509,0.702,0.000
-0.068,-1.247,0.140,0.000
0.185,-0.869,-0.845,0.000
0.385,-0.639,-1.239,0.000
0.822,-0.540,-1.207,0.000
1.056,-0.613,-1.016,0.000
1.047,-0.684,-0.391,0.000
0.944,-0.765,0.057,0.000
0.921,-0.754,0.050,0.000
0.719,-0.928,-0.089,0.000
0.755,-0.724,-0.818,0.000
0.691,-0.661,-1.149,0.000
0.644,-0.544,-1.686,0.000
0.772,-0.412,-1.963,0.000
0.874,-0.183,-2.076,0.000
0.840,-0.119,-1.882,0.000
0.681,-0.077,-1.432,0.000
0.556,-0.019,-1.208,0.000
0.281,-0.046,-1.079,0.000
0.120,-0.108,-1.132,0.000
-0.038,-0.115,-1.168,0.000
-0.040,-0.224,-1.287,0.000
-0.076,-0.167,-1.383,0.000
-0.054,-0.161,-1.278,0.000
0.027,-0.189,-0.938,0.000
-0.007,-0.178,-0.682,0.000
0.036,-0.082,-0.287,0.000
0.128,-0.013,0.037,0.000
0.167,-0.114,0.427,0.000
0.150,-0.110,0.464,0.000
-0.019,-0.224,0.151,0.000
0.033,-0.209,-0.017,0.000
0.201,-0.201,-0.112,0.000
0.302,-0.225,0.084,0.000
0.464,-0.326,0.675,0.000
0.679,-0.328,1.066,0.000
0.735,-0.369,2.233,0.000
0.850,-0.454,3.085,0.000
0.888,-0.550,3.682,0.000
0.680,-0.436,3.297,0.000
0.569,-0.295,1.546,0.000
0.551,-0.335,0.514,1.000
0.503,-0.274,-0.074,0.000
0.488,-0.190,0.193,0.000
0.582,-0.019,1.087,0.000
0.687,0.077,1.573,0.000
1.058,0.181,1.793,0.000
1.269,0.234,1.594,0.000
1.605,0.060,0.542,0.000
1.866,-0.131,-0.043,0.000
1.948,-0.445,-0.287,0.000
1.853,-0.690,0.254,0.000
1.837,-0.644,0.231,0.000
1.525,-0.984,1.875,0.000
1.044,-1.379,2.389,0.000
0.664,-1.607,2.690,0.000
0.257,-1.977,2.811,0.000
0.141,-1.932,2.660,0.000
0.200,-1.789,1.979,0.000
0.329,-1.713,1.249,0.000
0.532,-1.542,0.201,0.000
0.685,-1.392,-0.478,0.000
1.006,-1.060,-1.102,0.000
1.115,-0.876,-1.218,0.000
1.115,-0.692,-0.892,0.000
1.077,-0.668,-0.662,0.000
0.946,-0.573,-0.309,0.000
0.885,-0.518,-0.310,0.000
0.892,-0.514,-0.311,0.000
0.894,-0.321,-0.851,0.000
0.894,-0.339,-0.844,0.000
1.055,-0.095,-1.170,0.000
1.148,0.043,-1.518,0.000
1.157,0.119,-1.708,0.000
1.130,0.153,-1.845,0.000
1.077,0.137,-1.852,0.000
0.933,0.114,-1.715,0.000
0.814,0.067,-1.514,0.000
0.642,-0.103,-0.745,0.000
0.601,-0.156,-0.249,0.000
0.570,-0.144,0.121,0.000
0.683,-0.034,0.156,0.000
0.967,0.126,0.354,0.000
1.091,0.179,0.420,0.000
1.310,0.305,0.230,0.000
1.369,0.374,0.098,0.000
1.316,0.431,-0.086,0.000
1.200,0.439,-0.038,0.000
0.849,0.330,0.272,0.000
0.637,0.222,0.529,0.000
0.349,0.119,0.864,0.000
0.243,0.110,1.131,0.000
0.316,0.087,1.705,0.000
0.361,-0.022,1.925,0.000
0.519,0.173,2.545,0.000
0.677,0.452,3.132,0.000
0.783,0.672,3.684,0.000
0.896,0.638,3.423,1.000
0.995,0.502,2.321,0.000
0.767,0.418,1.698,0.000
0.119,0.361,0.885,0.000
-0.105,0.282,0.519,0.000
-0.492,0.328,-0.099,0.000
-0.505,0.262,-0.312,0.000
-0.215,0.054,-0.674,0.000
0.244,-0.140,-0.764,0.000
1.210,-0.474,-0.172,0.000
1.538,-0.686,0.746,0.000
1.490,-1.272,2.512,0.000
1.071,-1.510,3.091,0.000
0.359,-1.660,2.866,0.000
0.057,-1.724,1.903,0.000
-0.042,-1.914,0.131,0.000
-0.116,-1.753,-0.496,0.000
-0.049,-1.398,-0.643,0.000
0.142,-1.272,-0.473,0.000
0.546,-0.923,-0.096,0.000
0.926,-0.697,-0.036,0.000
1.481,-0.434,-0.282,0.000
1.579,-0.445,-0.542,0.000
1.534,-0.522,-1.055,0.000
1.503,-0.575,-1.253,0.000
1.461,-0.628,-1.449,0.000
1.339,-0.670,-1.393,0.000
1.007,-0.745,-1.067,0.000
0.861,-0.721,-0.845,0.000
0.653,-0.680,-0.929,0.000
0.505,-0.656,-1.094,0.000
0.441,-0.519,-1.294,0.000
0.575,-0.365,-1.337,0.000
0.800,-0.138,-1.305,0.000
0.971,-0.012,-1.274,0.000
1.090,0.137,-1.030,0.000
1.085,0.127,-0.794,0.000
0.915,0.114,-0.611,0.000
0.805,0.103,-0.563,0.000
0.703,0.065,-0.593,0.000
0.587,-0.036,-0.555,0.000
0.462,-0.018,-0.314,0.000
0.555,-0.018,-0.134,0.000
0.754,0.116,-0.061,0.000
0.770,0.105,-0.084,0.000
0.854,0.149,-0.103,0.000
0.851,0.112,-0.131,0.000
0.588,0.003,-0.101,0.000
0.512,-0.011,-0.090,0.000
0.399,-0.016,0.120,0.000
0.331,-0.058,0.362,0.000
0.411,-0.127,0.566,0.000
0.497,-0.139,0.825,0.000
0.501,-0.146,0.828,0.000
0.722,-0.067,2.062,0.000
0.838,0.087,2.645,0.000
0.925,0.111,2.682,0.000
0.938,0.018,2.037,0.000
0.835,-0.111,1.712,1.000
0.848,-0.128,1.720,0.000
0.226,-0.263,1.480,0.000
0.155,-0.063,1.405,0.000
0.191,0.002,1.221,0.000
0.441,0.002,0.945,0.000
0.899,-0.075,0.675,0.000
2.003,-0.070,0.427,0.000
2.431,-0.055,0.802,0.000
2.414,-0.022,0.786,0.000
1.857,-0.861,2.645,0.000
1.003,-1.182,2.733,0.000
0.682,-1.327,2.469,0.000
0.349,-1.536,1.752,0.000
0.402,-1.504,1.212,0.000
0.639,-1.338,0.122,0.000
0.705,-1.131,-0.363,0.000
0.714,-1.011,-0.641,0.000
0.876,-0.946,-0.729,0.000
1.210,-0.700,-0.762,0.000
1.242,-0.647,-0.756,0.000
1.071,-0.754,-0.783,0.000
0.969,-0.779,-0.805,0.000
0.886,-0.772,-0.794,0.000
0.890,-0.758,-0.798,0.000
1.007,-0.616,-0.804,0.000
1.108,-0.512,-0.766,0.000
1.362,-0.304,-0.955,0.000
1.446,-0.110,-1.176,0.000
1.468,0.039,-1.295,0.000
1.343,0.081,-1.347,0.000
1.041,0.172,-1.394,0.000
0.855,0.177,-1.372,0.000
0.685,0.147,-1.243,0.000
0.683,0.157,-1.178,0.000
0.720,0.129,-1.055,0.000
0.784,0.145,-0.900,0.000
0.779,0.138,-0.898,0.000
1.113,0.185,-0.555,0.000
1.198,0.285,-0.413,0.000
1.208,0.279,-0.143,0.000
1.181,0.190,0.314,0.000
1.113,0.191,0.454,0.000
0.817,0.182,0.499,0.000
0.770,0.191,0.407,0.000
0.597,0.244,0.215,0.000
0.540,0.320,0.138,0.000
0.603,0.454,0.105,0.000
0.621,0.523,0.191,0.000
0.544,0.557,0.524,0.000
0.604,0.572,0.770,0.000
0.698,0.518,1.285,0.000
0.716,0.341,1.666,0.000
0.829,0.394,2.381,0.000
0.763,0.514,2.809,0.000
0.438,0.477,2.867,0.000
0.452,0.364,2.545,1.000
0.365,0.332,1.821,0.000
0.145,0.345,1.401,0.000
-0.188,0.428,0.558,0.000
-0.322,0.395,0.026,0.000
-0.242,0.276,-0.443,0.000
-0.355,0.183,-0.531,0.000
-0.477,-0.223,-0.192,0.000
-0.361,-0.578,0.555,0.000
0.372,-0.901,1.748,0.000
0.926,-0.877,2.318,0.000
1.357,-0.945,3.013,0.000
1.336,-0.941,2.893,0.000
0.973,-1.010,1.609,0.000
0.606,-1.047,0.558,0.000
0.305,-0.993,-0.563,0.000
0.316,-0.983,-0.789,0.000
0.216,-0.813,-1.085,0.000
0.169,-0.711,-0.971,0.000
0.499,-0.580,-0.466,0.000
0.797,-0.500,-0.249,0.000
1.194,-0.364,-0.390,0.000
1.231,-0.364,-0.671,0.000
1.158,-0.442,-1.029,0.000
0.977,-0.610,-1.090,0.000
0.968,-0.599,-1.095,0.000
0.340,-0.894,-0.523,0.000
0.423,-0.885,-0.243,0.000
0.614,-0.727,-0.278,0.000
0.836,-0.427,-0.402,0.000
0.959,-0.318,-0.686,0.000
1.124,-0.017,-1.149,0.000
1.219,0.093,-1.182,0.000
1.138,0.151,-1.291,0.000
0.927,0.120,-1.404,0.000
0.550,-0.006,-1.543,0.000
0.470,-0.015,-1.622,0.000
0.397,0.023,-1.533,0.000
0.435,0.108,-1.335,0.000
0.505,0.221,-0.989,0.000
0.583,0.314,-0.769,0.000
0.737,0.331,-0.577,0.000
0.645,0.323,-0.492,0.000
0.493,0.199,-0.538,0.000
0.418,0.139,-0.469,0.000
0.310,0.086,-0.114,0.000
0.264,0.091,0.149,0.000
0.179,0.009,0.405,0.000
0.195,0.030,0.456,0.000
0.415,0.167,0.852,0.000
0.464,0.263,1.159,0.000
0.745,0.412,1.189,0.000
0.801,0.460,1.275,0.000
0.867,0.388,1.538,0.000
0.810,0.429,1.760,0.000
0.512,0.514,1.944,0.000
0.470,0.458,1.743,0.000
0.650,0.303,1.103,0.000
0.738,0.227,0.853,1.000
0.761,0.220,0.859,0.000
0.818,0.332,0.492,0.000
1.186,0.451,0.327,0.000
1.656,0.658,0.061,0.000
1.964,0.681,0.287,0.000
2.157,0.413,0.689,0.000
2.138,0.450,0.673,0.000
1.856,-0.544,2.831,0.000
1.208,-1.194,4.240,0.000
0.782,-1.418,4.586,0.000
0.412,-1.546,3.840,0.000
0.369,-1.397,2.971,0.000
0.498,-1.113,1.277,0.000
0.668,-0.881,0.407,0.000
0.919,-0.453,-0.760,0.000
0.937,-0.344,-0.888,0.000
0.902,-0.543,-0.666,0.000
0.929,-0.584,-0.501,0.000
0.884,-0.750,-0.172,0.000
0.743,-0.859,-0.021,0.000
0.450,-1.081,-0.034,0.000
0.320,-1.094,-0.417,0.000
0.462,-0.824,-1.234,0.000
0.600,-0.566,-1.497,0.000
0.617,-0.570,-1.493,0.000
1.187,0.035,-1.898,0.000
1.281,0.350,-2.192,0.000
1.086,0.374,-2.059,0.000
0.597,0.078,-1.305,0.000
0.272,-0.092,-0.943,0.000
-0.061,-0.181,-0.483,0.000
0.024,-0.153,-0.489,0.000
0.499,0.182,-0.810,0.000
0.903,0.426,-0.972,0.000
1.510,0.756,-1.289,0.000
1.677,0.900,-1.353,0.000
1.442,0.897,-1.187,0.000
1.050,0.694,-0.870,0.000
0.673,0.401,-0.319,0.000
0.661,0.381,0.008,0.000
0.672,0.378,0.743,0.000
0.626,0.403,1.257,0.000
0.521,0.442,1.850,0.000
0.498,0.517,1.972,0.000
0.858,0.709,1.470,0.000
0.941,0.804,0.885,0.000
0.948,0.782,0.893,0.000
0.882,0.862,0.009,0.000
0.756,0.879,0.660,0.000
0.732,0.729,1.087,0.000
0.704,0.703,1.092,0.000
0.663,0.566,1.779,0.000
0.718,0.754,1.892,0.000
0.953,0.907,1.698,0.000
1.556,0.910,0.983,0.000
1.665,0.880,0.623,1.000
1.348,0.914,0.369,0.000
0.953,0.851,0.333,0.000
0.625,0.520,0.122,0.000
0.455,0.301,0.125,0.000
0.259,0.030,0.425,0.000
0.247,-0.133,0.444,0.000
0.504,-0.379,0.606,0.000
0.760,-0.537,1.024,0.000
1.214,-0.605,2.116,0.000
1.464,-0.518,2.521,0.000
1.559,-0.520,2.404,0.000
1.375,-0.658,1.925,0.000
0.960,-0.860,0.810,0.000
0.824,-0.841,0.396,0.000
0.593,-0.966,0.182,0.000
0.319,-1.005,0.098,0.000
0.083,-0.976,0.033,0.000
0.136,-0.917,-0.019,0.000
0.210,-0.827,-0.285,0.000
0.339,-0.697,-0.631,0.000
0.559,-0.561,-1.212,0.000
0.622,-0.499,-1.667,0.000
0.594,-0.325,-2.341,0.000
0.650,-0.308,-2.652,0.000
0.928,-0.196,-2.906,0.000
1.030,-0.155,-2.725,0.000
1.016,-0.151,-2.728,0.000
1.075,0.025,-1.025,0.000
0.889,0.044,-0.253,0.000
0.717,0.077,-0.282,0.000
0.492,0.069,-0.739,0.000
0.431,0.038,-1.054,0.000
0.379,0.085,-1.430,0.000
0.398,0.116,-1.454,0.000
0.432,0.075,-1.112,0.000
0.377,0.048,-0.859,0.000
0.317,0.088,-0.518,0.000
0.352,0.100,-0.358,0.000
0.344,0.149,-0.264,0.000
0.313,0.159,-0.267,0.000
0.347,0.181,-0.461,0.000
0.412,0.236,-0.547,0.000
0.471,0.288,-0.497,0.000
0.508,0.331,-0.260,0.000
0.425,0.377,0.341,0.000
0.387,0.432,0.536,0.000
0.223,0.402,0.703,0.000
0.110,0.426,0.713,0.000
0.075,0.444,0.584,0.000
0.240,0.430,0.464,0.000
0.692,0.628,0.386,0.000
0.880,0.766,0.718,0.000
0.992,0.877,1.356,0.000
0.800,0.854,1.643,0.000
0.798,0.855,1.642,0.000
0.183,0.274,1.690,1.000
0.011,0.134,2.178,0.000
-0.041,0.140,2.444,0.000
0.079,0.294,2.319,0.000
0.296,0.397,1.929,0.000
0.296,0.382,1.934,0.000
0.797,0.679,0.769,0.000
1.549,0.850,0.492,0.000
1.980,0.890,0.434,0.000
2.472,0.873,0.448,0.000
2.363,0.656,0.716,0.000
1.727,-0.118,1.462,0.000
1.298,-0.606,1.771,0.000
0.633,-1.102,2.032,0.000
0.263,-1.395,1.813,0.000
0.021,-1.559,0.698,0.000
0.064,-1.488,0.015,0.000
0.446,-1.361,-1.140,0.000
0.700,-1.237,-1.918,0.000
0.734,-1.236,-1.914,0.000
1.147,-1.080,-2.911,0.000
1.083,-1.086,-2.436,0.000
0.896,-1.156,-1.657,0.000
0.422,-1.363,-0.394,0.000
0.217,-1.269,0.112,0.000
0.343,-1.018,0.375,0.000
0.492,-0.750,0.146,0.000
0.954,-0.135,-0.932,0.000
1.136,0.142,-1.428,0.000
1.265,0.407,-1.922,0.000
1.361,0.509,-2.153,0.000
1.442,0.727,-2.100,0.000
1.412,0.757,-1.786,0.000
1.148,0.585,-1.076,0.000
1.029,0.528,-0.753,0.000
0.809,0.414,-0.640,0.000
0.658,0.349,-0.699,0.000
0.776,0.469,-0.795,0.000
1.000,0.630,-0.783,0.000
1.234,0.706,-0.658,0.000
1.249,0.768,-0.481,0.000
1.171,0.718,-0.063,0.000
1.078,0.648,0.134,0.000
1.087,0.666,0.130,0.000
0.666,0.550,0.713,0.000
0.504,0.488,1.085,0.000
0.536,0.533,1.306,0.000
0.556,0.635,1.798,0.000
0.637,0.690,2.064,0.000
0.872,0.811,2.267,0.000
0.886,0.811,2.311,0.000
0.902,0.684,2.319,0.000
0.850,0.652,2.167,1.000
0.810,0.682,1.699,0.000
0.776,0.665,1.372,0.000
0.812,0.451,1.121,0.000
0.733,0.427,1.208,0.000
0.336,0.386,1.712,0.000
0.186,0.344,1.720,0.000
0.190,0.349,1.359,0.000
0.533,0.446,1.144,0.000
0.970,0.528,1.019,0.000
0.982,0.411,1.077,0.000
0.826,-0.183,1.365,0.000
0.640,-0.542,1.595,0.000
0.535,-0.797,2.132,0.000
0.567,-0.847,2.478,0.000
0.867,-0.793,2.277,0.000
1.042,-0.701,1.634,0.000
0.905,-0.709,0.540,0.000
0.802,-0.797,0.238,0.000
0.405,-0.945,-0.070,0.000
0.075,-1.034,-0.064,0.000
-0.190,-1.126,-0.032,0.000
-0.221,-1.114,-0.099,0.000
-0.171,-0.955,-0.250,0.000
0.028,-0.837,-0.305,0.000
0.478,-0.569,-0.153,0.000
0.754,-0.451,-0.104,0.000
1.108,-0.278,-0.529,0.000
1.237,-0.140,-1.016,0.000
1.245,-0.165,-1.008,0.000
1.073,-0.028,-1.862,0.000
0.845,-0.163,-2.162,0.000
0.680,-0.189,-2.192,0.000
0.341,-0.203,-2.042,0.000
0.255,-0.199,-1.809,0.000
0.341,-0.109,-1.341,0.000
0.393,-0.030,-1.011,0.000
0.529,0.136,-1.038,0.000
0.512,0.226,-1.381,0.000
0.370,0.232,-1.847,0.000
0.234,0.139,-1.883,0.000
0.049,0.173,-1.527,0.000
-0.101,0.081,-1.029,0.000
-0.178,0.030,-0.340,0.000
-0.158,0.105,-0.032,0.000
0.130,0.153,0.220,0.000
0.232,0.170,0.065,0.000
0.196,0.280,-0.497,0.000
0.123,0.250,-0.684,0.000
0.070,0.420,-0.766,0.000
0.128,0.522,-0.567,0.000
0.155,0.598,-0.068,0.000
0.131,0.592,0.410,0.000
0.141,0.478,1.119,0.000
0.156,0.334,1.307,0.000
0.088,0.021,1.636,0.000
-0.092,-0.115,1.774,0.000
-0.393,-0.091,1.418,0.000
-0.462,0.014,1.064,0.000
-0.442,-0.013,1.077,0.000
-0.236,0.237,0.324,0.000
0.225,0.670,0.299,0.000
0.475,0.876,0.529,1.000
0.782,1.028,0.850,0.000
0.944,1.002,0.844,0.000
0.984,0.496,1.074,0.000
1.031,0.040,1.220,0.000
1.045,-0.578,1.490,0.000
0.959,-0.821,1.731,0.000
0.570,-0.985,2.094,0.000
0.412,-0.970,2.081,0.000
0.403,-0.959,1.541,0.000
0.456,-0.873,0.948,0.000
0.589,-0.692,-0.080,0.000
0.657,-0.571,-0.526,0.000
0.707,-0.548,-0.727,0.000
0.755,-0.566,-0.732,0.000
0.880,-0.623,-1.076,0.000
0.901,-0.657,-1.535,0.000
0.844,-0.824,-2.130,0.000
0.707,-0.948,-2.138,0.000
0.656,-1.068,-1.430,0.000
0.761,-1.026,-1.143,0.000
0.903,-0.809,-0.504,0.000
0.901,-0.642,-0.134,0.000
0.869,-0.497,0.410,0.000
0.861,-0.373,0.423,0.000
0.835,-0.108,-0.084,0.000
0.823,-0.085,-0.543,0.000
0.748,-0.057,-1.236,0.000
0.590,0.034,-1.245,0.000
0.452,0.140,-1.021,0.000
0.544,0.318,-1.192,0.000
0.659,0.812,-1.244,0.000
0.834,0.983,-1.198,0.000
1.006,1.207,-1.141,0.000
0.911,1.198,-1.070,0.000
0.477,0.945,-0.654,0.000
0.291,0.773,-0.160,0.000
0.306,0.787,-0.163,0.000
0.026,0.402,0.841,0.000
-0.040,0.268,0.932,0.000
0.025,0.213,0.712,0.000
0.044,0.202,0.717,0.000
0.281,0.613,-0.073,0.000
0.426,0.691,-0.380,0.000
0.330,0.744,-0.277,0.000
0.287,0.762,0.192,0.000
0.360,0.756,0.551,0.000
0.350,0.687,1.116,0.000
0.191,0.510,1.477,0.000
-0.147,0.257,1.996,0.000
-0.113,0.247,2.012,0.000
0.173,0.507,1.665,0.000
0.273,0.563,1.257,1.000
0.537,0.564,0.882,0.000
0.696,0.745,1.016,0.000
0.760,0.922,1.706,0.000
0.737,0.953,2.032,0.000
0.545,0.592,2.234,0.000
0.320,0.356,2.078,0.000
0.053,-0.059,1.800,0.000
0.230,-0.340,1.777,0.000
0.759,-0.625,1.946,0.000
0.919,-0.707,2.143,0.000
1.076,-0.691,2.087,0.000
1.100,-0.659,1.744,0.000
0.955,-0.659,0.880,0.000
0.794,-0.714,0.267,0.000
0.532,-0.885,-0.235,0.000
0.321,-0.990,-0.045,0.000
0.135,-1.045,0.264,0.000
0.151,-0.953,0.298,0.000
0.596,-0.654,0.080,0.000
0.941,-0.454,-0.226,0.000
1.340,-0.141,-0.660,0.000
1.469,-0.035,-0.827,0.000
1.548,-0.080,-1.195,0.000
1.471,-0.150,-1.357,0.000
1.304,-0.330,-1.246,0.000
1.185,-0.429,-1.036,0.000
0.791,-0.551,-0.926,0.000
0.723,-0.525,-0.888,0.000
0.734,-0.334,-0.753,0.000
0.721,-0.160,-0.819,0.000
0.814,0.211,-1.237,0.000
0.999,0.537,-1.597,0.000
1.312,0.813,-2.135,0.000
1.419,0.900,-2.319,0.000
1.315,0.870,-2.283,0.000
1.089,0.705,-1.919,0.000
0.751,0.404,-1.029,0.000
0.600,0.296,-0.504,0.000
0.381,0.354,0.171,0.000
0.290,0.366,0.495,0.000
0.276,0.484,0.117,0.000
0.425,0.646,-0.511,0.000
0.803,0.958,-1.562,0.000
0.822,0.936,-1.553,0.000
1.316,1.240,-1.483,0.000
1.138,1.173,-0.844,0.000
0.654,0.916,0.352,0.000
0.409,0.771,0.899,0.000
0.193,0.510,1.211,0.000
0.189,0.500,1.214,0.000
0.362,0.273,1.133,0.000
0.577,0.316,1.305,0.000
0.785,0.597,1.822,0.000
0.834,0.773,2.180,0.000
0.867,0.993,2.210,0.000
0.813,0.955,1.882,1.000
0.521,0.741,1.322,0.000
0.227,0.608,1.299,0.000
-0.273,0.398,1.613,0.000
-0.442,0.219,1.655,0.000
-0.460,0.197,1.660,0.000
-0.193,0.134,1.278,0.000
0.644,0.013,1.027,0.000
1.120,-0.011,1.200,0.000
1.689,-0.238,2.187,0.000
1.891,-0.376,3.018,0.000
1.635,-0.560,3.546,0.000
1.146,-0.835,3.269,0.000
0.638,-1.141,1.926,0.000
0.366,-1.293,1.153,0.000
0.091,-1.525,-0.115,0.000
-0.141,-1.543,-0.650,0.000
-0.305,-1.505,-1.208,0.000
-0.112,-1.369,-1.559,0.000
0.377,-0.903,-1.857,0.000
0.783,-0.677,-1.688,0.000
1.244,-0.452,-0.943,0.000
1.200,-0.395,-0.497,0.000
0.802,-0.637,-0.034,0.000
0.560,-0.775,-0.010,0.000
0.227,-0.823,-0.264,0.000
0.185,-0.803,-0.483,0.000
0.431,-0.597,-1.084,0.000
0.619,-0.408,-1.363,0.000
0.621,-0.234,-1.469,0.000
0.540,-0.117,-1.413,0.000
0.551,-0.129,-1.408,0.000
0.531,0.232,-1.936,0.000
0.652,0.441,-2.348,0.000
0.771,0.536,-2.473,0.000
0.819,0.704,-2.647,0.000
0.695,0.602,-2.526,0.000
0.336,0.322,-1.768,0.000
0.186,0.273,-1.282,0.000
-0.001,0.104,-0.442,0.000
-0.101,0.075,-0.057,0.000
-0.058,0.131,0.541,0.000
0.101,0.204,0.655,0.000
0.346,0.426,0.425,0.000
0.574,0.669,0.079,0.000
0.891,0.962,-0.429,0.000
0.930,1.053,-0.373,0.000
0.733,1.003,0.128,0.000
0.592,0.930,0.631,0.000
0.383,0.854,1.145,0.000
0.394,0.762,1.350,0.000
0.360,0.588,1.454,0.000
0.359,0.495,1.532,0.000
0.374,0.306,1.666,0.000
0.274,0.366,1.870,0.000
0.098,0.590,2.297,0.000
0.167,0.602,2.196,1.000
0.474,0.613,1.872,0.000
0.616,0.687,1.814,0.000
0.546,0.853,1.402,0.000
0.402,0.932,0.951,0.000
0.320,0.808,-0.007,0.000
0.310,0.669,-0.554,0.000
0.275,0.511,-1.037,0.000
0.365,0.331,-0.988,0.000
0.538,-0.138,-0.376,0.000
0.557,-0.563,0.596,0.000
0.727,-0.900,1.944,0.000
0.830,-0.852,2.510,0.000
0.729,-0.980,2.788,0.000
0.763,-0.910,2.221,0.000
0.825,-0.794,0.634,0.000
0.790,-0.838,-0.168,0.000
0.683,-0.949,-1.042,0.000
0.620,-0.916,-1.134,0.000
0.473,-0.977,-0.961,0.000
0.374,-1.020,-0.720,0.000
0.452,-0.946,-0.192,0.000
0.612,-0.827,0.237,0.000
0.900,-0.610,0.498,0.000
1.034,-0.460,0.323,0.000
1.363,-0.225,-0.115,0.000
1.505,-0.083,-0.470,0.000
1.560,0.070,-1.016,0.000
1.561,0.137,-1.395,0.000
1.370,0.107,-1.614,0.000
1.224,-0.010,-1.592,0.000
0.841,-0.220,-1.296,0.000
0.703,-0.297,-1.068,0.000
0.697,-0.295,-1.069,0.000
0.592,-0.201,-0.802,0.000
0.717,0.011,-0.651,0.000
0.838,0.189,-0.603,0.000
0.870,0.292,-0.712,0.000
0.940,0.409,-0.904,0.000
1.069,0.473,-1.087,0.000
1.043,0.456,-1.064,0.000
0.809,0.334,-0.889,0.000
0.629,0.262,-0.746,0.000
0.475,0.276,-0.561,0.000
0.550,0.405,-0.653,0.000
0.469,0.452,-0.703,0.000
0.463,0.519,-0.563,0.000
0.554,0.775,-0.315,0.000
0.606,0.804,-0.227,0.000
0.533,0.727,0.082,0.000
0.554,0.753,0.271,0.000
0.621,0.725,0.689,0.000
0.682,0.672,0.923,0.000
0.695,0.506,1.473,0.000
0.714,0.391,1.637,0.000
0.440,0.213,1.871,0.000
0.171,0.209,2.103,0.000
-0.129,0.178,1.918,0.000
-0.060,0.198,1.479,0.000
0.341,0.246,1.130,0.000
0.496,0.265,1.442,1.000
0.462,0.450,2.355,0.000
0.470,0.477,2.611,0.000
0.590,0.408,2.325,0.000
0.568,0.345,1.973,0.000
0.643,0.251,1.190,0.000
0.769,0.166,0.660,0.000
0.948,-0.020,0.285,0.000
1.032,-0.186,0.501,0.000
0.973,-0.452,1.195,0.000
0.860,-0.537,1.488,0.000
0.749,-0.652,1.189,0.000
0.747,-0.689,0.934,0.000
0.937,-0.752,0.026,0.000
1.010,-0.739,-0.547,0.000
0.928,-0.726,-0.740,0.000
0.885,-0.736,-0.713,0.000
0.806,-0.782,-0.637,0.000
0.747,-0.868,-0.525,0.000
0.650,-0.901,-0.122,0.000
0.649,-0.843,0.135,0.000
0.731,-0.738,0.484,0.000
0.797,-0.650,0.642,0.000
0.729,-0.501,0.293,0.000
0.673,-0.462,-0.186,0.000
0.742,-0.340,-1.020,0.000
0.825,-0.187,-1.367,0.000
0.862,0.037,-1.645,0.000
0.914,0.141,-1.798,0.000
1.110,0.414,-2.028,0.000
1.136,0.520,-2.101,0.000
0.976,0.564,-2.234,0.000
0.795,0.505,-2.174,0.000
0.806,0.501,-2.171,0.000
0.584,0.468,-1.516,0.000
0.481,0.471,-1.295,0.000
0.424,0.402,-1.114,0.000
0.455,0.394,-0.839,0.000
0.508,0.457,-0.765,0.000
0.525,0.487,-0.485,0.000
0.611,0.498,-0.312,0.000
0.769,0.488,-0.136,0.000
0.795,0.494,0.057,0.000
0.903,0.580,0.430,0.000
0.899,0.618,0.601,0.000
0.630,0.556,0.891,0.000
0.508,0.511,1.031,0.000
0.424,0.539,1.448,0.000
0.468,0.518,1.550,0.000
0.711,0.636,1.301,0.000
0.944,0.780,1.310,0.000
1.456,0.922,1.524,0.000
1.579,1.003,1.777,0.000
1.412,0.995,2.265,0.000
1.207,0.880,2.528,1.000
0.856,0.726,2.759,0.000
0.499,0.647,2.738,0.000
-0.169,0.521,2.156,0.000
-0.443,0.541,1.479,0.000
-0.446,0.516,1.487,0.000
-0.435,0.629,0.188,0.000
0.151,0.380,-0.327,0.000
0.584,0.146,-0.225,0.000
1.084,-0.434,1.319,0.000
1.232,-0.834,2.485,0.000
0.712,-1.403,3.878,0.000
0.173,-1.707,4.088,0.000
-0.367,-1.921,2.632,0.000
-0.313,-1.902,1.329,0.000
-0.138,-1.761,-0.711,0.000
-0.152,-1.563,-1.417,0.000
-0.148,-1.587,-1.408,0.000
0.462,-1.164,-2.067,0.000
0.828,-0.779,-1.871,0.000
1.007,-0.713,-1.674,0.000
1.068,-0.711,-1.386,0.000
0.948,-0.760,-1.145,0.000
0.669,-0.935,-0.815,0.000
0.454,-0.976,-0.529,0.000
0.323,-0.965,-0.155,0.000
0.375,-0.914,-0.219,0.000
0.456,-0.745,-0.607,0.000
0.600,-0.563,-0.857,0.000
0.695,-0.347,-1.127,0.000
0.709,-0.235,-1.314,0.000
0.779,0.070,-1.580,0.000
0.749,0.192,-1.614,0.000
0.721,0.283,-1.496,0.000
0.708,0.370,-1.237,0.000
0.694,0.467,-0.757,0.000
0.651,0.443,-0.604,0.000
0.439,0.422,-0.389,0.000
0.368,0.424,-0.273,0.000
0.311,0.478,-0.436,0.000
0.242,0.506,-0.550,0.000
0.204,0.544,-0.819,0.000
0.336,0.649,-0.941,0.000
0.582,0.777,-0.730,0.000
0.607,0.737,-0.539,0.000
0.331,0.664,-0.221,0.000
0.133,0.579,-0.152,0.000
-0.072,0.457,-0.048,0.000
0.006,0.539,0.159,0.000
0.257,0.570,0.499,0.000
0.349,0.559,0.587,0.000
0.288,0.433,0.958,0.000
0.263,0.280,1.410,0.000
0.403,0.259,2.092,0.000
0.414,0.247,2.348,0.000
0.221,0.239,2.250,0.000
0.075,0.289,1.851,1.000
0.084,0.256,1.864,0.000
0.074,0.072,0.838,0.000
0.111,0.028,1.025,0.000
0.236,0.124,1.514,0.000
0.488,0.205,1.998,0.000
0.437,0.148,1.919,0.000
0.277,0.006,1.296,0.000
0.395,-0.254,0.958,0.000
1.006,-0.436,1.036,0.000
1.292,-0.487,1.470,0.000
1.601,-0.563,2.570,0.000
1.257,-0.679,3.054,0.000
0.867,-0.907,2.962,0.000
0.638,-0.957,2.333,0.000
0.218,-1.164,1.109,0.000
0.128,-1.165,0.621,0.000
0.129,-1.049,-0.002,0.000
-0.001,-1.022,-0.292,0.000
-0.166,-0.983,-0.808,0.000
-0.028,-0.962,-1.302,0.000
0.369,-0.873,-1.865,0.000
0.479,-0.826,-1.802,0.000
0.557,-0.859,-0.828,0.000
0.544,-0.930,-0.183,0.000
0.371,-0.897,0.589,0.000
0.217,-0.944,0.930,0.000
0.076,-0.922,0.834,0.000
0.049,-0.850,0.312,0.000
0.184,-0.584,-1.137,0.000
0.312,-0.468,-1.797,0.000
0.649,-0.202,-2.626,0.000
0.887,0.039,-3.073,0.000
1.167,0.340,-3.358,0.000
1.199,0.411,-3.186,0.000
1.010,0.436,-2.495,0.000
0.838,0.333,-1.975,0.000
0.398,0.156,-1.454,0.000
0.228,0.090,-1.290,0.000
0.042,-0.033,-1.171,0.000
0.055,-0.029,-1.171,0.000
0.175,-0.001,-1.072,0.000
0.407,0.120,-1.078,0.000
0.406,0.119,-1.078,0.000
0.704,0.230,-0.495,0.000
0.428,0.142,0.088,0.000
0.186,0.101,0.329,0.000
0.193,0.118,0.324,0.000
-0.166,0.090,1.524,0.000
-0.017,0.150,1.459,0.000
0.159,0.286,1.205,0.000
0.502,0.489,0.942,0.000
0.726,0.618,0.930,0.000
0.953,0.707,1.036,0.000
0.860,0.749,1.306,0.000
0.537,0.627,1.982,0.000
0.284,0.521,2.172,0.000
0.095,0.435,2.248,0.000
0.066,0.413,2.209,1.000
-0.088,0.493,2.015,0.000
-0.085,0.482,2.020,0.000
-0.004,0.719,0.923,0.000
0.125,0.775,0.674,0.000
0.397,0.736,0.805,0.000
0.635,0.467,1.042,0.000
1.026,0.055,2.314,0.000
1.223,-0.220,3.126,0.000
0.950,-0.687,3.706,0.000
0.439,-0.987,3.613,0.000
-0.187,-1.360,2.424,0.000
-0.267,-1.404,1.454,0.000
-0.152,-1.433,-0.086,0.000
-0.105,-1.291,-0.757,0.000
-0.062,-1.206,-0.986,0.000
0.131,-1.019,-0.926,0.000
0.490,-0.668,-0.851,0.000
0.735,-0.534,-0.821,0.000
0.985,-0.515,-0.877,0.000
1.055,-0.538,-0.955,0.000
1.010,-0.724,-0.870,0.000
0.917,-0.874,-0.629,0.000
0.750,-1.138,-0.307,0.000
0.693,-1.129,-0.243,0.000
0.602,-1.166,-0.468,0.000
0.586,-1.059,-0.855,0.000
0.494,-0.816,-1.436,0.000
0.523,-0.665,-1.609,0.000
0.753,-0.261,-1.936,0.000
0.874,-0.028,-1.996,0.000
1.109,0.302,-1.964,0.000
1.178,0.385,-1.906,0.000
0.962,0.388,-1.539,0.000
0.651,0.225,-1.253,0.000
0.208,0.004,-1.165,0.000
0.028,-0.019,-1.169,0.000
-0.061,-0.133,-1.085,0.000
-0.040,-0.134,-1.071,0.000
0.125,0.039,-0.946,0.000
0.297,0.160,-0.732,0.000
0.673,0.432,-0.406,0.000
0.630,0.457,-0.241,0.000
0.467,0.410,0.166,0.000
0.340,0.316,0.439,0.000
0.189,0.200,0.797,0.000
0.019,0.121,0.929,0.000
-0.090,0.088,0.951,0.000
-0.204,0.035,1.080,0.000
-0.109,-0.014,1.248,0.000
0.078,-0.047,1.212,0.000
0.563,0.050,1.211,0.000
1.037,0.184,1.445,0.000
1.309,0.278,1.823,0.000
1.031,0.299,1.953,0.000
0.496,0.003,1.700,0.000
0.236,-0.245,1.463,1.000
-0.194,-0.429,1.712,0.000
-0.236,-0.353,1.986,0.000
-0.168,-0.189,1.962,0.000
-0.019,-0.104,1.692,0.000
0.460,0.138,1.035,0.000
0.770,0.147,0.563,0.000
1.581,0.125,0.165,0.000
1.985,0.093,0.465,0.000
1.949,-0.337,1.649,0.000
1.645,-0.565,2.218,0.000
0.885,-0.890,2.723,0.000
0.528,-1.007,2.510,0.000
0.300,-1.098,1.507,0.000
0.399,-0.956,0.632,0.000
1.010,-0.561,-0.636,0.000
1.279,-0.475,-1.215,0.000
1.391,-0.329,-1.617,0.000
1.486,-0.298,-1.443,0.000
1.386,-0.476,-0.646,0.000
1.146,-0.609,-0.117,0.000
0.883,-0.877,0.544,0.000
0.794,-0.883,0.704,0.000
0.568,-0.963,0.751,0.000
0.606,-0.944,0.479,0.000
0.857,-0.759,-0.360,0.000
0.966,-0.612,-0.713,0.000
1.239,-0.331,-1.065,0.000
1.445,-0.139,-1.327,0.000
1.553,0.089,-1.660,0.000
1.538,0.201,-1.816,0.000
1.164,0.172,-1.847,0.000
0.823,0.088,-1.732,0.000
0.854,0.092,-1.728,0.000
0.255,-0.028,-1.485,0.000
0.282,-0.023,-1.482,0.000
0.325,0.043,-1.228,0.000
0.679,0.265,-0.660,0.000
0.838,0.331,-0.307,0.000
1.103,0.466,-0.141,0.000
1.170,0.516,-0.116,0.000
1.186,0.413,0.090,0.000
1.108,0.386,0.359,0.000
1.111,0.393,0.357,0.000
0.767,0.136,0.916,0.000
0.446,0.154,1.429,0.000
0.344,0.106,1.674,0.000
0.369,0.218,1.546,0.000
0.393,0.332,1.327,0.000
0.605,0.409,0.842,0.000
0.729,0.481,0.673,0.000
0.870,0.538,0.713,0.000
0.835,0.455,0.973,0.000
0.678,0.415,1.761,0.000
0.534,0.434,2.061,0.000
0.462,0.385,1.929,0.000
0.472,0.192,1.755,1.000
0.382,0.257,1.792,0.000
0.272,0.363,1.833,0.000
0.261,0.349,1.836,0.000
0.261,0.470,1.064,0.000
0.373,0.513,0.854,0.000
0.460,0.420,0.843,0.000
0.445,0.432,0.836,0.000
0.867,-0.256,1.073,0.000
0.885,-0.937,2.086,0.000
0.820,-1.076,2.477,0.000
0.520,-1.216,2.777,0.000
0.403,-1.266,2.562,0.000
0.556,-1.050,1.427,0.000
0.659,-0.861,0.544,0.000
0.838,-0.719,-0.622,0.000
0.857,-0.651,-0.883,0.000
0.904,-0.623,-0.921,0.000
0.861,-0.649,-0.850,0.000
0.748,-0.827,-0.592,0.000
0.681,-0.946,-0.521,0.000
0.538,-1.117,-0.589,0.000
0.526,-1.151,-0.786,0.000
0.826,-1.009,-1.102,0.000
1.064,-0.781,-1.071,0.000
1.391,-0.424,-0.860,0.000
1.415,-0.309,-0.718,0.000
1.234,-0.184,-0.662,0.000
1.039,-0.175,-0.753,0.000
1.040,-0.177,-0.753,0.000
0.512,-0.312,-1.227,0.000
0.242,-0.421,-1.406,0.000
0.150,-0.437,-1.522,0.000
0.154,-0.254,-1.430,0.000
0.343,-0.070,-1.239,0.000
0.645,0.280,-0.997,0.000
0.726,0.441,-0.944,0.000
0.587,0.474,-0.888,0.000
0.385,0.381,-0.913,0.000
-0.075,0.135,-0.991,0.000
-0.198,0.087,-0.975,0.000
-0.204,-0.056,-0.863,0.000
-0.170,-0.061,-0.746,0.000
0.192,0.032,-0.386,0.000
0.403,0.196,0.026,0.000
0.636,0.429,0.716,0.000
0.634,0.423,0.717,0.000
0.554,0.398,0.791,0.000
0.390,0.365,0.523,0.000
0.185,0.270,0.424,0.000
0.134,0.211,0.502,0.000
0.299,0.073,0.512,0.000
0.384,-0.002,0.705,0.000
0.390,-0.015,0.711,0.000
0.302,-0.249,1.578,0.000
0.143,-0.158,1.881,0.000
0.172,-0.168,1.795,1.000
0.116,-0.190,1.380,0.000
0.201,-0.219,1.437,0.000
0.113,-0.286,1.949,0.000
0.057,-0.234,2.206,0.000
0.148,-0.283,2.153,0.000
0.174,-0.272,1.885,0.000
0.485,-0.212,0.922,0.000
0.989,-0.206,0.360,0.000
0.988,-0.210,0.362,0.000
2.369,-0.274,0.081,0.000
2.360,-0.252,0.071,0.000
1.686,-0.898,1.767,0.000
1.043,-1.326,2.121,0.000
0.817,-1.480,1.920,0.000
0.730,-1.600,1.177,0.000
0.789,-1.602,0.457,0.000
0.833,-1.479,-0.625,0.000
0.963,-1.381,-1.047,0.000
1.396,-1.279,-1.791,0.000
1.439,-1.170,-1.801,0.000
1.354,-1.165,-1.131,0.000
1.226,-1.138,-0.567,0.000
0.847,-1.234,0.137,0.000
0.644,-1.217,0.258,0.000
0.436,-1.127,0.274,0.000
0.502,-0.977,0.053,0.000
0.815,-0.541,-0.913,0.000
1.043,-0.204,-1.664,0.000
1.341,0.200,-2.406,0.000
1.475,0.431,-2.563,0.000
1.532,0.637,-2.454,0.000
1.329,0.690,-2.147,0.000
0.740,0.493,-1.411,0.000
0.371,0.330,-1.032,0.000
-0.033,0.198,-0.724,0.000
-0.084,0.180,-0.692,0.000
0.176,0.250,-0.626,0.000
0.375,0.288,-0.538,0.000
0.716,0.416,-0.371,0.000
0.823,0.414,-0.272,0.000
0.952,0.513,-0.098,0.000
0.991,0.497,0.035,0.000
0.739,0.547,0.401,0.000
0.574,0.542,0.705,0.000
0.296,0.494,1.089,0.000
0.164,0.471,1.212,0.000
0.060,0.341,1.371,0.000
0.060,0.388,1.469,0.000
0.316,0.481,1.489,0.000
0.450,0.509,1.563,0.000
0.569,0.481,1.944,0.000
0.604,0.449,2.152,0.000
0.548,0.577,2.482,0.000
0.352,0.538,2.691,1.000
0.284,0.583,2.314,0.000
0.245,0.659,1.902,0.000
-0.075,0.615,1.384,0.000
-0.317,0.607,1.315,0.000
-0.447,0.598,1.497,0.000
-0.452,0.566,1.535,0.000
-0.415,0.413,1.547,0.000
-0.320,0.292,1.409,0.000
0.082,0.025,1.386,0.000
0.356,-0.304,2.006,0.000
0.664,-0.755,3.357,0.000
0.640,-0.934,3.825,0.000
0.211,-1.267,3.861,0.000
0.007,-1.418,3.068,0.000
-0.070,-1.503,1.246,0.000
-0.031,-1.313,0.116,0.000
0.117,-1.230,-0.806,0.000
0.288,-1.140,-1.355,0.000
0.455,-0.859,-2.151,0.000
0.537,-0.795,-2.264,0.000
0.548,-0.835,-2.025,0.000
0.455,-0.812,-1.801,0.000
0.304,-0.861,-1.455,0.000
0.217,-0.868,-1.434,0.000
0.194,-0.776,-1.565,0.000
0.229,-0.713,-1.748,0.000
0.308,-0.735,-2.014,0.000
0.229,-0.699,-1.854,0.000
0.088,-0.679,-1.511,0.000
-0.011,-0.655,-1.457,0.000
-0.145,-0.477,-1.440,0.000
-0.120,-0.353,-1.462,0.000
0.011,-0.079,-1.557,0.000
0.171,0.169,-1.437,0.000
0.346,0.341,-1.431,0.000
0.285,0.392,-1.502,0.000
-0.019,0.210,-1.263,0.000
-0.116,0.147,-0.931,0.000
-0.268,0.073,-0.375,0.000
-0.296,0.032,-0.220,0.000
-0.312,0.027,-0.220,0.000
-0.373,0.038,-0.250,0.000
-0.318,0.149,-0.280,0.000
-0.168,0.301,-0.206,0.000
0.198,0.446,-0.188,0.000
0.131,0.455,-0.131,0.000
0.213,0.602,0.176,0.000
0.206,0.636,0.472,0.000
0.003,0.549,0.575,0.000
-0.069,0.477,0.480,0.000
-0.182,0.337,0.494,0.000
-0.390,0.224,0.912,0.000
-0.676,0.103,1.774,0.000
-0.804,0.150,1.967,0.000
-0.485,0.498,1.784,0.000
-0.238,0.702,1.683,1.000
-0.231,0.681,1.691,0.000
0.303,0.974,0.772,0.000
0.024,0.711,0.244,0.000
-0.347,0.494,0.275,0.000
-0.861,0.086,0.962,0.000
-0.865,-0.125,1.457,0.000
-0.594,-0.212,2.137,0.000
-0.168,-0.238,2.490,0.000
0.687,-0.230,2.555,0.000
1.015,-0.219,2.474,0.000
1.168,-0.265,2.647,0.000
0.947,-0.311,2.697,0.000
0.474,-0.526,2.320,0.000
0.200,-0.686,1.760,0.000
0.128,-0.755,0.805,0.000
0.408,-0.704,0.358,0.000
0.622,-0.631,-0.225,0.000
0.631,-0.668,-0.317,0.000
0.813,-0.716,-0.457,0.000
0.911,-0.683,-0.534,0.000
0.923,-0.683,-0.532,0.000
0.911,-0.844,-0.632,0.000
0.917,-0.918,-0.678,0.000
0.940,-0.938,-0.676,0.000
0.832,-0.992,-0.718,0.000
0.678,-1.038,-0.707,0.000
0.547,-1.027,-0.911,0.000
0.473,-1.040,-1.185,0.000
0.409,-0.819,-1.686,0.000
0.506,-0.690,-1.804,0.000
0.509,-0.717,-1.795,0.000
0.951,0.024,-1.426,0.000
1.018,0.311,-1.142,0.000
0.956,0.386,-1.102,0.000
0.749,0.451,-1.483,0.000
0.552,0.435,-1.758,0.000
0.286,0.360,-2.212,0.000
0.155,0.270,-2.287,0.000
0.066,0.221,-2.106,0.000
0.097,0.207,-1.887,0.000
0.265,0.279,-1.369,0.000
0.392,0.345,-0.987,0.000
0.642,0.326,-0.277,0.000
0.679,0.314,0.130,0.000
0.533,0.131,0.612,0.000
0.482,0.036,0.888,0.000
0.577,-0.083,1.150,0.000
0.488,-0.109,1.056,0.000
0.297,-0.220,0.569,0.000
0.292,-0.150,0.024,0.000
0.178,0.025,-0.417,0.000
0.111,0.052,-0.306,0.000
-0.090,0.029,0.543,0.000
-0.120,0.086,1.131,0.000
-0.221,0.039,2.063,0.000
-0.349,-0.000,2.238,0.000
-0.134,0.168,1.464,0.000
0.398,0.313,0.890,0.000
0.976,0.368,0.287,0.000
0.787,0.294,0.402,1.000
0.761,0.286,0.401,0.000
-0.530,-0.525,1.445,0.000
-0.931,-0.558,1.613,0.000
-0.859,-0.467,1.614,0.000
-0.395,-0.350,1.888,0.000
-0.142,-0.311,2.310,0.000
0.221,-0.461,3.084,0.000
0.259,-0.527,3.274,0.000
0.061,-0.754,2.705,0.000
-0.055,-0.765,2.006,0.000
0.006,-0.658,0.119,0.000
0.108,-0.541,-0.498,0.000
-0.052,-0.619,-0.789,0.000
-0.200,-0.670,-0.542,0.000
-0.111,-0.503,0.133,0.000
-0.071,-0.480,0.561,0.000
0.005,-0.484,0.810,0.000
0.023,-0.541,0.744,0.000
-0.082,-0.692,0.569,0.000
-0.257,-0.798,0.470,0.000
-0.345,-0.927,0.337,0.000
-0.325,-0.935,0.152,0.000
-0.212,-0.952,-0.349,0.000
-0.208,-0.908,-0.630,0.000
-0.152,-0.809,-1.106,0.000
-0.161,-0.714,-1.485,0.000
-0.304,-0.541,-1.874,0.000
-0.265,-0.364,-2.179,0.000
0.004,0.017,-2.480,0.000
0.112,0.234,-2.477,0.000
0.243,0.404,-2.314,0.000
0.281,0.500,-2.170,0.000
0.233,0.619,-1.512,0.000
0.197,0.566,-1.150,0.000
0.196,0.652,-0.772,0.000
0.125,0.589,-0.567,0.000
-0.115,0.379,-0.494,0.000
-0.311,0.241,-0.502,0.000
-0.463,0.061,-0.566,0.000
-0.430,-0.032,-0.522,0.000
-0.423,-0.038,-0.519,0.000
-0.282,-0.005,0.409,0.000
-0.159,0.090,1.077,0.000
-0.192,0.164,1.330,0.000
-0.190,0.154,1.333,0.000
-0.272,0.153,1.473,0.000
-0.181,0.215,0.875,0.000
-0.095,0.182,0.715,0.000
-0.063,0.066,0.763,0.000
-0.061,0.034,0.775,0.000
-0.316,0.006,1.569,0.000
-0.234,0.038,1.560,0.000
-0.223,0.016,1.569,0.000
0.095,0.032,0.604,1.000
0.104,0.007,0.614,0.000
0.023,0.073,0.392,0.000
-0.026,0.131,0.612,0.000
-0.027,0.145,0.840,0.000
0.333,0.190,0.785,0.000
0.735,0.243,0.631,0.000
1.216,0.167,0.564,0.000
1.444,-0.008,0.761,0.000
1.359,-0.449,1.593,0.000
0.973,-0.760,2.161,0.000
0.405,-1.180,2.811,0.000
0.103,-1.265,2.728,0.000
-0.216,-1.359,2.138,0.000
-0.152,-1.331,1.664,0.000
-0.030,-1.182,0.543,0.000
-0.007,-1.075,-0.008,0.000
0.333,-0.868,-0.759,0.000
0.522,-0.715,-1.251,0.000
0.707,-0.559,-1.870,0.000
0.774,-0.551,-2.134,0.000
0.637,-0.560,-1.971,0.000
0.418,-0.696,-1.410,0.000
0.146,-0.889,-0.431,0.000
-0.010,-0.972,-0.085,0.000
-0.191,-0.995,-0.073,0.000
-0.149,-0.905,-0.404,0.000
0.178,-0.441,-1.368,0.000
0.303,-0.262,-1.794,0.000
0.581,0.088,-2.541,0.000
0.796,0.298,-2.962,0.000
0.763,0.425,-3.327,0.000
0.631,0.416,-3.174,0.000
0.170,0.245,-2.142,0.000
-0.064,0.084,-1.357,0.000
-0.201,-0.021,-0.145,0.000
-0.123,0.043,0.273,0.000
0.078,0.084,0.462,0.000
0.318,0.216,0.218,0.000
0.637,0.353,-0.389,0.000
0.784,0.367,-0.636,0.000
0.726,0.262,-0.437,0.000
0.656,0.222,-0.036,0.000
0.562,0.118,0.669,0.000
0.412,0.057,1.057,0.000
0.173,-0.053,1.659,0.000
0.143,-0.077,1.789,0.000
0.234,0.097,1.836,0.000
0.412,0.125,1.677,0.000
0.604,0.300,1.477,0.000
0.640,0.277,1.636,0.000
0.667,0.353,1.708,0.000
0.486,0.401,1.589,0.000
0.096,0.416,1.513,0.000
-0.133,0.329,1.440,1.000
-0.142,0.293,1.452,0.000
-0.739,0.221,0.887,0.000
-0.889,0.252,0.492,0.000
-0.848,0.195,0.315,0.000
-0.408,0.102,0.067,0.000
-0.138,0.059,0.221,0.000
-0.183,0.072,0.212,0.000
0.548,-0.578,2.588,0.000
0.527,-0.792,3.718,0.000
0.466,-0.814,3.885,0.000
0.012,-0.878,2.873,0.000
-0.159,-0.843,1.494,0.000
-0.307,-0.810,-0.437,0.000
-0.241,-0.749,-1.099,0.000
-0.221,-0.738,-1.498,0.000
-0.172,-0.758,-1.594,0.000
-0.182,-0.793,-1.284,0.000
-0.130,-0.790,-0.980,0.000
-0.083,-0.843,-0.756,0.000
0.063,-0.803,-0.790,0.000
0.277,-0.780,-0.940,0.000
0.241,-0.757,-1.033,0.000
0.090,-0.818,-1.189,0.000
0.076,-0.812,-1.278,0.000
0.095,-0.742,-1.252,0.000
0.049,-0.752,-1.094,0.000
0.053,-0.736,-1.099,0.000
0.077,-0.497,-1.151,0.000
0.382,-0.197,-1.338,0.000
0.408,-0.042,-1.344,0.000
0.261,0.222,-1.537,0.000
0.173,0.258,-1.725,0.000
-0.276,0.100,-1.333,0.000
-0.441,0.016,-1.055,0.000
-0.585,0.074,-0.549,0.000
-0.583,0.099,-0.402,0.000
-0.446,0.145,-0.295,0.000
-0.425,0.115,-0.373,0.000
-0.338,0.168,-0.766,0.000
-0.319,0.141,-0.939,0.000
-0.226,0.186,-1.064,0.000
-0.176,0.183,-0.957,0.000
0.036,0.365,-0.591,0.000
0.210,0.534,-0.316,0.000
0.202,0.610,0.290,0.000
0.105,0.525,0.548,0.000
0.069,0.470,1.174,0.000
0.173,0.457,1.459,0.000
0.328,0.408,2.032,0.000
0.488,0.369,2.369,0.000
0.663,0.340,2.597,0.000
0.522,0.311,2.592,0.000
0.324,0.320,1.979,0.000
0.174,0.258,1.393,1.000
-0.137,0.094,0.414,0.000
-0.377,0.085,0.300,0.000
-0.374,0.012,1.073,0.000
-0.169,0.028,1.716,0.000
0.180,0.053,2.371,0.000
0.384,-0.054,2.329,0.000
0.584,-0.502,2.172,0.000
0.572,-0.823,2.250,0.000
0.413,-1.361,2.865,0.000
0.289,-1.383,3.157,0.000
-0.254,-1.598,3.089,0.000
-0.457,-1.581,2.592,0.000
-0.414,-1.469,1.480,0.000
-0.304,-1.404,0.837,0.000
-0.084,-1.224,0.037,0.000
-0.064,-1.157,-0.323,0.000
0.163,-1.070,-0.978,0.000
0.494,-0.885,-1.450,0.000
0.921,-0.674,-2.363,0.000
1.172,-0.574,-2.714,0.000
1.441,-0.435,-2.768,0.000
1.529,-0.368,-2.558,0.000
1.382,-0.416,-1.810,0.000
1.217,-0.487,-1.267,0.000
0.855,-0.662,-0.469,0.000
0.552,-0.750,-0.120,0.000
0.248,-0.802,-0.273,0.000
0.316,-0.600,-0.539,0.000
0.587,-0.326,-1.327,0.000
0.707,-0.111,-1.803,0.000
0.712,0.019,-2.312,0.000
0.713,0.113,-2.458,0.000
0.744,0.257,-2.386,0.000
0.694,0.237,-2.282,0.000
0.718,0.248,-2.283,0.000
0.281,-0.028,-1.608,0.000
0.151,-0.117,-1.008,0.000
-0.087,-0.234,-0.700,0.000
-0.174,-0.249,-0.407,0.000
-0.003,-0.127,-0.404,0.000
0.339,0.111,-0.585,0.000
0.544,0.241,-0.743,0.000
0.554,0.246,-0.744,0.000
0.572,0.407,-0.448,0.000
0.584,0.423,-0.452,0.000
0.126,0.252,0.699,0.000
-0.258,0.124,2.156,0.000
-0.489,-0.096,2.922,0.000
-0.660,-0.163,3.719,0.000
-0.709,-0.131,3.821,0.000
-0.452,-0.097,3.545,0.000
-0.273,-0.057,3.281,0.000
0.082,0.367,2.340,0.000
0.153,0.506,1.792,1.000
-0.099,0.424,1.130,0.000
-0.602,0.228,0.903,0.000
-1.294,0.094,1.009,0.000
-1.444,0.112,0.933,0.000
-1.111,0.270,0.512,0.000
-0.634,0.198,0.212,0.000
-0.673,0.185,0.212,0.000
0.808,-0.023,0.616,0.000
0.616,-0.456,2.462,0.000
0.482,-1.018,3.092,0.000
-0.172,-1.282,3.252,0.000
-0.360,-1.153,2.309,0.000
-0.415,-0.939,0.461,0.000
-0.389,-0.893,-0.289,0.000
-0.222,-0.724,-0.613,0.000
-0.115,-0.643,-0.699,0.000
-0.119,-0.593,-0.250,0.000
-0.043,-0.605,0.275,0.000
0.076,-0.775,1.007,0.000
0.017,-0.871,1.103,0.000
0.072,-0.954,0.744,0.000
0.056,-0.998,0.463,0.000
0.061,-0.997,-0.005,0.000
0.096,-0.975,-0.282,0.000
0.199,-0.880,-0.856,0.000
0.225,-0.778,-1.242,0.000
0.277,-0.646,-1.899,0.000
0.275,-0.563,-2.111,0.000
0.312,-0.360,-2.402,0.000
0.341,-0.180,-2.510,0.000
0.361,0.096,-2.576,0.000
0.411,0.250,-2.516,0.000
0.520,0.446,-2.305,0.000
0.546,0.509,-2.188,0.000
0.304,0.448,-1.623,0.000
0.130,0.307,-1.184,0.000
-0.221,0.092,-0.567,0.000
-0.354,0.037,-0.257,0.000
-0.332,0.112,-0.206,0.000
-0.310,0.136,-0.300,0.000
-0.054,0.447,-0.374,0.000
0.233,0.582,-0.530,0.000
0.470,0.751,-0.648,0.000
0.475,0.715,-0.380,0.000
0.463,0.708,0.187,0.000
0.267,0.549,0.530,0.000
0.266,0.534,0.534,0.000
-0.276,0.182,0.981,0.000
-0.428,0.063,1.077,0.000
-0.404,0.030,1.100,0.000
-0.103,0.194,1.098,0.000
0.019,0.341,1.148,0.000
0.415,0.742,1.473,0.000
0.601,0.934,1.541,0.000
0.475,1.079,1.630,0.000
0.263,0.899,1.657,1.000
-0.271,0.478,1.376,0.000
-0.578,0.264,1.266,0.000
-0.695,0.046,1.276,0.000
-0.697,-0.118,1.326,0.000
-0.708,-0.333,1.484,0.000
-0.566,-0.473,1.434,0.000
-0.113,-0.792,1.409,0.000
-0.015,-1.072,1.491,0.000
-0.082,-1.385,2.096,0.000
-0.196,-1.473,2.597,0.000
-0.390,-1.694,3.026,0.000
-0.631,-1.758,2.845,0.000
-0.856,-1.721,2.272,0.000
-0.811,-1.685,1.739,0.000
-0.596,-1.546,0.506,0.000
-0.437,-1.399,-0.109,0.000
-0.098,-1.060,-0.741,0.000
0.054,-0.885,-0.779,0.000
0.218,-0.625,-0.639,0.000
0.267,-0.566,-0.563,0.000
0.269,-0.522,-0.516,0.000
0.351,-0.495,-0.568,0.000
0.336,-0.454,-0.755,0.000
0.283,-0.462,-0.861,0.000
0.406,-0.370,-1.124,0.000
0.479,-0.318,-1.375,0.000
0.479,-0.297,-1.810,0.000
0.446,-0.251,-1.953,0.000
0.442,-0.222,-2.224,0.000
0.463,-0.143,-2.426,0.000
0.532,-0.011,-2.586,0.000
0.554,0.053,-2.626,0.000
0.506,0.121,-2.575,0.000
0.565,0.159,-2.657,0.000
0.710,0.339,-2.613,0.000
0.759,0.358,-2.392,0.000
0.784,0.361,-2.391,0.000
0.251,0.040,-1.731,0.000
0.012,-0.158,-1.497,0.000
-0.170,-0.287,-1.085,0.000
-0.170,-0.286,-1.085,0.000
-0.007,-0.346,-0.040,0.000
-0.017,-0.346,-0.041,0.000
-0.028,-0.173,0.358,0.000
-0.065,-0.046,0.492,0.000
-0.020,0.117,0.663,0.000
0.086,0.137,0.952,0.000
0.080,0.059,1.309,0.000
0.308,0.068,1.993,0.000
0.285,0.054,1.995,0.000
0.259,0.118,3.312,0.000
0.344,0.276,3.417,0.000
0.453,0.543,2.824,0.000
0.505,0.616,1.758,0.000
0.195,0.595,0.535,0.000
-0.081,0.429,0.351,1.000
-0.076,0.410,0.358,0.000
-0.918,0.104,0.594,0.000
-1.407,-0.372,1.181,0.000
-1.468,-0.481,1.473,0.000
-1.028,-0.851,2.362,0.000
-0.755,-0.902,2.949,0.000
-0.183,-0.915,4.247,0.000
-0.122,-0.928,4.451,0.000
-0.168,-0.658,3.580,0.000
-0.181,-0.602,2.251,0.000
-0.405,-0.662,-0.083,0.000
-0.504,-0.597,-1.050,0.000
-0.514,-0.564,-1.506,0.000
-0.582,-0.700,-1.320,0.000
-0.669,-0.776,-0.888,0.000
-0.472,-0.690,-0.479,0.000
0.078,-0.543,-0.195,0.000
0.229,-0.425,-0.241,0.000
0.244,-0.474,-0.569,0.000
0.172,-0.601,-0.867,0.000
-0.072,-0.827,-1.167,0.000
-0.153,-1.029,-1.190,0.000
-0.232,-1.135,-1.194,0.000
-0.268,-1.120,-1.145,0.000
-0.266,-1.065,-1.085,0.000
-0.264,-0.970,-1.185,0.000
-0.305,-0.776,-1.351,0.000
-0.301,-0.650,-1.274,0.000
-0.319,-0.444,-1.151,0.000
-0.256,-0.342,-1.317,0.000
-0.152,-0.165,-1.907,0.000
-0.174,-0.144,-2.180,0.000
-0.304,-0.167,-2.173,0.000
-0.403,-0.217,-1.699,0.000
-0.402,-0.218,-1.698,0.000
-0.294,-0.009,-1.012,0.000
-0.151,0.120,-1.004,0.000
0.101,0.244,-1.147,0.000
0.375,0.416,-1.435,0.000
0.376,0.459,-1.406,0.000
0.062,0.275,-0.768,0.000
-0.205,0.192,-0.260,0.000
-0.519,0.126,0.664,0.000
-0.508,0.170,0.924,0.000
-0.520,0.183,1.126,0.000
-0.459,0.174,1.014,0.000
-0.276,0.255,0.902,0.000
-0.163,0.311,0.980,0.000
0.200,0.376,1.462,0.000
0.312,0.494,2.012,0.000
0.366,0.727,2.788,0.000
0.321,0.709,2.670,0.000
0.045,0.570,1.728,0.000
-0.161,0.510,1.252,1.000
-0.358,0.306,1.124,0.000
-0.203,0.336,1.081,0.000
-0.008,0.321,0.909,0.000
-0.020,0.368,1.099,0.000
0.204,0.137,1.427,0.000
0.360,-0.032,1.507,0.000
0.509,-0.506,2.266,0.000
0.542,-0.764,3.117,0.000
0.319,-1.108,4.420,0.000
0.118,-1.185,4.482,0.000
0.138,-1.143,4.471,0.000
0.015,-1.202,2.367,0.000
0.219,-1.106,0.468,0.000
0.425,-0.967,-0.369,0.000
0.565,-0.862,-1.119,0.000
0.460,-1.029,-1.227,0.000
0.223,-1.120,-1.257,0.000
0.222,-1.135,-1.057,0.000
0.292,-1.084,-0.463,0.000
0.351,-1.007,-0.152,0.000
0.371,-0.948,0.002,0.000
0.286,-0.864,-0.140,0.000
0.217,-0.799,-0.878,0.000
0.279,-0.857,-1.406,0.000
0.212,-0.721,-2.339,0.000
0.245,-0.594,-2.493,0.000
0.525,-0.366,-2.333,0.000
0.607,-0.189,-2.009,0.000
0.510,-0.061,-1.608,0.000
0.510,-0.071,-1.605,0.000
0.064,0.118,-1.524,0.000
-0.189,-0.029,-1.652,0.000
-0.115,-0.105,-1.974,0.000
0.210,0.014,-1.991,0.000
0.297,0.011,-1.321,0.000
0.242,-0.138,-0.620,0.000
0.109,-0.112,0.466,0.000
-0.009,-0.166,0.755,0.000
-0.039,-0.273,0.486,0.000
-0.080,-0.227,0.197,0.000
-0.100,-0.237,0.175,0.000
-0.075,-0.244,0.314,0.000
0.012,-0.208,0.496,0.000
-0.019,-0.202,0.700,0.000
-0.201,-0.168,0.950,0.000
-0.284,-0.117,0.898,0.000
-0.392,-0.063,1.066,0.000
-0.317,-0.042,1.436,0.000
0.028,0.011,2.008,0.000
0.289,-0.049,2.037,0.000
0.540,0.234,2.029,0.000
0.893,0.392,2.098,0.000
1.317,0.761,1.758,0.000
1.357,0.872,1.525,1.000
1.198,0.920,1.265,0.000
1.036,1.042,1.111,0.000
0.754,1.108,0.951,0.000
0.658,0.925,0.911,0.000
0.793,0.647,1.050,0.000
0.860,0.421,1.136,0.000
0.854,0.417,1.137,0.000
0.893,-0.309,2.375,0.000
0.445,-0.691,2.789,0.000
0.127,-0.689,2.374,0.000
-0.003,-0.599,0.597,0.000
-0.037,-0.516,-0.391,0.000
-0.259,-0.516,-1.344,0.000
-0.293,-0.536,-1.696,0.000
-0.400,-0.531,-2.422,0.000
-0.551,-0.624,-2.545,0.000
-0.566,-0.624,-2.546,0.000
-0.799,-1.192,-0.638,0.000
-0.872,-1.509,0.571,0.000
-0.798,-1.549,0.753,0.000
-0.515,-1.522,0.639,0.000
-0.211,-1.415,0.225,0.000
0.250,-1.208,-0.759,0.000
0.474,-1.100,-1.242,0.000
0.595,-0.971,-1.267,0.000
0.467,-0.958,-1.198,0.000
-0.107,-1.047,-0.757,0.000
-0.386,-1.134,-0.411,0.000
-0.533,-1.062,-0.421,0.000
-0.420,-0.817,-0.765,0.000
-0.410,-0.827,-0.761,0.000
-0.440,-0.478,-1.689,0.000
-0.179,-0.200,-2.329,0.000
-0.045,0.069,-2.533,0.000
0.383,0.394,-2.377,0.000
0.567,0.593,-1.914,0.000
0.237,0.492,-1.114,0.000
-0.042,0.414,-0.775,0.000
-0.414,0.207,-0.408,0.000
-0.520,0.104,-0.388,0.000
-0.529,0.100,-0.300,0.000
-0.368,0.142,-0.155,0.000
-0.067,0.237,0.442,0.000
-0.060,0.283,0.794,0.000
-0.123,0.336,1.292,0.000
-0.031,0.377,1.221,0.000
0.179,0.603,0.776,0.000
0.206,0.665,0.766,0.000
0.190,0.631,1.155,0.000
0.008,0.543,1.547,0.000
-0.197,0.517,2.058,0.000
-0.170,0.597,1.998,0.000
0.308,0.879,0.855,0.000
0.736,1.064,0.147,0.000
1.143,1.163,-0.195,0.000
0.934,1.037,0.021,1.000
0.319,0.622,1.104,0.000
-0.096,0.312,1.779,0.000
-0.630,-0.190,2.387,0.000
-0.657,-0.426,2.196,0.000
-0.087,-0.433,1.264,0.000
0.546,-0.343,0.940,0.000
1.334,-0.321,1.216,0.000
1.436,-0.381,1.429,0.000
1.414,-0.590,1.619,0.000
1.227,-0.824,1.366,0.000
0.698,-1.273,0.752,0.000
0.557,-1.486,0.614,0.000
0.140,-1.764,1.004,0.000
-0.311,-1.964,1.077,0.000
-0.728,-2.109,0.637,0.000
-0.748,-2.063,0.160,0.000
-0.541,-1.692,-0.362,0.000
-0.279,-1.450,-0.341,0.000
0.180,-0.978,-0.182,0.000
0.234,-0.827,-0.052,0.000
0.179,-0.718,-0.030,0.000
0.096,-0.702,-0.053,0.000
0.105,-0.693,-0.055,0.000
-0.058,-0.665,-0.554,0.000
-0.168,-0.648,-0.888,0.000
-0.116,-0.600,-1.112,0.000
-0.109,-0.621,-1.104,0.000
0.019,-0.426,-1.789,0.000
0.221,-0.175,-2.162,0.000
0.357,-0.013,-2.083,0.000
0.514,0.159,-1.741,0.000
0.534,0.219,-1.481,0.000
0.573,0.294,-1.228,0.000
0.492,0.267,-1.286,0.000
0.077,0.007,-1.356,0.000
-0.014,-0.045,-1.302,0.000
-0.006,-0.041,-0.965,0.000
-0.002,-0.064,-0.777,0.000
-0.153,-0.142,-0.490,0.000
-0.176,-0.073,-0.451,0.000
0.091,0.191,-0.404,0.000
0.185,0.276,-0.257,0.000
0.319,0.343,0.253,0.000
0.284,0.337,0.526,0.000
0.205,0.280,0.732,0.000
0.206,0.270,0.736,0.000
0.153,0.197,0.910,0.000
0.242,0.197,1.585,0.000
0.376,0.145,2.146,0.000
0.250,0.058,2.283,0.000
0.119,0.104,1.862,0.000
0.101,0.077,1.351,0.000
0.242,0.108,0.587,0.000
0.401,0.258,0.451,0.000
0.775,0.640,0.374,0.000
0.840,0.884,0.360,1.000
1.063,1.137,0.444,0.000
1.177,1.183,0.669,0.000
1.053,1.080,1.236,0.000
0.958,0.842,1.540,0.000
0.930,0.869,1.526,0.000
0.644,-0.151,2.293,0.000
0.600,-0.492,2.509,0.000
0.568,-0.588,2.215,0.000
0.529,-0.638,1.253,0.000
0.540,-0.722,0.801,0.000
0.302,-0.858,0.329,0.000
0.204,-0.917,0.269,0.000
0.105,-0.925,0.339,0.000
-0.040,-0.914,0.397,0.000
0.047,-0.912,0.444,0.000
0.166,-0.859,0.315,0.000
0.348,-0.754,-0.081,0.000
0.473,-0.718,-0.379,0.000
0.843,-0.495,-1.139,0.000
1.069,-0.305,-1.466,0.000
1.465,-0.087,-1.711,0.000
1.380,-0.180,-1.726,0.000
0.772,-0.464,-1.224,0.000
0.515,-0.644,-0.799,0.000
0.133,-0.860,-0.389,0.000
-0.084,-0.879,-0.471,0.000
-0.339,-0.842,-0.829,0.000
-0.322,-0.765,-1.123,0.000
-0.265,-0.454,-1.369,0.000
0.035,-0.173,-1.540,0.000
0.587,0.203,-1.611,0.000
0.614,0.301,-1.468,0.000
0.382,0.163,-1.012,0.000
0.168,-0.034,-0.619,0.000
0.168,-0.040,-0.617,0.000
0.003,-0.181,0.123,0.000
0.054,-0.240,0.199,0.000
0.145,-0.169,-0.065,0.000
0.151,-0.194,-0.055,0.000
0.736,0.102,-0.994,0.000
1.089,0.282,-1.373,0.000
1.004,0.234,-1.322,0.000
0.713,0.224,-0.755,0.000
0.525,0.114,-0.178,0.000
0.184,-0.046,0.567,0.000
0.067,-0.165,0.755,0.000
0.236,-0.463,1.128,0.000
0.432,-0.406,1.314,0.000
0.311,-0.458,1.265,0.000
0.128,-0.504,1.068,0.000
-0.051,-0.280,0.692,0.000
-0.095,-0.231,0.658,0.000
-0.217,-0.125,0.806,0.000
-0.354,-0.009,1.304,1.000
-0.416,0.182,2.085,0.000
-0.396,0.313,2.102,0.000
-0.196,0.415,2.197,0.000
0.337,0.304,2.156,0.000
0.333,0.337,2.144,0.000
1.758,-0.067,2.168,0.000
2.351,-0.359,2.755,0.000
2.103,-0.633,3.297,0.000
2.093,-0.584,3.280,0.000
1.414,-0.793,2.351,0.000
1.212,-0.786,0.839,0.000
1.251,-0.756,0.211,0.000
1.012,-0.922,-0.206,0.000
0.818,-0.935,-0.289,0.000
0.559,-1.018,-0.293,0.000
0.519,-1.072,-0.283,0.000
0.603,-0.901,-0.317,0.000
0.678,-0.831,-0.382,0.000
0.898,-0.654,-0.571,0.000
0.912,-0.631,-0.630,0.000
0.937,-0.568,-0.974,0.000
0.978,-0.524,-1.186,0.000
1.148,-0.416,-1.193,0.000
1.284,-0.342,-1.147,0.000
1.251,-0.253,-1.052,0.000
1.315,-0.136,-1.228,0.000
1.268,0.022,-1.767,0.000
1.177,0.046,-1.969,0.000
1.005,0.118,-2.255,0.000
0.873,0.120,-2.281,0.000
0.708,0.122,-2.248,0.000
0.647,0.162,-2.125,0.000
0.738,0.271,-1.520,0.000
0.896,0.365,-1.087,0.000
1.128,0.461,-0.680,0.000
1.130,0.420,-0.591,0.000
0.853,0.278,-0.198,0.000
0.835,0.217,0.305,0.000
0.934,0.184,0.588,0.000
0.832,0.177,0.623,0.000
0.681,0.165,0.717,0.000
0.688,0.249,0.764,0.000
0.612,0.414,1.090,0.000
0.567,0.486,1.349,0.000
0.521,0.662,1.754,0.000
0.421,0.722,2.009,0.000
0.463,0.673,2.230,0.000
0.429,0.567,2.269,0.000
0.521,0.367,2.073,0.000
0.528,0.263,2.168,0.000
0.432,0.173,1.710,0.000
0.301,0.054,1.430,1.000
0.086,-0.146,1.350,0.000
-0.056,-0.076,1.349,0.000
-0.158,0.176,1.099,0.000
-0.027,0.256,0.710,0.000
-0.037,0.249,0.711,0.000
0.610,0.266,0.509,0.000
0.584,0.282,0.501,0.000
0.719,-0.389,1.562,0.000
0.643,-0.864,2.401,0.000
0.469,-0.971,2.414,0.000
0.261,-1.006,1.685,0.000
0.362,-0.914,1.142,0.000
0.424,-0.769,0.046,0.000
0.374,-0.758,-0.334,0.000
0.546,-0.686,-0.619,0.000
0.631,-0.632,-0.586,0.000
0.710,-0.684,-0.202,0.000
0.878,-0.612,-0.018,0.000
0.974,-0.722,0.003,0.000
0.945,-0.831,-0.187,0.000
0.852,-0.879,-0.618,0.000
0.765,-0.896,-0.809,0.000
0.596,-0.918,-1.000,0.000
0.486,-0.951,-1.007,0.000
0.327,-0.900,-1.125,0.000
0.227,-0.877,-1.179,0.000
0.131,-0.867,-1.321,0.000
0.160,-0.736,-1.467,0.000
0.424,-0.345,-1.707,0.000
0.496,-0.146,-1.686,0.000
0.563,0.137,-1.726,0.000
0.483,0.273,-1.803,0.000
0.250,0.403,-1.889,0.000
0.091,0.374,-1.844,0.000
-0.239,0.200,-1.629,0.000
-0.426,0.138,-1.414,0.000
-0.449,0.148,-0.997,0.000
-0.305,0.201,-0.798,0.000
0.003,0.415,-0.582,0.000
0.098,0.483,-0.418,0.000
0.233,0.562,-0.235,0.000
0.235,0.490,-0.086,0.000
0.204,0.334,0.446,0.000
0.259,0.303,0.777,0.000
0.229,0.171,1.463,0.000
0.191,0.128,1.822,0.000
-0.047,0.045,1.912,0.000
-0.184,-0.030,1.855,0.000
-0.148,0.041,1.447,0.000
0.053,0.116,1.388,0.000
0.480,0.341,1.837,0.000
0.670,0.502,2.082,0.000
0.737,0.653,1.748,0.000
0.607,0.548,1.251,1.000
0.217,0.148,0.593,0.000
-0.006,-0.018,0.511,0.000
-0.251,-0.035,1.059,0.000
-0.238,0.014,1.510,0.000
-0.047,0.182,1.751,0.000
0.145,0.295,1.408,0.000
0.143,0.292,1.408,0.000
1.280,0.384,0.685,0.000
1.754,0.056,1.029,0.000
1.687,-0.264,1.738,0.000
1.198,-0.776,2.522,0.000
0.604,-1.044,2.491,0.000
-0.079,-1.381,1.776,0.000
-0.166,-1.481,1.208,0.000
-0.142,-1.450,-0.243,0.000
-0.071,-1.323,-0.973,0.000
0.265,-1.151,-1.262,0.000
0.519,-1.042,-0.966,0.000
0.593,-1.051,-0.360,0.000
0.581,-1.118,-0.180,0.000
0.470,-1.294,-0.015,0.000
0.259,-1.409,0.010,0.000
0.074,-1.481,0.045,0.000
0.089,-1.370,-0.009,0.000
0.303,-1.035,-0.226,0.000
0.572,-0.747,-0.587,0.000
0.701,-0.342,-1.226,0.000
0.896,-0.191,-1.647,0.000
1.147,0.119,-2.709,0.000
1.130,0.290,-3.169,0.000
0.722,0.246,-3.252,0.000
0.489,0.152,-2.857,0.000
0.208,0.099,-1.728,0.000
0.105,0.071,-1.119,0.000
0.208,0.221,-0.783,0.000
0.396,0.299,-1.058,0.000
0.777,0.527,-1.797,0.000
0.777,0.536,-1.905,0.000
0.551,0.432,-1.535,0.000
0.458,0.337,-1.283,0.000
0.457,0.272,-0.691,0.000
0.502,0.302,-0.367,0.000
0.478,0.397,-0.101,0.000
0.288,0.399,0.127,0.000
0.020,0.408,0.798,0.000
-0.009,0.462,0.830,0.000
-0.056,0.604,0.612,0.000
-0.060,0.521,0.559,0.000
0.078,0.581,0.888,0.000
0.258,0.695,1.173,0.000
0.465,0.701,1.989,0.000
0.521,0.672,2.513,0.000
0.327,0.488,3.344,0.000
0.170,0.496,3.278,1.000
0.218,0.568,2.800,0.000
0.360,0.617,2.331,0.000
0.439,0.941,1.594,0.000
0.488,1.097,1.307,0.000
0.596,1.310,0.679,0.000
0.622,1.250,0.472,0.000
0.438,0.868,0.488,0.000
0.206,0.483,0.697,0.000
-0.177,-0.404,2.021,0.000
-0.147,-0.837,2.900,0.000
0.191,-1.016,3.952,0.000
0.245,-0.986,4.097,0.000
0.129,-0.979,3.034,0.000
0.093,-0.941,1.852,0.000
0.105,-0.802,-0.056,0.000
0.119,-0.703,-0.677,0.000
0.023,-0.744,-0.888,0.000
-0.183,-0.836,-0.884,0.000
-0.644,-1.147,-0.842,0.000
-0.826,-1.303,-0.700,0.000
-0.830,-1.292,-0.704,0.000
-0.782,-1.507,-0.135,0.000
-0.410,-1.262,-0.128,0.000
-0.134,-1.065,-0.340,0.000
0.177,-0.668,-0.956,0.000
0.241,-0.568,-1.392,0.000
0.342,-0.380,-2.258,0.000
0.360,-0.289,-2.693,0.000
0.387,-0.223,-2.903,0.000
0.363,-0.205,-2.765,0.000
0.276,-0.214,-2.478,0.000
0.178,-0.249,-2.302,0.000
-0.012,-0.198,-2.353,0.000
-0.197,-0.234,-2.351,0.000
-0.408,-0.205,-2.363,0.000
-0.431,-0.140,-2.379,0.000
-0.179,0.133,-2.297,0.000
-0.006,0.334,-2.051,0.000
0.153,0.485,-1.428,0.000
0.072,0.432,-0.938,0.000
-0.161,0.223,-0.196,0.000
-0.222,0.185,0.002,0.000
-0.333,0.096,0.324,0.000
-0.432,-0.055,0.769,0.000
-0.580,-0.121,1.376,0.000
-0.635,-0.148,1.396,0.000
-0.925,-0.321,1.298,0.000
-0.785,-0.345,1.200,0.000
-0.576,-0.374,1.268,0.000
-0.496,-0.474,1.511,0.000
-0.082,-0.272,1.824,0.000
0.217,-0.095,2.043,0.000
0.503,0.193,1.875,0.000
0.482,0.310,1.524,0.000
0.452,0.472,0.909,0.000
0.546,0.480,0.723,1.000
0.433,0.458,0.765,0.000
0.221,0.316,0.908,0.000
-0.055,0.149,1.014,0.000
-0.159,0.161,1.050,0.000
-0.032,0.309,1.173,0.000
0.244,0.315,1.264,0.000
0.814,0.316,1.347,0.000
1.181,0.217,1.519,0.000
1.473,-0.300,2.689,0.000
1.313,-0.599,3.277,0.000
0.579,-1.116,3.684,0.000
0.250,-1.282,3.358,0.000
-0.040,-1.325,2.078,0.000
0.015,-1.317,1.074,0.000
0.104,-1.216,-0.692,0.000
0.325,-1.020,-1.581,0.000
0.359,-0.993,-2.009,0.000
0.282,-1.058,-1.316,0.000
0.390,-1.061,0.299,0.000
0.379,-1.085,0.767,0.000
0.427,-1.030,0.724,0.000
0.432,-0.987,0.390,0.000
0.515,-0.832,-0.374,0.000
0.674,-0.656,-0.865,0.000
0.841,-0.362,-1.518,0.000
0.833,-0.278,-1.785,0.000
0.710,-0.168,-2.139,0.000
0.601,-0.232,-2.214,0.000
0.506,-0.139,-2.130,0.000
0.469,-0.113,-2.135,0.000
0.497,0.005,-2.217,0.000
0.541,0.168,-2.220,0.000
0.565,0.369,-2.316,0.000
0.607,0.397,-2.358,0.000
0.517,0.432,-2.198,0.000
0.422,0.383,-1.960,0.000
0.102,0.123,-1.399,0.000
-0.014,0.076,-0.969,0.000
0.084,-0.030,-0.212,0.000
0.101,-0.003,0.009,0.000
0.098,-0.002,0.009,0.000
0.294,0.055,-0.200,0.000
0.330,0.091,-0.075,0.000
0.249,0.179,-0.144,0.000
0.269,0.176,-0.141,0.000
-0.004,0.318,-0.229,0.000
-0.022,0.417,-0.252,0.000
0.017,0.469,-0.094,0.000
-0.018,0.560,0.437,0.000
0.015,0.603,0.721,0.000
0.006,0.599,0.721,0.000
-0.114,0.418,1.870,0.000
0.011,0.312,2.386,0.000
0.115,0.246,2.529,0.000
0.158,0.336,2.795,0.000
0.244,0.467,2.904,1.000
0.242,0.449,2.910,0.000
0.192,0.713,1.648,0.000
-0.207,0.664,1.196,0.000
-0.533,0.686,0.897,0.000
-0.775,0.856,0.393,0.000
-0.576,0.868,0.251,0.000
-0.178,0.802,0.384,0.000
0.068,0.607,0.675,0.000
0.506,0.070,1.882,0.000
0.713,-0.346,3.041,0.000
0.796,-0.814,4.540,0.000
0.545,-0.953,4.656,0.000
0.340,-1.099,3.280,0.000
0.304,-1.036,1.674,0.000
0.428,-0.736,-0.639,0.000
0.472,-0.833,-1.391,0.000
0.478,-0.771,-1.770,0.000
0.190,-0.832,-1.138,0.000
-0.132,-1.185,0.157,0.000
-0.237,-1.273,0.572,0.000
-0.405,-1.461,0.523,0.000
-0.429,-1.533,0.209,0.000
-0.056,-1.328,-0.607,0.000
0.212,-1.118,-1.073,0.000
0.565,-0.846,-1.750,0.000
0.641,-0.771,-2.000,0.000
0.695,-0.732,-2.217,0.000
0.574,-0.797,-2.019,0.000
0.195,-0.941,-1.270,0.000
0.009,-0.996,-0.966,0.000
-0.165,-0.905,-0.762,0.000
-0.202,-0.749,-0.834,0.000
-0.088,-0.418,-1.176,0.000
-0.001,-0.248,-1.455,0.000
-0.032,-0.139,-1.625,0.000
0.073,-0.086,-1.670,0.000
0.308,0.150,-2.023,0.000
0.261,0.244,-1.977,0.000
0.079,0.206,-1.587,0.000
-0.174,0.156,-1.341,0.000
-0.391,0.165,-1.004,0.000
-0.330,0.207,-0.939,0.000
-0.136,0.213,-0.591,0.000
-0.067,0.215,-0.086,0.000
-0.074,0.224,-0.089,0.000
0.086,0.304,0.703,0.000
0.070,0.240,1.187,0.000
0.026,0.223,1.120,0.000
-0.048,0.268,0.861,0.000
-0.045,0.193,0.804,0.000
-0.047,0.263,0.789,0.000
0.048,0.348,1.061,0.000
0.373,0.458,1.676,0.000
0.505,0.686,1.920,0.000
0.561,0.862,2.278,0.000
0.514,0.919,2.216,0.000
0.413,0.709,1.708,0.000
0.409,0.552,1.340,1.000
0.179,0.371,1.255,0.000
0.044,0.314,1.368,0.000
-0.046,0.414,1.519,0.000
-0.062,0.500,1.360,0.000
0.264,0.547,0.992,0.000
0.708,0.495,0.869,0.000
0.711,0.512,0.863,0.000
1.499,-0.176,2.019,0.000
1.440,-0.706,3.378,0.000
0.971,-0.957,3.616,0.000
0.009,-1.485,2.871,0.000
-0.138,-1.537,1.992,0.000
-0.078,-1.421,0.139,0.000
-0.016,-1.259,-0.713,0.000
0.169,-0.977,-1.296,0.000
0.128,-0.900,-1.102,0.000
0.141,-0.760,-0.928,0.000
0.180,-0.663,-0.963,0.000
0.215,-0.608,-1.126,0.000
0.319,-0.563,-1.148,0.000
0.415,-0.537,-0.866,0.000
0.426,-0.532,-0.598,0.000
0.356,-0.551,-0.169,0.000
0.322,-0.548,-0.101,0.000
0.266,-0.620,-0.368,0.000
0.217,-0.687,-0.674,0.000
0.285,-0.620,-0.987,0.000
0.369,-0.497,-1.116,0.000
0.538,-0.278,-1.264,0.000
0.656,-0.113,-1.290,0.000
0.703,0.162,-1.532,0.000
0.721,0.332,-1.707,0.000
0.717,0.408,-2.045,0.000
0.717,0.441,-2.250,0.000
0.793,0.532,-2.310,0.000
0.825,0.538,-2.290,0.000
0.686,0.469,-1.834,0.000
0.651,0.462,-1.287,0.000
0.645,0.466,-0.442,0.000
0.560,0.439,-0.180,0.000
0.376,0.308,-0.023,0.000
0.288,0.298,0.056,0.000
0.268,0.240,0.230,0.000
0.247,0.306,0.343,0.000
0.188,0.452,0.394,0.000
0.256,0.529,0.261,0.000
0.346,0.609,0.066,0.000
0.302,0.597,0.070,0.000
0.412,0.377,0.636,0.000
0.436,0.361,1.108,0.000
0.692,0.414,1.804,0.000
0.876,0.395,1.988,0.000
0.742,0.385,2.080,0.000
0.657,0.485,1.707,0.000
0.548,0.598,0.693,0.000
0.532,0.547,0.301,1.000
0.375,0.475,0.745,0.000
0.332,0.552,1.196,0.000
0.053,0.709,1.280,0.000
-0.097,0.724,0.834,0.000
-0.220,0.656,0.073,0.000
-0.312,0.516,-0.324,0.000
0.177,0.293,-0.559,0.000
0.520,0.085,0.114,0.000
0.800,-0.625,2.376,0.000
0.843,-0.883,3.433,0.000
0.106,-1.333,4.041,0.000
-0.321,-1.455,3.352,0.000
-0.179,-1.197,1.227,0.000
-0.053,-1.021,-0.009,0.000
-0.081,-0.846,-1.391,0.000
0.068,-0.701,-1.903,0.000
0.144,-0.486,-2.261,0.000
0.127,-0.461,-2.113,0.000
0.207,-0.523,-1.353,0.000
0.147,-0.631,-0.914,0.000
0.149,-0.754,-0.010,0.000
0.250,-0.784,0.406,0.000
0.399,-0.717,1.059,0.000
0.443,-0.639,1.281,0.000
0.558,-0.542,0.879,0.000
0.522,-0.506,0.517,0.000
0.418,-0.511,-0.133,0.000
0.296,-0.504,-0.538,0.000
0.050,-0.481,-1.160,0.000
-0.016,-0.425,-1.358,0.000
-0.012,-0.438,-1.354,0.000
0.218,-0.164,-1.655,0.000
0.382,0.032,-1.568,0.000
0.378,-0.029,-1.271,0.000
0.431,0.066,-0.943,0.000
0.488,0.115,-1.015,0.000
0.377,0.184,-1.305,0.000
0.283,0.156,-1.690,0.000
-0.020,0.185,-2.115,0.000
-0.142,0.184,-2.154,0.000
0.042,0.266,-1.988,0.000
0.063,0.277,-1.627,0.000
0.050,0.216,-0.927,0.000
0.215,0.231,-0.544,0.000
0.182,0.248,0.309,0.000
0.130,0.179,0.651,0.000
-0.049,0.165,1.044,0.000
-0.139,0.052,1.050,0.000
-0.244,-0.005,0.779,0.000
-0.354,-0.014,0.843,0.000
-0.391,-0.050,1.020,0.000
-0.335,-0.038,1.127,0.000
-0.321,0.117,1.299,0.000
-0.242,0.315,1.228,0.000
0.046,0.512,0.790,0.000
0.245,0.550,0.649,0.000
0.337,0.563,1.151,0.000
0.189,0.555,1.985,1.000
-0.196,0.455,2.996,0.000
-0.456,0.323,3.263,0.000
-0.497,0.430,2.561,0.000
-0.509,0.442,1.811,0.000
0.037,0.557,0.538,0.000
0.556,0.707,0.252,0.000
1.391,0.813,0.755,0.000
1.507,0.698,1.458,0.000
1.016,0.113,2.579,0.000
0.457,-0.278,2.598,0.000
-0.455,-0.754,2.148,0.000
-0.817,-1.106,1.814,0.000
-1.311,-1.487,0.733,0.000
-1.412,-1.435,0.079,0.000
-0.916,-1.077,-0.785,0.000
-0.626,-0.858,-0.864,0.000
-0.328,-0.655,-0.401,0.000
-0.222,-0.641,-0.209,0.000
-0.335,-0.778,-0.235,0.000
-0.474,-0.937,-0.226,0.000
-0.483,-1.104,-0.191,0.000
-0.376,-1.038,-0.235,0.000
-0.239,-1.116,-0.382,0.000
-0.025,-1.018,-0.576,0.000
0.719,-0.447,-1.092,0.000
0.968,-0.219,-1.211,0.000
1.034,-0.015,-1.366,0.000
0.917,0.069,-1.611,0.000
0.516,0.019,-2.216,0.000
0.284,-0.008,-2.483,0.000
0.021,-0.055,-2.681,0.000
-0.017,-0.028,-2.568,0.000
0.143,0.097,-2.309,0.000
0.300,0.238,-1.968,0.000
0.300,0.228,-1.964,0.000
0.499,0.325,-1.067,0.000
0.441,0.346,-0.819,0.000
0.352,0.289,-0.691,0.000
0.236,0.181,-0.389,0.000
0.170,0.084,-0.315,0.000
0.233,0.003,-0.203,0.000
0.298,-0.006,-0.037,0.000
0.248,0.075,0.420,0.000
0.135,0.082,0.704,0.000
0.013,0.152,0.890,0.000
-0.030,0.226,0.758,0.000
-0.023,0.300,0.620,0.000
-0.032,0.329,0.659,0.000
0.024,0.362,1.167,0.000
0.194,0.329,1.436,0.000
0.174,0.293,2.683,0.000
0.275,0.382,3.343,0.000
-0.038,0.477,3.350,0.000
0.003,0.515,2.505,1.000
0.015,0.610,1.141,0.000
-0.158,0.652,0.801,0.000
-0.224,1.012,0.320,0.000
-0.241,1.115,-0.097,0.000
-0.151,1.208,-0.822,0.000
-0.156,1.083,-1.043,0.000
0.351,0.597,-0.864,0.000
0.712,0.241,-0.010,0.000
1.293,-0.319,2.138,0.000
1.236,-0.621,3.301,0.000
0.705,-0.973,4.302,0.000
0.110,-1.210,3.872,0.000
-0.367,-1.152,1.670,0.000
-0.545,-1.206,0.505,0.000
-0.687,-1.231,-1.392,0.000
-0.758,-1.140,-1.944,0.000
-0.787,-1.110,-1.663,0.000
-0.663,-1.044,-1.035,0.000
-0.262,-0.888,-0.116,0.000
-0.052,-0.898,0.380,0.000
0.096,-1.010,0.714,0.000
0.123,-0.988,0.516,0.000
-0.043,-1.059,-0.099,0.000
-0.151,-1.126,-0.598,0.000
-0.151,-1.124,-0.599,0.000
-0.089,-1.094,-1.715,0.000
-0.128,-1.066,-1.545,0.000
-0.080,-1.015,-1.330,0.000
0.009,-0.819,-0.936,0.000
-0.033,-0.774,-0.884,0.000
-0.134,-0.643,-1.140,0.000
-0.186,-0.540,-1.341,0.000
-0.361,-0.396,-1.632,0.000
-0.307,-0.305,-1.818,0.000
-0.135,-0.103,-2.212,0.000
-0.146,-0.044,-2.334,0.000
-0.151,-0.049,-2.332,0.000
-0.168,0.043,-1.547,0.000
-0.246,0.025,-0.710,0.000
-0.336,0.037,-0.292,0.000
-0.547,-0.006,0.107,0.000
-0.517,-0.009,0.025,0.000
-0.480,-0.042,-0.281,0.000
-0.291,0.016,-0.292,0.000
-0.282,0.019,-0.293,0.000
-0.362,-0.105,0.084,0.000
-0.373,-0.025,0.675,0.000
-0.253,0.044,0.825,0.000
0.130,0.140,0.866,0.000
0.343,0.181,1.049,0.000
0.330,0.214,1.493,0.000
0.241,0.197,1.744,0.000
0.173,0.246,1.958,0.000
-0.005,0.354,1.832,0.000
-0.160,0.415,1.313,0.000
0.009,0.476,0.988,0.000
0.340,0.519,0.920,0.000
0.463,0.566,1.274,1.000
0.381,0.640,1.885,0.000
0.295,0.725,2.081,0.000
-0.029,0.517,2.188,0.000
-0.121,0.625,1.665,0.000
-0.068,0.516,0.783,0.000
0.156,0.318,0.455,0.000
0.587,0.086,0.740,0.000
0.654,-0.143,1.569,0.000
0.527,-0.599,2.895,0.000
0.519,-0.555,2.881,0.000
0.183,-0.700,2.485,0.000
0.144,-0.699,1.673,0.000
0.320,-0.500,0.326,0.000
0.459,-0.436,-0.379,0.000
0.515,-0.303,-0.819,0.000
0.424,-0.321,-0.687,0.000
0.256,-0.475,-0.281,0.000
0.260,-0.571,-0.184,0.000
0.260,-0.697,-0.050,0.000
0.293,-0.794,0.071,0.000
0.331,-0.937,0.032,0.000
0.430,-0.885,-0.084,0.000
0.616,-0.831,-0.352,0.000
0.649,-0.800,-0.615,0.000
0.657,-0.661,-1.281,0.000
0.605,-0.622,-1.562,0.000
0.558,-0.440,-2.266,0.000
0.506,-0.299,-2.567,0.000
0.621,-0.038,-2.809,0.000
0.633,0.146,-2.825,0.000
0.652,0.348,-2.700,0.000
0.679,0.398,-2.563,0.000
0.603,0.433,-2.082,0.000
0.420,0.361,-1.776,0.000
0.253,0.310,-1.174,0.000
0.252,0.284,-0.911,0.000
0.239,0.264,-0.905,0.000
0.387,0.530,-0.970,0.000
0.361,0.549,-1.110,0.000
0.416,0.604,-0.958,0.000
0.579,0.698,-0.232,0.000
0.624,0.682,0.266,0.000
0.509,0.672,0.773,0.000
0.149,0.574,1.137,0.000
-0.350,0.230,1.624,0.000
-0.563,0.044,1.778,0.000
-0.550,0.025,1.785,0.000
-0.402,0.101,1.937,0.000
-0.028,0.440,1.686,0.000
0.135,0.527,1.546,0.000
-0.005,0.479,1.262,0.000
0.003,0.624,1.185,0.000
0.118,0.641,1.460,0.000
0.319,0.663,1.662,1.000
0.549,0.807,1.900,0.000
0.506,0.840,1.952,0.000
0.149,0.858,1.929,0.000
-0.188,0.699,1.632,0.000
-0.881,0.458,0.874,0.000
-1.056,0.322,0.544,0.000
-0.745,-0.037,0.343,0.000
-0.280,-0.136,0.494,0.000
0.448,-0.642,1.941,0.000
0.820,-0.849,2.972,0.000
0.606,-1.086,3.483,0.000
0.009,-1.355,3.171,0.000
-0.587,-1.653,1.540,0.000
-0.679,-1.586,0.488,0.000
-0.577,-1.385,-0.492,0.000
-0.457,-1.123,-0.825,0.000
-0.223,-0.829,-1.055,0.000
-0.010,-0.620,-1.154,0.000
0.276,-0.472,-1.442,0.000
0.277,-0.497,-1.532,0.000
0.167,-0.712,-1.324,0.000
0.050,-0.948,-1.060,0.000
-0.198,-1.209,-0.682,0.000
-0.331,-1.331,-0.554,0.000
-0.291,-1.324,-0.599,0.000
-0.117,-1.183,-0.803,0.000
0.323,-0.839,-1.384,0.000
0.467,-0.648,-1.770,0.000
0.714,-0.236,-2.183,0.000
0.832,-0.122,-2.450,0.000
0.641,0.023,-2.779,0.000
0.390,0.018,-2.711,0.000
-0.037,-0.093,-2.255,0.000
-0.211,-0.146,-2.076,0.000
-0.221,-0.143,-2.077,0.000
-0.528,-0.271,-1.657,0.000
-0.427,-0.137,-1.476,0.000
-0.324,-0.047,-1.271,0.000
-0.003,0.117,-0.931,0.000
0.029,0.213,-0.762,0.000
-0.007,0.147,-0.492,0.000
-0.076,0.072,-0.294,0.000
-0.198,0.020,0.192,0.000
-0.307,-0.062,0.427,0.000
-0.291,-0.044,0.421,0.000
-0.461,-0.089,1.007,0.000
-0.322,-0.158,1.045,0.000
-0.278,-0.166,1.017,0.000
-0.004,-0.006,1.260,0.000
0.184,0.089,1.419,0.000
0.332,0.237,1.817,0.000
0.548,0.364,2.207,0.000
0.906,0.680,2.641,0.000
0.934,0.760,2.636,1.000
0.898,0.579,1.934,0.000
0.850,0.492,1.604,0.000
0.646,0.443,1.588,0.000
0.475,0.444,1.728,0.000
0.201,0.420,1.941,0.000
0.034,0.439,1.950,0.000
0.218,0.585,1.666,0.000
0.721,0.607,1.182,0.000
1.675,0.718,0.501,0.000
2.146,0.696,0.544,0.000
2.256,0.181,1.757,0.000
1.762,-0.236,2.436,0.000
0.795,-0.949,2.961,0.000
0.520,-1.122,2.832,0.000
0.120,-1.384,2.473,0.000
-0.007,-1.484,1.779,0.000
-0.027,-1.230,0.324,0.000
0.250,-1.083,-0.446,0.000
0.580,-0.941,-0.952,0.000
0.738,-0.931,-0.843,0.000
1.026,-0.994,-0.558,0.000
1.071,-1.070,-0.459,0.000
1.069,-1.054,-0.465,0.000
0.777,-1.364,-0.258,0.000
0.329,-1.476,0.239,0.000
0.133,-1.454,0.420,0.000
0.272,-1.246,-0.050,0.000
0.695,-0.767,-0.975,0.000
1.007,-0.323,-2.254,0.000
1.230,-0.099,-2.861,0.000
1.459,0.368,-3.587,0.000
1.449,0.475,-3.660,0.000
1.118,0.430,-3.134,0.000
0.798,0.288,-2.716,0.000
0.214,0.184,-2.014,0.000
0.030,0.192,-1.733,0.000
-0.146,0.386,-1.469,0.000
-0.191,0.454,-1.290,0.000
-0.197,0.444,-1.287,0.000
0.220,0.739,-0.898,0.000
0.595,1.007,-0.752,0.000
0.760,1.079,-0.539,0.000
0.916,0.974,-0.103,0.000
0.852,0.846,0.224,0.000
0.822,0.664,0.949,0.000
0.803,0.482,1.299,0.000
0.701,0.378,1.778,0.000
0.799,0.356,1.910,0.000
0.926,0.182,1.614,0.000
0.908,0.124,1.349,0.000
0.927,0.093,1.363,0.000
0.974,0.101,0.899,0.000
0.983,0.064,0.915,0.000
1.244,0.241,1.815,0.000
1.066,0.380,1.537,0.000
1.286,0.609,1.156,0.000
1.959,0.588,0.324,0.000
2.021,0.597,0.222,1.000
1.617,0.534,0.657,0.000
1.054,0.322,1.009,0.000
0.340,0.023,1.275,0.000
0.179,0.008,1.333,0.000
0.578,0.211,1.388,0.000
1.147,0.355,1.346,0.000
2.080,0.414,1.930,0.000
2.253,0.146,2.647,0.000
2.032,-0.447,3.604,0.000
1.541,-0.753,3.823,0.000
1.124,-0.963,2.501,0.000
0.918,-0.947,1.160,0.000
0.810,-0.892,-0.597,0.000
0.869,-0.850,-1.234,0.000
0.645,-0.800,-1.436,0.000
0.486,-0.828,-1.111,0.000
0.657,-0.706,-0.568,0.000
0.910,-0.609,-0.570,0.000
1.305,-0.455,-0.707,0.000
1.422,-0.515,-0.758,0.000
1.399,-0.515,-0.760,0.000
1.257,-0.835,-0.395,0.000
1.163,-0.992,0.023,0.000
1.031,-1.111,-0.074,0.000
0.732,-1.225,-0.715,0.000
0.684,-1.252,-1.136,0.000
0.582,-1.266,-1.742,0.000
0.547,-1.184,-1.922,0.000
0.680,-0.906,-1.989,0.000
0.785,-0.756,-1.879,0.000
0.828,-0.548,-1.498,0.000
0.754,-0.494,-1.394,0.000
0.473,-0.447,-1.208,0.000
0.378,-0.374,-1.186,0.000
0.421,-0.168,-1.190,0.000
0.484,-0.088,-1.233,0.000
0.451,-0.054,-1.432,0.000
0.382,-0.037,-1.472,0.000
0.309,-0.082,-1.342,0.000
0.240,-0.096,-1.258,0.000
0.200,-0.092,-0.932,0.000
0.203,-0.081,-0.640,0.000
0.266,0.043,-0.236,0.000
0.349,0.185,-0.125,0.000
0.446,0.484,-0.013,0.000
0.476,0.594,-0.001,0.000
0.678,0.782,-0.178,0.000
0.811,0.910,-0.184,0.000
0.990,0.896,0.040,0.000
1.150,0.827,0.430,0.000
1.109,0.708,1.433,0.000
0.993,0.587,2.043,0.000
0.603,0.321,2.869,0.000
0.359,0.265,2.871,0.000
0.161,0.266,1.956,0.000
0.245,0.259,1.209,1.000
0.557,0.119,0.565,0.000
0.699,0.134,0.721,0.000
0.697,0.131,0.722,0.000
0.514,0.318,1.930,0.000
0.442,0.549,2.215,0.000
0.498,0.669,2.068,0.000
1.353,0.629,1.514,0.000
1.993,0.601,1.308,0.000
2.589,0.286,2.644,0.000
2.520,-0.097,3.921,0.000
2.020,-0.720,5.396,0.000
1.618,-0.981,5.311,0.000
0.943,-1.402,3.962,0.000
0.758,-1.524,2.561,0.000
0.958,-1.321,0.336,0.000
1.071,-1.101,-0.630,0.000
0.825,-1.097,-1.205,0.000
0.868,-1.060,-1.539,0.000
0.885,-0.891,-1.925,0.000
0.868,-0.929,-1.939,0.000
0.823,-1.105,-1.638,0.000
0.763,-1.137,-1.290,0.000
0.684,-1.187,-0.598,0.000
0.782,-1.151,-0.351,0.000
0.877,-1.046,-0.370,0.000
0.907,-0.938,-0.632,0.000
0.893,-0.775,-1.103,0.000
0.955,-0.674,-1.493,0.000
1.039,-0.347,-2.180,0.000
1.147,-0.097,-2.403,0.000
1.144,0.174,-2.203,0.000
1.103,0.335,-2.117,0.000
0.585,0.280,-1.886,0.000
0.312,0.178,-1.535,0.000
0.102,0.154,-0.963,0.000
0.044,0.154,-0.555,0.000
0.060,0.168,0.005,0.000
0.207,0.231,0.153,0.000
0.183,0.210,0.157,0.000
0.373,0.431,-0.223,0.000
0.707,0.572,-0.328,0.000
0.743,0.595,-0.333,0.000
0.512,0.629,-0.034,0.000
0.386,0.492,0.164,0.000
-0.157,0.222,0.876,0.000
-0.419,0.113,1.264,0.000
-0.524,0.158,1.461,0.000
-0.511,0.180,1.539,0.000
-0.518,0.152,1.548,0.000
-0.357,0.347,1.252,0.000
-0.093,0.502,1.341,0.000
0.205,0.583,1.689,0.000
0.239,0.641,2.253,0.000
0.162,0.645,2.396,0.000
0.157,0.615,2.406,0.000
0.341,0.402,1.443,1.000
0.031,0.260,1.082,0.000
-0.108,0.347,1.177,0.000
-0.113,0.314,1.188,0.000
-0.228,0.661,0.302,0.000
0.020,1.010,-0.726,0.000
0.338,1.187,-1.149,0.000
1.017,1.265,-1.297,0.000
1.333,1.111,-1.301,0.000
1.239,0.440,-0.052,0.000
1.028,-0.107,0.904,0.000
0.465,-0.696,1.916,0.000
-0.147,-1.018,2.276,0.000
-0.524,-1.388,2.474,0.000
-0.532,-1.295,1.762,0.000
-0.469,-1.103,-0.156,0.000
-0.304,-0.930,-1.025,0.000
0.193,-0.579,-2.000,0.000
0.174,-0.579,-2.002,0.000
0.518,-0.403,-2.059,0.000
0.542,-0.447,-1.696,0.000
0.406,-0.725,-0.590,0.000
0.234,-0.997,-0.113,0.000
-0.115,-1.166,0.168,0.000
-0.054,-1.132,0.003,0.000
0.391,-0.950,-0.524,0.000
0.692,-0.697,-0.818,0.000
0.678,-0.694,-0.821,0.000
1.256,-0.110,-1.372,0.000
1.195,0.074,-1.540,0.000
1.011,0.070,-1.413,0.000
0.500,0.036,-1.332,0.000
0.192,-0.023,-1.288,0.000
0.199,-0.007,-1.293,0.000
-0.109,-0.132,-1.474,0.000
0.016,-0.090,-1.670,0.000
0.113,-0.001,-1.669,0.000
0.474,0.298,-1.649,0.000
0.566,0.390,-1.463,0.000
0.547,0.551,-1.172,0.000
0.411,0.514,-1.096,0.000
0.082,0.399,-0.879,0.000
0.041,0.337,-0.651,0.000
0.027,0.267,-0.021,0.000
-0.024,0.266,0.463,0.000
-0.028,0.272,0.461,0.000
-0.018,0.330,1.013,0.000
-0.077,0.373,1.413,0.000
-0.027,0.349,1.640,0.000
0.130,0.408,1.600,0.000
0.246,0.419,1.584,0.000
0.559,0.582,1.625,0.000
0.715,0.643,1.515,0.000
0.674,0.785,1.246,0.000
0.565,0.717,1.049,0.000
0.416,0.590,0.605,0.000
0.295,0.527,0.525,1.000
0.304,0.524,0.527,0.000
-0.321,0.162,1.046,0.000
-0.308,0.270,1.050,0.000
-0.223,0.446,0.922,0.000
0.017,0.715,0.470,0.000
0.356,0.798,0.211,0.000
1.231,0.730,-0.028,0.000
1.589,0.636,0.335,0.000
1.697,0.092,2.073,0.000
1.590,-0.246,3.235,0.000
1.008,-0.663,4.187,0.000
0.565,-0.919,4.158,0.000
0.379,-0.962,2.799,0.000
0.426,-0.804,1.330,0.000
0.709,-0.549,-0.992,0.000
0.881,-0.411,-1.656,0.000
1.302,-0.100,-2.001,0.000
1.426,-0.033,-1.896,0.000
1.523,-0.004,-1.420,0.000
1.507,-0.086,-0.911,0.000
1.346,-0.356,-0.165,0.000
0.984,-0.588,0.059,0.000
0.417,-0.884,0.349,0.000
0.220,-1.040,0.447,0.000
0.345,-0.994,0.130,0.000
0.582,-0.860,-0.409,0.000
0.917,-0.578,-1.390,0.000
1.019,-0.391,-1.714,0.000
1.080,-0.166,-1.764,0.000
1.045,-0.053,-1.743,0.000
0.834,0.074,-1.810,0.000
0.741,0.052,-1.873,0.000
0.751,0.041,-1.870,0.000
0.579,0.184,-1.686,0.000
0.579,0.169,-1.682,0.000
0.676,0.275,-1.574,0.000
1.007,0.529,-1.646,0.000
1.072,0.599,-1.588,0.000
1.058,0.670,-1.105,0.000
0.972,0.594,-0.720,0.000
0.971,0.601,-0.723,0.000
0.509,0.303,0.130,0.000
0.072,0.042,0.477,0.000
-0.133,-0.017,0.622,0.000
-0.234,-0.066,0.592,0.000
-0.152,0.078,0.639,0.000
-0.052,0.216,0.978,0.000
-0.074,0.307,1.172,0.000
-0.000,0.441,1.445,0.000
0.161,0.519,1.499,0.000
0.174,0.579,1.876,0.000
0.189,0.479,2.229,0.000
0.183,0.587,2.239,0.000
0.210,0.643,1.964,0.000
0.711,0.656,1.108,0.000
0.493,0.589,0.950,1.000
-0.337,0.371,1.111,0.000
-0.801,0.196,1.219,0.000
-0.803,0.177,1.225,0.000
-1.084,0.269,0.839,0.000
-0.772,0.519,0.828,0.000
-0.463,0.632,0.617,0.000
0.193,0.667,0.386,0.000
0.482,0.483,0.592,0.000
0.451,0.511,0.581,0.000
0.447,-0.166,2.164,0.000
0.084,-0.582,2.108,0.000
-0.302,-0.769,1.425,0.000
-0.637,-0.889,0.206,0.000
-0.625,-0.850,-0.361,0.000
-0.728,-0.783,-1.153,0.000
-0.583,-0.576,-1.360,0.000
-0.110,-0.248,-1.358,0.000
0.139,-0.140,-1.260,0.000
0.421,-0.082,-0.896,0.000
0.466,-0.200,-0.567,0.000
0.336,-0.461,-0.083,0.000
0.229,-0.574,-0.055,0.000
0.190,-0.534,-0.281,0.000
0.242,-0.445,-0.487,0.000
0.229,-0.355,-1.054,0.000
0.135,-0.291,-1.401,0.000
0.117,-0.265,-2.103,0.000
0.023,-0.223,-2.110,0.000
-0.073,-0.174,-1.583,0.000
-0.151,-0.092,-1.414,0.000
-0.210,0.087,-1.201,0.000
-0.231,0.193,-1.317,0.000
-0.215,0.444,-1.655,0.000
-0.124,0.593,-1.872,0.000
-0.131,0.712,-2.136,0.000
-0.201,0.722,-1.982,0.000
-0.261,0.780,-1.475,0.000
-0.263,0.751,-1.224,0.000
-0.538,0.685,-0.810,0.000
-0.637,0.622,-0.545,0.000
-0.577,0.631,-0.270,0.000
-0.483,0.682,-0.205,0.000
-0.378,0.683,-0.037,0.000
-0.212,0.679,0.092,0.000
-0.186,0.632,0.906,0.000
-0.189,0.590,1.387,0.000
-0.259,0.480,2.115,0.000
-0.214,0.442,2.301,0.000
-0.121,0.373,2.027,0.000
0.003,0.349,1.797,0.000
0.006,0.311,1.453,0.000
0.087,0.358,1.067,0.000
0.200,0.560,0.711,0.000
0.281,0.555,0.530,1.000
0.187,0.621,0.407,0.000
0.082,0.548,0.636,0.000
0.087,0.542,0.639,0.000
-0.783,0.207,1.852,0.000
-1.108,-0.053,2.243,0.000
-1.013,-0.114,2.231,0.000
-0.412,-0.040,2.271,0.000
0.250,-0.080,2.310,0.000
1.407,0.028,2.052,0.000
1.832,0.082,2.469,0.000
2.246,-0.041,3.401,0.000
2.070,-0.256,3.548,0.000
1.528,-0.652,2.450,0.000
1.181,-0.909,1.660,0.000
0.963,-1.154,0.918,0.000
0.878,-1.251,0.973,0.000
0.514,-1.361,1.139,0.000
0.497,-1.252,0.781,0.000
0.627,-1.034,0.009,0.000
0.751,-0.953,-0.461,0.000
0.986,-0.678,-0.994,0.000
1.118,-0.566,-1.148,0.000
1.186,-0.440,-1.263,0.000
1.156,-0.418,-1.447,0.000
1.069,-0.367,-1.911,0.000
1.024,-0.328,-2.145,0.000
1.043,-0.288,-2.438,0.000
1.009,-0.239,-2.422,0.000
0.906,-0.162,-2.446,0.000
0.875,-0.121,-2.552,0.000
0.758,0.033,-2.790,0.000
0.721,0.088,-3.005,0.000
0.739,0.281,-3.250,0.000
0.765,0.390,-3.218,0.000
0.719,0.442,-2.936,0.000
0.625,0.470,-2.486,0.000
0.635,0.476,-2.487,0.000
0.271,0.322,-1.120,0.000
0.135,0.353,-0.787,0.000
0.136,0.333,-0.585,0.000
0.300,0.324,-0.449,0.000
0.374,0.373,-0.563,0.000
0.496,0.483,-0.612,0.000
0.523,0.511,-0.506,0.000
0.700,0.650,-0.482,0.000
0.600,0.682,-0.126,0.000
0.600,0.687,-0.128,0.000
0.127,0.424,1.268,0.000
-0.375,0.157,2.035,0.000
-0.476,0.059,2.331,0.000
-0.288,0.133,2.717,0.000
-0.075,0.211,2.789,0.000
0.091,0.574,2.314,0.000
0.175,0.786,1.817,0.000
0.185,0.752,1.829,0.000
0.188,1.004,0.670,1.000
-0.181,1.031,0.199,0.000
-0.357,0.991,0.123,0.000
-0.639,0.819,0.141,0.000
-0.775,0.667,0.174,0.000
-0.613,0.340,0.575,0.000
-0.355,0.023,1.537,0.000
-0.405,0.069,1.518,0.000
0.374,-0.925,5.796,0.000
0.459,-1.132,6.554,0.000
0.594,-1.079,6.177,0.000
0.815,-0.766,3.275,0.000
0.632,-0.608,1.246,0.000
0.188,-0.667,-0.861,0.000
0.223,-0.575,-1.466,0.000
0.167,-0.549,-1.294,0.000
0.229,-0.527,-1.042,0.000
0.183,-0.522,-0.479,0.000
0.163,-0.643,-0.334,0.000
0.139,-0.648,-0.334,0.000
-0.029,-0.808,-1.022,0.000
0.015,-0.931,-1.570,0.000
0.106,-0.942,-1.730,0.000
0.195,-0.891,-1.597,0.000
0.043,-0.988,-1.210,0.000
-0.275,-1.179,-0.457,0.000
-0.440,-1.249,-0.406,0.000
-0.550,-1.186,-0.895,0.000
-0.464,-0.987,-1.485,0.000
-0.123,-0.479,-2.416,0.000
-0.006,-0.176,-2.742,0.000
0.257,0.264,-2.819,0.000
0.404,0.486,-2.953,0.000
0.389,0.762,-3.059,0.000
0.405,0.825,-3.004,0.000
0.290,0.830,-2.655,0.000
0.021,0.664,-2.148,0.000
-0.341,0.255,-1.345,0.000
-0.557,0.126,-1.022,0.000
-1.059,-0.099,-0.098,0.000
-1.134,-0.188,0.278,0.000
-0.887,-0.016,0.356,0.000
-0.675,0.207,0.127,0.000
-0.676,0.198,0.129,0.000
-0.134,0.806,-0.836,0.000
-0.031,0.986,-0.812,0.000
-0.076,0.960,-0.398,0.000
-0.248,0.731,0.428,0.000
-0.283,0.515,0.817,0.000
-0.288,0.519,0.815,0.000
-0.611,-0.026,2.215,0.000
-0.381,-0.040,2.779,0.000
-0.269,0.120,2.747,0.000
0.005,0.605,1.968,0.000
0.157,0.878,1.190,0.000
0.464,1.115,0.302,0.000
0.528,1.175,0.317,1.000
0.541,1.157,0.323,0.000
0.398,1.187,1.177,0.000
0.264,1.025,1.496,0.000
0.150,0.905,1.370,0.000
0.369,0.394,1.018,0.000
0.655,0.139,1.187,0.000
0.831,-0.503,3.048,0.000
0.873,-0.699,4.224,0.000
0.536,-0.967,5.710,0.000
0.347,-1.000,5.706,0.000
0.028,-1.244,4.248,0.000
-0.148,-1.334,2.749,0.000
-0.179,-1.225,0.449,0.000
-0.158,-1.213,-0.234,0.000
-0.347,-1.270,-0.869,0.000
-0.334,-1.207,-1.212,0.000
-0.194,-1.162,-1.710,0.000
0.006,-1.108,-1.774,0.000
0.552,-0.933,-1.617,0.000
0.708,-0.818,-1.361,0.000
0.811,-0.729,-0.858,0.000
0.885,-0.682,-0.706,0.000
1.104,-0.353,-0.781,0.000
1.245,-0.200,-1.056,0.000
1.256,-0.054,-2.026,0.000
1.180,-0.002,-2.413,0.000
1.040,0.012,-2.799,0.000
0.939,-0.031,-2.874,0.000
0.667,-0.144,-2.687,0.000
0.620,-0.170,-2.485,0.000
0.680,-0.055,-1.970,0.000
0.690,0.008,-1.506,0.000
0.698,0.011,-1.506,0.000
0.702,0.149,-0.727,0.000
0.594,0.167,-0.715,0.000
0.554,0.086,-0.785,0.000
0.500,0.065,-0.899,0.000
0.549,0.032,-0.883,0.000
0.689,0.058,-0.609,0.000
0.792,0.068,-0.354,0.000
0.905,0.049,0.118,0.000
0.824,-0.008,0.403,0.000
0.492,-0.110,0.703,0.000
0.257,-0.173,0.764,0.000
0.130,-0.173,0.541,0.000
0.195,-0.068,0.453,0.000
0.559,0.111,0.633,0.000
0.859,0.338,0.861,0.000
1.182,0.519,1.417,0.000
1.301,0.531,1.777,0.000
1.225,0.402,2.327,0.000
1.041,0.298,2.427,0.000
0.803,0.324,1.825,0.000
0.766,0.365,1.261,1.000
0.529,0.167,0.730,0.000
0.559,0.171,0.585,0.000
0.563,0.142,0.596,0.000
0.395,0.501,0.323,0.000
0.880,0.748,0.307,0.000
1.006,0.823,0.328,0.000
1.184,0.730,0.793,0.000
1.216,0.447,1.545,0.000
1.260,-0.213,3.248,0.000
1.258,-0.573,4.105,0.000
1.029,-0.995,5.016,0.000
0.612,-1.284,4.911,0.000
0.261,-1.461,2.855,0.000
0.340,-1.356,1.332,0.000
0.520,-1.064,-0.470,0.000
0.709,-0.940,-1.374,0.000
0.768,-0.910,-1.683,0.000
0.742,-0.908,-1.154,0.000
0.551,-1.099,-0.091,0.000
0.474,-1.259,0.449,0.000
0.507,-1.517,0.837,0.000
0.533,-1.564,0.716,0.000
0.464,-1.720,0.282,0.000
0.452,-1.734,-0.069,0.000
0.487,-1.642,-0.674,0.000
0.490,-1.595,-1.001,0.000
0.496,-1.612,-0.995,0.000
0.477,-1.140,-1.902,0.000
0.400,-0.878,-2.169,0.000
0.477,-0.691,-2.249,0.000
0.478,-0.343,-2.287,0.000
0.461,-0.245,-2.320,0.000
0.408,-0.133,-2.557,0.000
0.392,-0.090,-2.443,0.000
0.381,-0.097,-1.679,0.000
0.293,-0.106,-1.182,0.000
0.268,-0.080,-0.651,0.000
0.320,-0.016,-0.609,0.000
0.522,0.117,-0.745,0.000
0.528,0.149,-0.804,0.000
0.560,0.206,-0.773,0.000
0.464,0.179,-0.586,0.000
0.475,0.190,-0.589,0.000
0.073,-0.023,-0.469,0.000
0.084,-0.017,-0.470,0.000
-0.080,0.042,-0.173,0.000
0.034,0.270,-0.439,0.000
0.080,0.401,-0.534,0.000
0.295,0.759,-0.666,0.000
0.462,0.907,-0.672,0.000
0.686,0.903,-0.379,0.000
0.729,0.942,-0.050,0.000
0.834,0.837,0.928,0.000
0.846,0.637,1.237,0.000
0.726,0.458,1.602,0.000
0.511,0.141,1.992,0.000
0.149,0.032,1.777,0.000
-0.189,-0.012,1.334,1.000
-0.171,-0.024,1.340,0.000
0.029,-0.119,0.656,0.000
0.087,0.053,1.601,0.000
0.310,0.329,2.244,0.000
0.616,0.662,2.569,0.000
0.776,0.716,2.301,0.000
1.395,0.651,2.160,0.000
1.681,0.505,2.195,0.000
1.755,0.027,2.436,0.000
1.657,-0.275,2.561,0.000
1.230,-0.768,2.586,0.000
1.036,-0.890,2.464,0.000
0.852,-0.938,1.846,0.000
0.732,-0.819,1.448,0.000
0.558,-0.911,1.321,0.000
0.407,-1.057,1.290,0.000
-0.043,-1.182,1.137,0.000
-0.043,-1.225,0.849,0.000
-0.033,-1.211,0.846,0.000
0.321,-1.066,-0.406,0.000
0.741,-0.862,-0.901,0.000
0.897,-0.727,-0.760,0.000
1.092,-0.558,-0.376,0.000
1.018,-0.412,-0.375,0.000
0.756,-0.411,-0.644,0.000
0.595,-0.406,-0.772,0.000
0.398,-0.315,-1.072,0.000
0.422,-0.307,-1.270,0.000
0.434,-0.210,-1.222,0.000
0.558,-0.143,-1.275,0.000
0.748,0.033,-1.622,0.000
0.824,0.117,-1.678,0.000
0.932,0.189,-1.736,0.000
0.976,0.241,-1.733,0.000
0.990,0.213,-1.650,0.000
0.890,0.174,-1.538,0.000
0.738,0.054,-0.905,0.000
0.779,0.074,-0.429,0.000
0.977,0.164,-0.112,0.000
1.034,0.195,-0.220,0.000
0.977,0.240,-0.611,0.000
0.933,0.243,-0.671,0.000
0.917,0.256,-0.533,0.000
0.907,0.243,-0.329,0.000
0.804,0.190,0.281,0.000
0.717,0.189,0.566,0.000
0.638,0.196,1.085,0.000
0.664,0.235,1.361,0.000
0.580,0.251,1.562,0.000
0.581,0.262,1.475,0.000
0.649,0.394,0.945,0.000
0.789,0.458,0.603,0.000
0.796,0.427,0.614,0.000
1.059,0.378,0.393,0.000
1.001,0.169,0.822,0.000
1.020,0.099,0.921,0.000
1.009,0.092,1.081,0.000
1.089,0.171,1.224,1.000
1.075,0.127,1.237,0.000
1.077,0.389,1.271,0.000
1.271,0.645,1.008,0.000
1.390,0.750,1.032,0.000
1.414,0.835,1.359,0.000
1.282,0.806,1.450,0.000
0.873,0.538,1.157,0.000
0.541,0.233,0.923,0.000
0.143,-0.147,0.707,0.000
0.127,-0.194,0.647,0.000
0.121,-0.208,0.652,0.000
0.972,-0.202,0.894,0.000
1.478,-0.154,1.000,0.000
1.731,-0.122,1.039,0.000
1.698,-0.315,0.975,0.000
1.413,-0.516,0.767,0.000
0.860,-0.852,0.595,0.000
0.601,-0.959,0.661,0.000
0.330,-1.248,0.955,0.000
0.155,-1.392,0.926,0.000
-0.051,-1.466,0.490,0.000
0.065,-1.366,0.126,0.000
0.498,-1.074,-0.309,0.000
0.696,-0.974,-0.302,0.000
0.851,-0.918,-0.564,0.000
0.832,-0.916,-0.554,0.000
0.634,-1.242,-0.519,0.000
0.557,-1.249,-0.514,0.000
0.390,-1.310,-0.525,0.000
0.302,-1.328,-0.728,0.000
0.338,-1.213,-1.321,0.000
0.386,-1.066,-1.580,0.000
0.515,-0.708,-1.488,0.000
0.597,-0.525,-1.347,0.000
0.524,-0.350,-1.125,0.000
0.357,-0.409,-0.922,0.000
0.098,-0.544,-0.623,0.000
-0.019,-0.544,-0.545,0.000
-0.062,-0.477,-0.607,0.000
0.046,-0.414,-0.687,0.000
0.405,-0.070,-0.963,0.000
0.601,0.115,-1.084,0.000
0.945,0.415,-1.326,0.000
1.126,0.501,-1.557,0.000
1.005,0.349,-1.242,0.000
0.690,0.083,-0.655,0.000
0.305,-0.204,0.165,0.000
0.118,-0.364,0.374,0.000
-0.189,-0.417,0.703,0.000
-0.052,-0.312,0.757,0.000
0.267,0.001,-0.165,0.000
0.437,0.216,-0.847,0.000
0.624,0.497,-1.184,0.000
0.735,0.566,-0.960,0.000
0.695,0.564,0.061,0.000
0.523,0.456,0.767,0.000
0.254,0.003,1.778,0.000
0.069,-0.234,2.273,0.000
-0.058,-0.454,2.819,0.000
0.007,-0.544,2.891,0.000
0.155,-0.485,2.342,0.000
0.213,-0.444,1.688,1.000
0.158,-0.208,0.767,0.000
0.132,-0.069,0.518,0.000
0.070,-0.054,0.363,0.000
-0.178,0.028,0.760,0.000
-0.412,0.228,1.558,0.000
-0.355,0.309,1.749,0.000
-0.160,0.216,1.429,0.000
0.132,0.086,1.165,0.000
0.118,0.082,1.166,0.000
1.124,-0.228,0.823,0.000
1.657,-0.470,1.382,0.000
1.791,-0.622,1.880,0.000
1.727,-0.771,2.200,0.000
1.414,-0.820,1.974,0.000
0.628,-1.221,1.536,0.000
0.456,-1.232,1.145,0.000
0.240,-1.061,0.377,0.000
0.152,-1.071,0.070,0.000
0.168,-1.021,-0.111,0.000
0.345,-0.935,-0.247,0.000
0.650,-0.742,-0.350,0.000
0.844,-0.730,-0.507,0.000
1.175,-0.660,-0.742,0.000
1.305,-0.716,-0.833,0.000
1.416,-0.809,-0.710,0.000
1.353,-0.876,-0.456,0.000
1.282,-0.783,-0.228,0.000
1.340,-0.685,-0.249,0.000
1.473,-0.435,-0.620,0.000
1.497,-0.203,-1.015,0.000
1.503,-0.199,-1.016,0.000
1.319,0.117,-1.754,0.000
1.129,0.199,-1.833,0.000
1.065,0.231,-1.892,0.000
1.049,0.262,-1.959,0.000
1.063,0.273,-1.809,0.000
0.909,0.142,-1.393,0.000
0.766,0.081,-1.182,0.000
0.651,0.053,-0.834,0.000
0.671,0.022,-0.524,0.000
0.728,0.039,-0.094,0.000
0.698,0.037,0.115,0.000
0.747,0.131,0.584,0.000
0.797,0.160,0.797,0.000
0.662,0.188,0.949,0.000
0.611,0.207,0.827,0.000
0.563,0.207,0.484,0.000
0.669,0.288,0.164,0.000
0.725,0.297,0.183,0.000
0.747,0.281,0.462,0.000
0.707,0.329,0.754,0.000
0.696,0.286,0.826,0.000
0.724,0.581,0.635,0.000
0.873,0.757,0.688,0.000
0.882,0.747,0.692,0.000
1.447,1.001,1.123,0.000
1.728,0.951,1.110,0.000
1.782,0.831,1.122,1.000
1.784,0.808,1.129,0.000
1.996,0.558,1.134,0.000
2.011,0.541,1.141,0.000
1.268,0.147,2.247,0.000
0.391,-0.063,2.329,0.000
0.028,-0.158,1.805,0.000
-0.060,-0.089,0.688,0.000
-0.108,-0.144,0.411,0.000
0.302,0.137,0.142,0.000
0.737,0.416,-0.306,0.000
1.086,0.712,-1.272,0.000
1.314,0.854,-1.341,0.000
1.991,0.912,-1.132,0.000
2.259,0.841,-0.443,0.000
2.436,0.137,1.757,0.000
2.395,-0.334,3.039,0.000
1.370,-1.307,4.912,0.000
0.795,-1.813,5.736,0.000
0.134,-2.067,5.043,0.000
-0.150,-2.136,3.762,0.000
-0.280,-1.912,0.939,0.000
-0.145,-1.646,0.148,0.000
0.349,-1.151,-0.716,0.000
0.722,-0.846,-0.790,0.000
1.367,-0.401,-0.773,0.000
1.456,-0.434,-0.554,0.000
1.426,-0.783,-0.184,0.000
1.413,-0.920,-0.108,0.000
1.065,-1.292,-0.072,0.000
0.929,-1.494,-0.031,0.000
0.814,-1.565,-0.173,0.000
0.818,-1.524,-0.533,0.000
0.600,-1.490,-1.355,0.000
0.483,-1.399,-1.811,0.000
0.511,-1.192,-2.103,0.000
0.534,-1.135,-1.937,0.000
0.578,-0.976,-1.393,0.000
0.484,-1.013,-1.065,0.000
0.353,-0.993,-0.710,0.000
0.405,-0.977,-0.553,0.000
0.649,-0.835,-0.811,0.000
0.757,-0.704,-1.163,0.000
0.977,-0.443,-1.668,0.000
0.982,-0.339,-1.652,0.000
0.976,-0.321,-1.323,0.000
0.892,-0.296,-1.112,0.000
0.823,-0.224,-0.782,0.000
0.861,-0.151,-0.666,0.000
0.926,-0.063,-0.344,0.000
0.883,0.032,-0.157,0.000
0.882,0.054,-0.165,0.000
0.551,0.015,-0.056,0.000
0.581,0.073,-0.619,0.000
0.706,0.156,-0.755,0.000
0.880,0.211,-0.356,0.000
0.860,0.280,-0.005,0.000
0.860,0.301,-0.013,0.000
0.625,0.159,0.921,0.000
0.447,0.042,0.963,0.000
0.387,0.023,0.871,0.000
0.440,-0.134,0.912,0.000
0.608,-0.106,1.184,0.000
0.790,-0.091,1.968,0.000
0.923,-0.078,2.212,0.000
1.059,0.002,1.858,0.000
1.041,0.070,1.453,1.000
0.819,-0.034,0.892,0.000
0.618,-0.029,0.442,0.000
0.294,0.054,0.179,0.000
0.087,0.078,0.344,0.000
-0.069,0.018,0.982,0.000
-0.025,-0.150,1.311,0.000
0.300,-0.402,1.686,0.000
0.654,-0.666,2.004,0.000
1.629,-0.985,3.087,0.000
2.056,-1.010,3.697,0.000
2.254,-1.126,4.233,0.000
2.087,-1.270,4.129,0.000
1.585,-1.519,2.838,0.000
1.149,-1.631,2.012,0.000
0.713,-1.733,1.102,0.000
0.719,-1.620,0.741,0.000
0.866,-1.346,0.158,0.000
0.899,-1.362,-0.226,0.000
0.919,-1.372,-0.221,0.000
1.435,-0.980,-1.601,0.000
1.821,-0.728,-1.962,0.000
2.094,-0.569,-1.939,0.000
2.213,-0.595,-1.418,0.000
2.053,-0.746,-0.839,0.000
1.547,-1.025,0.047,0.000
1.255,-1.131,0.387,0.000
0.888,-1.123,0.451,0.000
0.821,-1.013,0.213,0.000
0.788,-0.863,-0.695,0.000
0.803,-0.655,-1.090,0.000
1.064,-0.395,-1.485,0.000
1.194,-0.164,-1.596,0.000
1.563,0.154,-1.734,0.000
1.745,0.292,-1.742,0.000
1.889,0.458,-1.638,0.000
1.789,0.401,-1.227,0.000
1.296,0.097,-0.413,0.000
1.007,-0.004,-0.114,0.000
0.621,-0.122,0.096,0.000
0.599,-0.141,0.071,0.000
0.863,0.133,-0.215,0.000
1.121,0.303,-0.324,0.000
1.470,0.585,-0.410,0.000
1.508,0.656,-0.400,0.000
1.510,0.666,-0.403,0.000
1.244,0.640,-0.662,0.000
0.889,0.532,-0.486,0.000
0.577,0.363,-0.080,0.000
0.291,0.305,0.314,0.000
0.308,0.379,0.452,0.000
0.567,0.673,0.393,0.000
0.744,0.913,0.116,0.000
0.872,1.156,-0.298,0.000
0.947,1.264,-0.454,0.000
0.901,1.319,-0.379,0.000
0.813,1.236,-0.078,0.000
0.677,1.122,0.520,0.000
0.540,1.012,1.077,0.000
0.218,0.796,1.923,0.000
-0.065,0.779,2.094,1.000
-0.344,0.666,1.895,0.000
-0.337,0.652,1.458,0.000
-0.187,0.709,1.122,0.000
0.021,0.758,1.300,0.000
0.082,0.901,1.811,0.000
0.182,0.948,1.974,0.000
0.263,1.002,1.469,0.000
0.288,0.990,0.988,0.000
0.283,0.999,0.984,0.000
0.263,0.620,0.990,0.000
0.255,0.650,0.981,0.000
-0.135,-0.066,2.291,0.000
-0.137,-0.467,2.525,0.000
-0.100,-0.697,2.474,0.000
0.070,-0.821,2.308,0.000
0.037,-0.815,2.190,0.000
-0.009,-0.845,1.293,0.000
-0.074,-0.738,0.561,0.000
-0.104,-0.596,-0.474,0.000
-0.061,-0.487,-0.914,0.000
-0.147,-0.353,-0.846,0.000
-0.120,-0.321,-0.679,0.000
-0.146,-0.290,-0.743,0.000
-0.232,-0.337,-0.890,0.000
-0.384,-0.495,-1.115,0.000
-0.427,-0.621,-1.230,0.000
-0.399,-0.612,-1.295,0.000
-0.278,-0.556,-1.333,0.000
-0.149,-0.397,-1.300,0.000
-0.141,-0.320,-1.315,0.000
-0.225,-0.296,-1.494,0.000
-0.260,-0.310,-1.542,0.000
-0.184,-0.321,-1.391,0.000
-0.187,-0.296,-1.177,0.000
-0.196,-0.292,-1.178,0.000
-0.584,-0.493,-0.557,0.000
-0.894,-0.595,-0.584,0.000
-0.853,-0.549,-0.669,0.000
-0.484,-0.167,-0.859,0.000
-0.243,0.068,-0.926,0.000
0.038,0.403,-1.122,0.000
0.126,0.565,-1.410,0.000
0.293,0.780,-1.994,0.000
0.271,0.799,-2.177,0.000
0.048,0.740,-2.078,0.000
-0.208,0.605,-1.781,0.000
-0.495,0.444,-1.090,0.000
-0.591,0.402,-0.793,0.000
-0.795,0.345,-0.240,0.000
-0.860,0.312,0.234,0.000
-0.730,0.576,0.470,0.000
-0.666,0.722,0.305,0.000
-0.511,0.901,-0.048,0.000
-0.408,0.981,-0.342,0.000
-0.421,0.989,-0.142,0.000
-0.472,0.833,0.434,0.000
-0.564,0.610,1.472,0.000
-0.524,0.513,1.687,0.000
-0.423,0.401,1.775,0.000
-0.566,0.290,2.008,0.000
-0.638,0.141,2.180,0.000
-0.765,0.248,1.954,1.000
-0.992,0.443,1.145,0.000
-0.966,0.490,0.622,0.000
-0.951,0.478,0.626,0.000
-0.862,0.436,0.177,0.000
-0.810,0.447,0.720,0.000
-0.864,0.367,1.145,0.000
-0.865,0.165,1.322,0.000
-0.742,0.076,1.325,0.000
-0.572,-0.120,1.333,0.000
-0.353,-0.208,1.236,0.000
-0.014,-0.364,1.282,0.000
0.132,-0.453,1.654,0.000
0.408,-0.515,2.380,0.000
0.295,-0.543,2.431,0.000
-0.059,-0.786,2.096,0.000
-0.185,-0.854,1.687,0.000
-0.170,-0.979,1.067,0.000
-0.069,-0.862,0.553,0.000
0.224,-0.612,0.140,0.000
0.449,-0.438,0.239,0.000
0.814,-0.126,-0.043,0.000
0.933,0.006,-0.437,0.000
0.926,-0.018,-0.942,0.000
0.818,-0.104,-1.100,0.000
0.432,-0.376,-1.086,0.000
0.202,-0.533,-0.921,0.000
-0.055,-0.697,-0.624,0.000
-0.077,-0.717,-0.573,0.000
0.095,-0.564,-0.706,0.000
0.181,-0.476,-0.922,0.000
0.362,-0.224,-1.627,0.000
0.342,-0.036,-2.071,0.000
0.235,0.132,-2.403,0.000
0.283,0.218,-2.453,0.000
0.247,0.407,-2.389,0.000
0.222,0.451,-2.270,0.000
0.116,0.444,-1.813,0.000
-0.020,0.364,-1.597,0.000
-0.126,0.271,-1.208,0.000
-0.114,0.231,-1.109,0.000
-0.193,0.157,-1.152,0.000
-0.174,0.186,-1.228,0.000
0.101,0.382,-1.094,0.000
0.298,0.538,-0.956,0.000
0.362,0.662,-0.696,0.000
0.292,0.680,-0.617,0.000
0.198,0.724,-0.447,0.000
0.005,0.673,-0.312,0.000
-0.367,0.560,-0.179,0.000
-0.443,0.554,-0.073,0.000
-0.555,0.554,0.144,0.000
-0.472,0.641,0.270,0.000
-0.281,0.774,0.617,0.000
-0.161,0.850,0.838,0.000
-0.130,0.965,1.273,0.000
-0.212,0.889,1.602,0.000
-0.423,0.740,1.858,0.000
-0.608,0.611,1.835,0.000
-0.730,0.563,1.563,0.000
-0.775,0.572,1.349,1.000
-0.847,0.587,1.104,0.000
-0.771,0.653,1.095,0.000
-0.864,0.616,1.270,0.000
-1.114,0.588,1.289,0.000
-1.400,0.381,1.288,0.000
-1.357,0.141,1.439,0.000
-1.126,-0.165,2.574,0.000
-0.758,-0.275,3.264,0.000
-0.452,-0.591,4.520,0.000
-0.429,-0.833,5.000,0.000
-0.646,-1.209,4.708,0.000
-0.917,-1.358,3.745,0.000
-1.168,-1.368,1.374,0.000
-1.191,-1.294,0.061,0.000
-1.369,-1.401,-1.200,0.000
-1.246,-1.279,-1.671,0.000
-1.294,-1.294,-1.943,0.000
-1.118,-1.137,-2.111,0.000
-0.651,-0.727,-2.117,0.000
-0.462,-0.673,-1.972,0.000
-0.409,-0.731,-1.551,0.000
-0.680,-0.929,-1.045,0.000
-1.086,-1.439,-0.334,0.000
-1.133,-1.543,-0.210,0.000
-1.108,-1.650,-0.053,0.000
-1.035,-1.668,-0.032,0.000
-0.736,-1.433,-0.288,0.000
-0.518,-1.122,-0.575,0.000
-0.330,-0.872,-1.297,0.000
-0.179,-0.639,-1.719,0.000
-0.024,-0.371,-2.416,0.000
-0.020,-0.267,-2.663,0.000
-0.059,-0.126,-2.602,0.000
-0.130,-0.129,-2.337,0.000
-0.367,-0.139,-1.901,0.000
-0.492,-0.205,-1.803,0.000
-0.606,-0.234,-1.806,0.000
-0.647,-0.228,-1.781,0.000
-0.660,-0.188,-1.583,0.000
-0.618,-0.103,-1.455,0.000
-0.512,0.025,-1.294,0.000
-0.460,0.157,-1.241,0.000
-0.402,0.314,-0.990,0.000
-0.428,0.369,-0.600,0.000
-0.541,0.443,-0.048,0.000
-0.552,0.457,-0.052,0.000
-0.816,0.454,0.411,0.000
-0.846,0.459,0.711,0.000
-0.721,0.461,0.996,0.000
-0.636,0.418,1.088,0.000
-0.440,0.388,1.220,0.000
-0.311,0.359,1.398,0.000
-0.174,0.489,1.860,0.000
-0.070,0.610,1.770,0.000
-0.036,0.833,1.277,0.000
-0.017,0.914,0.981,0.000
-0.095,0.941,0.676,0.000
-0.135,0.978,0.617,1.000
-0.036,0.951,0.838,0.000
-0.027,0.834,1.323,0.000
0.012,0.409,2.226,0.000
0.094,0.152,2.699,0.000
0.275,-0.228,3.487,0.000
0.459,-0.481,4.411,0.000
0.458,-0.720,5.662,0.000
0.360,-0.681,6.268,0.000
0.179,-0.955,6.200,0.000
-0.001,-1.063,5.349,0.000
-0.210,-1.174,2.775,0.000
-0.134,-1.176,1.496,0.000
0.007,-1.005,0.235,0.000
-0.098,-1.053,-0.192,0.000
-0.150,-1.117,-0.636,0.000
0.093,-1.020,-0.657,0.000
0.555,-0.765,-0.535,0.000
0.805,-0.619,-0.582,0.000
1.000,-0.444,-0.690,0.000
0.918,-0.507,-0.575,0.000
0.444,-0.777,-0.280,0.000
0.191,-0.948,-0.321,0.000
0.216,-0.970,-0.314,0.000
-0.045,-1.060,-1.015,0.000
0.193,-0.816,-1.650,0.000
0.328,-0.635,-1.917,0.000
0.654,-0.377,-2.124,0.000
0.991,-0.096,-2.355,0.000
1.116,0.224,-2.771,0.000
1.036,0.182,-2.749,0.000
0.620,-0.019,-2.394,0.000
0.268,-0.275,-2.139,0.000
-0.036,-0.515,-1.763,0.000
-0.015,-0.530,-1.517,0.000
0.241,-0.378,-1.579,0.000
0.485,-0.201,-1.798,0.000
0.813,0.047,-2.134,0.000
0.901,0.132,-2.238,0.000
1.021,0.206,-2.281,0.000
1.013,0.239,-2.155,0.000
1.125,0.219,-1.465,0.000
1.162,0.236,-1.154,0.000
0.668,0.133,-0.490,0.000
0.643,0.108,-0.484,0.000
0.719,0.103,-0.230,0.000
0.550,0.015,0.121,0.000
0.414,-0.047,0.645,0.000
0.575,-0.027,0.954,0.000
0.533,0.252,1.543,0.000
0.498,0.256,1.869,0.000
0.752,0.481,1.692,0.000
0.686,0.552,1.612,0.000
0.592,0.540,1.417,0.000
0.455,0.615,1.365,0.000
0.382,0.635,1.195,0.000
0.197,0.663,1.127,1.000
-0.380,0.716,0.890,0.000
-0.664,0.741,0.800,0.000
-0.961,0.678,0.496,0.000
-1.021,0.554,0.591,0.000
-0.575,0.280,1.332,0.000
-0.178,0.160,1.896,0.000
0.661,-0.026,2.962,0.000
0.813,-0.299,4.033,0.000
0.356,-0.896,5.156,0.000
-0.252,-1.202,4.744,0.000
-0.612,-1.203,2.399,0.000
-0.541,-1.185,0.722,0.000
-0.434,-1.046,-1.044,0.000
-0.122,-0.827,-1.482,0.000
0.033,-0.724,-0.774,0.000
0.012,-0.697,-0.785,0.000
0.204,-0.631,0.913,0.000
0.105,-0.762,0.906,0.000
-0.037,-0.932,0.300,0.000
0.023,-1.035,-0.047,0.000
0.179,-1.165,-0.309,0.000
0.108,-1.249,-0.468,0.000
0.057,-1.373,-0.997,0.000
-0.133,-1.482,-1.452,0.000
-0.290,-1.432,-2.066,0.000
-0.153,-1.250,-2.489,0.000
-0.056,-1.075,-2.818,0.000
0.046,-0.921,-2.670,0.000
0.393,-0.506,-2.335,0.000
0.421,-0.415,-2.123,0.000
0.256,-0.258,-1.933,0.000
0.018,-0.245,-1.815,0.000
-0.312,-0.403,-1.570,0.000
-0.493,-0.382,-1.395,0.000
-0.556,-0.261,-1.125,0.000
-0.398,-0.105,-1.032,0.000
-0.007,0.166,-1.156,0.000
0.062,0.283,-1.148,0.000
0.140,0.317,-0.941,0.000
0.015,0.372,-0.706,0.000
-0.153,0.271,-0.069,0.000
-0.231,0.182,0.062,0.000
-0.553,0.070,0.033,0.000
-0.803,-0.042,0.055,0.000
-1.101,-0.037,0.206,0.000
-1.062,0.113,0.226,0.000
-1.040,0.125,0.223,0.000
-0.636,0.642,0.172,0.000
-0.422,0.718,0.395,0.000
-0.220,0.914,0.990,0.000
0.269,0.991,2.136,0.000
0.398,1.037,2.324,0.000
-0.032,0.950,2.940,0.000
-0.176,0.944,2.814,1.000
-0.145,0.943,2.815,0.000
-0.487,0.540,1.673,0.000
-0.682,0.616,1.119,0.000
-0.485,0.420,1.274,0.000
-0.473,0.410,1.278,0.000
-0.010,0.212,1.315,0.000
0.469,0.045,1.323,0.000
0.908,-0.090,1.250,0.000
1.304,-0.542,2.197,0.000
1.287,-0.956,3.231,0.000
0.825,-1.377,4.400,0.000
0.128,-1.593,4.540,0.000
-0.537,-1.819,3.522,0.000
-0.403,-1.689,2.526,0.000
0.105,-1.416,0.771,0.000
0.291,-1.287,-0.118,0.000
0.442,-1.127,-0.739,0.000
0.714,-1.049,-1.024,0.000
0.988,-0.685,-1.917,0.000
1.230,-0.550,-2.013,0.000
1.429,-0.559,-1.333,0.000
1.265,-0.626,-0.793,0.000
0.960,-0.877,-0.063,0.000
0.850,-0.845,0.234,0.000
0.797,-0.896,-0.020,0.000
0.677,-0.895,-0.596,0.000
0.570,-0.771,-1.577,0.000
0.670,-0.702,-2.035,0.000
0.828,-0.356,-2.353,0.000
0.867,-0.134,-2.204,0.000
0.961,0.059,-1.577,0.000
0.903,0.164,-1.169,0.000
0.597,0.065,-0.759,0.000
0.357,-0.037,-0.848,0.000
0.020,-0.176,-1.390,0.000
0.005,-0.142,-1.736,0.000
0.234,-0.010,-2.227,0.000
0.383,0.102,-2.240,0.000
0.826,0.357,-1.802,0.000
0.893,0.430,-1.428,0.000
0.823,0.364,-0.592,0.000
0.733,0.246,-0.334,0.000
0.720,0.242,-0.334,0.000
0.364,0.032,0.385,0.000
0.252,0.068,0.395,0.000
0.237,0.130,0.341,0.000
0.364,0.195,0.010,0.000
0.209,0.324,-0.031,0.000
0.217,0.302,-0.024,0.000
0.013,0.479,0.381,0.000
0.004,0.456,0.388,0.000
0.002,0.569,1.482,0.000
0.213,0.499,1.979,0.000
0.219,0.423,2.258,0.000
0.016,0.301,2.607,0.000
-0.152,0.277,2.662,0.000
-0.362,0.207,2.101,0.000
-0.491,0.217,1.695,1.000
-0.686,0.496,1.404,0.000
-0.724,0.661,1.037,0.000
-0.733,0.634,1.045,0.000
-0.638,0.904,-0.251,0.000
-0.355,0.574,-0.253,0.000
-0.147,0.268,0.236,0.000
0.145,-0.440,1.976,0.000
0.211,-0.831,3.170,0.000
-0.059,-1.460,4.706,0.000
-0.296,-1.622,5.077,0.000
-0.584,-1.558,3.872,0.000
-0.424,-1.293,2.419,0.000
-0.206,-0.996,-0.030,0.000
-0.220,-0.895,-0.959,0.000
-0.010,-0.762,-1.943,0.000
0.031,-0.601,-2.086,0.000
-0.095,-0.665,-1.493,0.000
-0.073,-0.759,-1.031,0.000
-0.082,-0.868,-0.450,0.000
0.042,-0.989,-0.225,0.000
0.402,-0.877,-0.390,0.000
0.632,-0.720,-0.672,0.000
0.861,-0.619,-0.962,0.000
0.743,-0.612,-1.009,0.000
0.297,-0.690,-1.035,0.000
0.101,-0.778,-1.078,0.000
0.004,-0.768,-1.200,0.000
-0.054,-0.746,-1.293,0.000
0.029,-0.557,-1.624,0.000
0.010,-0.487,-1.700,0.000
-0.126,-0.276,-1.666,0.000
-0.195,-0.158,-1.562,0.000
-0.194,-0.155,-1.563,0.000
-0.238,0.048,-1.252,0.000
0.163,0.391,-1.411,0.000
0.152,0.383,-1.409,0.000
0.080,0.410,-1.267,0.000
-0.028,0.360,-1.077,0.000
-0.158,0.303,-0.867,0.000
-0.240,0.254,-0.748,0.000
-0.339,0.225,-0.650,0.000
-0.283,0.182,-0.641,0.000
-0.171,0.249,-0.238,0.000
-0.123,0.302,0.088,0.000
-0.202,0.328,0.353,0.000
-0.304,0.420,0.545,0.000
-0.271,0.567,0.953,0.000
-0.146,0.607,1.007,0.000
-0.200,0.479,1.153,0.000
-0.208,0.449,1.152,0.000
-0.101,0.430,1.564,0.000
-0.036,0.340,1.772,0.000
-0.039,0.317,1.780,0.000
-0.521,0.151,1.128,0.000
-0.847,0.119,0.322,0.000
-1.000,0.082,0.090,1.000
-0.819,0.178,0.520,0.000
-0.848,0.140,0.968,0.000
-0.759,0.323,1.662,0.000
-0.557,0.409,1.743,0.000
-0.211,0.589,1.797,0.000
0.074,0.768,1.725,0.000
0.528,0.909,0.576,0.000
0.894,0.947,-0.070,0.000
1.102,0.628,0.254,0.000
0.823,0.171,1.514,0.000
0.039,-0.585,3.369,0.000
-0.702,-1.025,3.946,0.000
-1.575,-1.649,3.876,0.000
-1.603,-1.672,2.984,0.000
-0.965,-1.335,0.703,0.000
-0.384,-0.946,-0.111,0.000
0.133,-0.602,-0.301,0.000
0.253,-0.477,-0.417,0.000
0.074,-0.510,-0.666,0.000
0.030,-0.609,-0.693,0.000
-0.199,-1.003,-0.554,0.000
-0.469,-1.227,-0.650,0.000
-0.835,-1.574,-0.926,0.000
-0.919,-1.584,-0.609,0.000
-0.539,-1.268,-0.279,0.000
-0.051,-0.960,-0.452,0.000
0.429,-0.480,-1.304,0.000
0.506,-0.287,-1.748,0.000
0.484,-0.144,-2.215,0.000
0.286,-0.201,-2.463,0.000
-0.138,-0.322,-2.894,0.000
-0.185,-0.363,-2.988,0.000
0.067,-0.200,-2.897,0.000
0.141,-0.286,-2.645,0.000
0.364,-0.110,-2.112,0.000
0.329,-0.092,-1.712,0.000
0.318,-0.103,-1.709,0.000
0.474,0.010,-0.531,0.000
0.588,0.078,-0.324,0.000
0.667,0.133,-0.362,0.000
0.693,0.208,-0.510,0.000
0.609,0.103,-0.469,0.000
0.418,-0.001,-0.314,0.000
0.086,-0.184,-0.095,0.000
0.107,-0.183,-0.095,0.000
-0.470,-0.436,0.161,0.000
-0.396,-0.264,0.068,0.000
-0.121,-0.122,-0.152,0.000
-0.104,-0.136,-0.146,0.000
-0.198,0.312,-0.038,0.000
-0.424,0.400,0.743,0.000
-0.582,0.422,0.913,0.000
-0.695,0.319,1.016,0.000
-0.556,0.292,1.118,0.000
-0.476,0.364,1.327,0.000
-0.443,0.476,1.281,0.000
-0.457,0.458,1.287,0.000
-0.436,0.431,1.419,1.000
-0.761,0.415,1.108,0.000
-1.224,0.353,1.142,0.000
-1.373,0.320,0.987,0.000
-1.340,0.370,0.818,0.000
-0.870,0.484,0.983,0.000
-0.232,0.544,1.199,0.000
0.512,0.447,1.984,0.000
0.773,0.283,2.989,0.000
0.755,-0.382,4.260,0.000
0.208,-0.694,4.557,0.000
-0.367,-0.927,3.354,0.000
-0.463,-0.940,2.020,0.000
-0.713,-0.922,0.017,0.000
-0.794,-0.854,-0.796,0.000
-0.904,-0.760,-1.595,0.000
-0.958,-0.875,-1.742,0.000
-0.682,-0.720,-1.252,0.000
-0.621,-0.776,-0.751,0.000
-0.641,-0.941,-0.047,0.000
-0.783,-1.108,0.292,0.000
-0.982,-1.387,0.334,0.000
-0.975,-1.387,0.038,0.000
-0.642,-1.204,-0.761,0.000
-0.437,-1.061,-1.184,0.000
-0.144,-0.778,-1.871,0.000
-0.282,-0.843,-2.193,0.000
-0.503,-0.824,-2.474,0.000
-0.637,-0.711,-2.469,0.000
-0.847,-0.620,-2.172,0.000
-0.882,-0.430,-2.000,0.000
-0.883,-0.140,-1.799,0.000
-0.928,0.058,-1.754,0.000
-0.989,0.253,-1.697,0.000
-1.009,0.309,-1.743,0.000
-0.963,0.397,-1.723,0.000
-0.836,0.421,-1.672,0.000
-0.854,0.424,-1.673,0.000
-0.562,0.496,-0.919,0.000
-0.614,0.455,-0.344,0.000
-0.648,0.470,0.041,0.000
-0.660,0.491,0.035,0.000
-0.902,0.378,0.805,0.000
-1.288,0.213,1.059,0.000
-1.392,0.159,1.150,0.000
-1.410,0.268,1.334,0.000
-1.264,0.354,1.289,0.000
-1.267,0.348,1.291,0.000
-0.921,0.599,0.829,0.000
-0.547,0.602,1.201,0.000
-0.487,0.526,1.367,0.000
-0.525,0.333,2.026,0.000
-0.609,0.272,2.605,0.000
-0.882,0.378,2.888,0.000
-1.004,0.454,2.344,1.000
-0.951,0.550,1.355,0.000
-0.684,0.631,1.020,0.000
-0.675,0.601,1.029,0.000
-0.083,1.056,1.038,0.000
0.325,1.170,1.365,0.000
0.350,1.195,1.471,0.000
0.251,0.927,1.493,0.000
0.179,0.662,1.441,0.000
0.057,-0.032,2.368,0.000
0.186,-0.175,3.273,0.000
0.285,-0.412,4.551,0.000
0.059,-0.677,4.933,0.000
-0.415,-1.018,3.613,0.000
-0.796,-1.236,2.392,0.000
-0.916,-1.546,0.533,0.000
-0.823,-1.640,-0.471,0.000
-0.816,-1.583,-1.317,0.000
-0.733,-1.693,-1.140,0.000
-0.646,-1.780,-0.895,0.000
-0.782,-1.763,-0.580,0.000
-0.686,-1.841,-0.042,0.000
-0.650,-1.760,0.013,0.000
-0.474,-1.632,-0.384,0.000
-0.343,-1.499,-0.897,0.000
-0.002,-1.315,-1.741,0.000
0.242,-1.117,-2.158,0.000
0.508,-0.777,-2.623,0.000
0.547,-0.637,-2.752,0.000
0.627,-0.371,-2.872,0.000
0.432,-0.378,-2.841,0.000
0.281,-0.366,-2.855,0.000
0.153,-0.346,-2.710,0.000
-0.003,-0.332,-2.348,0.000
0.019,-0.273,-2.083,0.000
0.130,-0.153,-2.005,0.000
0.154,-0.085,-2.075,0.000
0.221,-0.102,-2.221,0.000
0.192,-0.060,-2.152,0.000
0.213,-0.085,-1.664,0.000
0.212,-0.070,-1.345,0.000
0.221,-0.043,-0.937,0.000
0.296,-0.002,-0.946,0.000
0.391,0.176,-1.185,0.000
0.302,0.259,-0.881,0.000
0.083,0.064,0.083,0.000
-0.192,-0.019,0.205,0.000
-0.774,-0.195,0.362,0.000
-1.039,-0.356,0.700,0.000
-0.975,-0.258,0.929,0.000
-0.838,-0.119,0.987,0.000
-0.578,0.191,1.101,0.000
-0.392,0.340,1.296,0.000
-0.266,0.578,1.903,0.000
-0.239,0.695,2.117,0.000
-0.203,0.806,1.942,0.000
-0.157,0.815,1.554,0.000
-0.136,0.806,1.558,0.000
-0.069,0.769,0.963,1.000
-0.399,0.855,1.216,0.000
-0.396,0.781,1.294,0.000
-0.538,0.640,1.238,0.000
-0.651,0.459,1.593,0.000
-0.471,0.022,2.944,0.000
-0.195,-0.150,3.631,0.000
-0.239,-0.570,4.458,0.000
-0.262,-0.893,4.748,0.000
-0.520,-1.361,4.313,0.000
-0.842,-1.473,3.579,0.000
-0.827,-1.345,1.653,0.000
-0.710,-1.159,0.597,0.000
-0.693,-0.882,-1.163,0.000
-0.502,-0.757,-1.882,0.000
-0.191,-0.440,-2.282,0.000
-0.094,-0.409,-2.086,0.000
-0.122,-0.576,-1.350,0.000
-0.349,-0.755,-0.850,0.000
-0.647,-1.080,-0.115,0.000
-0.631,-1.134,0.191,0.000
-0.804,-1.332,0.120,0.000
-0.994,-1.373,-0.029,0.000
-1.011,-1.364,-0.032,0.000
-0.589,-1.161,-0.838,0.000
-0.192,-0.843,-1.366,0.000
-0.035,-0.698,-1.734,0.000
-0.119,-0.498,-2.140,0.000
-0.186,-0.440,-2.254,0.000
-0.137,-0.229,-2.384,0.000
-0.141,-0.129,-2.288,0.000
-0.282,-0.013,-2.360,0.000
-0.395,-0.021,-2.424,0.000
-0.311,0.155,-2.082,0.000
-0.222,0.288,-1.716,0.000
-0.151,0.417,-1.235,0.000
-0.204,0.383,-0.884,0.000
-0.346,0.435,-0.462,0.000
-0.419,0.466,-0.227,0.000
-0.502,0.406,0.090,0.000
-0.463,0.464,0.125,0.000
-0.471,0.555,-0.081,0.000
-0.503,0.523,-0.172,0.000
-0.483,0.499,0.100,0.000
-0.637,0.412,0.637,0.000
-0.654,0.410,0.637,0.000
-0.460,0.722,0.960,0.000
-0.509,0.837,0.975,0.000
-0.441,0.779,1.236,0.000
-0.510,0.551,1.439,0.000
-0.614,0.435,1.568,0.000
-0.769,0.352,1.992,0.000
-0.879,0.368,2.028,0.000
-0.980,0.509,0.948,0.000
-1.050,0.561,0.213,0.000
-0.888,0.637,-0.253,1.000
-0.696,0.737,-0.007,0.000
-0.486,0.773,0.915,0.000
-0.409,0.740,1.532,0.000
-0.503,0.462,2.401,0.000
-0.730,0.222,2.478,0.000
-0.763,-0.124,2.289,0.000
-0.662,-0.345,2.421,0.000
-0.501,-0.784,3.199,0.000
-0.473,-0.864,3.592,0.000
-0.618,-0.903,3.965,0.000
-0.758,-1.071,3.559,0.000
-0.799,-0.915,1.552,0.000
-0.938,-0.928,0.446,0.000
-0.985,-1.003,-0.643,0.000
-0.955,-1.038,-0.973,0.000
-0.915,-1.076,-1.130,0.000
-0.862,-1.111,-1.109,0.000
-0.676,-1.154,-1.185,0.000
-0.594,-1.183,-1.116,0.000
-0.415,-1.133,-0.833,0.000
-0.308,-1.109,-0.737,0.000
-0.113,-1.016,-0.764,0.000
-0.108,-0.952,-0.990,0.000
-0.140,-0.907,-1.324,0.000
-0.164,-0.851,-1.356,0.000
-0.174,-0.781,-1.333,0.000
-0.231,-0.690,-1.477,0.000
-0.401,-0.715,-1.754,0.000
-0.415,-0.707,-1.979,0.000
-0.333,-0.555,-2.141,0.000
-0.287,-0.410,-2.066,0.000
-0.285,-0.417,-2.064,0.000
-0.015,-0.130,-1.997,0.000
-0.076,-0.005,-2.341,0.000
-0.158,-0.026,-2.416,0.000
-0.296,-0.107,-2.304,0.000
-0.391,-0.191,-2.229,0.000
-0.406,-0.207,-1.846,0.000
-0.345,-0.232,-1.399,0.000
-0.163,-0.084,-0.569,0.000
-0.026,0.022,-0.185,0.000
0.002,0.005,0.177,0.000
-0.095,0.014,0.364,0.000
-0.220,-0.072,0.653,0.000
-0.350,-0.080,0.527,0.000
-0.347,0.041,0.233,0.000
-0.212,0.074,0.172,0.000
-0.052,0.211,0.486,0.000
0.054,0.327,0.964,0.000
0.217,0.533,1.989,0.000
0.278,0.586,2.247,0.000
0.268,0.585,2.190,0.000
0.286,0.581,2.115,0.000
0.278,0.710,2.027,0.000
0.182,0.780,1.979,1.000
0.023,0.731,1.574,0.000
0.026,0.815,1.146,0.000
-0.241,0.974,0.802,0.000
-0.366,1.012,0.769,0.000
-0.563,1.053,0.548,0.000
-0.718,0.979,0.578,0.000
-0.691,0.713,0.983,0.000
-0.447,0.453,1.603,0.000
-0.023,0.013,3.401,0.000
0.055,-0.344,4.524,0.000
-0.224,-0.869,5.731,0.000
-0.565,-1.178,5.373,0.000
-0.858,-1.263,3.084,0.000
-0.984,-1.192,0.816,0.000
-1.316,-1.224,-1.630,0.000
-1.244,-1.023,-2.375,0.000
-1.083,-0.736,-3.468,0.000
-1.093,-0.711,-3.757,0.000
-0.397,-0.337,-3.599,0.000
-0.368,-0.318,-3.029,0.000
-0.488,-0.593,-1.588,0.000
-0.597,-0.701,-0.743,0.000
-0.846,-1.074,0.009,0.000
-0.963,-1.126,-0.005,0.000
-1.060,-1.274,-0.282,0.000
-1.157,-1.320,-0.377,0.000
-1.140,-1.229,-0.371,0.000
-1.003,-1.082,-0.361,0.000
-1.005,-1.060,-0.367,0.000
-0.505,-0.464,-1.089,0.000
-0.502,-0.313,-1.670,0.000
-0.697,-0.324,-1.897,0.000
-0.794,-0.282,-1.846,0.000
-0.945,-0.328,-1.604,0.000
-1.052,-0.328,-1.281,0.000
-1.109,-0.238,-0.874,0.000
-0.874,-0.030,-0.158,0.000
-0.619,0.242,-0.007,0.000
-0.570,0.377,0.027,0.000
-0.515,0.482,-0.143,0.000
-0.505,0.483,-0.144,0.000
-0.412,0.595,-0.603,0.000
-0.404,0.594,-0.603,0.000
-0.543,0.420,-0.040,0.000
-0.774,0.252,0.279,0.000
-0.896,0.256,0.503,0.000
-1.185,0.337,0.941,0.000
-1.178,0.415,0.966,0.000
-1.004,0.643,0.713,0.000
-1.030,0.598,0.547,0.000
-1.134,0.595,0.476,0.000
-0.992,0.648,0.787,0.000
-0.503,0.622,1.594,0.000
-0.417,0.733,1.901,0.000
-0.607,0.752,1.512,0.000
-0.705,0.713,0.917,1.000
-0.673,0.702,0.919,0.000
-0.649,0.630,0.509,0.000
-0.626,0.628,0.509,0.000
-0.551,0.473,1.973,0.000
-0.509,0.409,2.023,0.000
-0.361,0.422,1.711,0.000
0.203,0.458,1.287,0.000
0.454,0.412,1.518,0.000
0.430,-0.233,3.116,0.000
0.376,-0.486,3.785,0.000
-0.189,-1.053,4.517,0.000
-0.760,-1.419,4.377,0.000
-1.173,-1.763,3.432,0.000
-1.127,-1.765,2.481,0.000
-0.829,-1.570,0.571,0.000
-0.632,-1.440,-0.246,0.000
-0.237,-1.118,-1.048,0.000
-0.046,-0.949,-1.415,0.000
-0.045,-0.916,-1.810,0.000
-0.103,-0.977,-1.855,0.000
-0.069,-0.959,-1.587,0.000
-0.083,-1.032,-1.247,0.000
-0.136,-1.066,-0.428,0.000
-0.273,-1.053,-0.166,0.000
-0.611,-1.168,-0.336,0.000
-0.562,-1.045,-0.824,0.000
-0.115,-0.520,-1.878,0.000
0.103,-0.273,-2.344,0.000
0.396,0.111,-2.716,0.000
0.495,0.290,-2.788,0.000
0.444,0.396,-2.700,0.000
0.489,0.451,-2.421,0.000
0.446,0.576,-1.920,0.000
0.241,0.463,-1.649,0.000
-0.038,0.289,-1.400,0.000
-0.131,0.174,-1.404,0.000
-0.326,0.069,-1.061,0.000
-0.289,0.021,-0.837,0.000
-0.299,0.007,-0.833,0.000
0.024,0.182,-0.735,0.000
0.128,0.166,-0.626,0.000
0.152,0.219,-0.420,0.000
0.342,0.394,-0.197,0.000
0.420,0.392,-0.215,0.000
0.425,0.386,-0.213,0.000
-0.099,0.191,0.319,0.000
-0.353,0.038,0.605,0.000
-0.530,-0.080,0.918,0.000
-0.731,-0.097,1.378,0.000
-0.799,-0.002,1.548,0.000
-0.686,0.200,1.727,0.000
-0.530,0.313,1.712,0.000
-0.200,0.460,1.663,0.000
-0.068,0.448,1.735,0.000
-0.006,0.474,1.887,0.000
0.077,0.593,1.877,0.000
0.183,0.528,1.499,1.000
0.218,0.535,1.012,0.000
0.226,0.500,1.025,0.000
-0.343,0.541,1.183,0.000
-0.907,0.536,0.904,0.000
-1.131,0.459,0.485,0.000
-1.277,0.415,-0.195,0.000
-1.155,0.292,-0.333,0.000
-0.437,0.031,-0.105,0.000
0.061,-0.149,0.831,0.000
0.361,-0.696,2.487,0.000
0.196,-0.825,3.089,0.000
-0.498,-1.095,3.028,0.000
-0.841,-1.336,1.990,0.000
-1.061,-1.130,-0.433,0.000
-1.207,-1.082,-1.466,0.000
-1.173,-0.999,-2.583,0.000
-0.965,-0.717,-2.782,0.000
-0.703,-0.431,-2.461,0.000
-0.574,-0.371,-1.894,0.000
-0.409,-0.441,-0.913,0.000
-0.496,-0.606,-0.409,0.000
-0.640,-1.000,0.351,0.000
-0.668,-1.148,0.591,0.000
-0.778,-1.310,0.656,0.000
-0.817,-1.340,0.490,0.000
-0.706,-1.207,-0.067,0.000
-0.546,-1.089,-0.687,0.000
-0.425,-0.920,-1.288,0.000
-0.395,-0.797,-1.302,0.000
-0.373,-0.611,-1.231,0.000
-0.345,-0.468,-1.369,0.000
-0.221,-0.197,-1.742,0.000
-0.223,-0.024,-1.682,0.000
-0.286,0.126,-1.328,0.000
-0.359,0.208,-1.327,0.000
-0.424,0.248,-1.581,0.000
-0.391,0.277,-1.630,0.000
