accelX,accelY,accelZ,label
-0.205,1.344,1.801,1
-0.199,1.325,1.806,0
-0.778,1.006,0.896,0
-0.897,0.934,0.805,0
-0.928,1.016,0.789,0
-0.954,1.033,0.783,0
-0.159,0.519,1.177,0
0.392,0.051,2.112,0
0.733,-0.299,3.131,0
0.756,-0.742,4.239,0
0.54,-0.919,4.325,0
0.235,-0.962,3.001,0
0.046,-0.881,1.104,0
-0.39,-0.853,-1.324,0
-0.673,-0.711,-2.582,0
-0.694,-0.538,-3.319,0
-0.648,-0.185,-3.349,0
-0.394,0.316,-2.74,0
-0.135,0.412,-2.189,0
-0.023,0.224,-1.254,0
-0.135,0.075,-0.78,0
-0.259,-0.182,-0.551,0
-0.367,-0.307,-0.532,0
-0.25,-0.282,-0.651,0
-0.011,-0.094,-0.848,0
0.372,0.216,-1.079,0
0.554,0.38,-1.298,0
0.431,0.548,-1.504,0
0.131,0.492,-1.527,0
-0.111,0.302,-1.412,0
-0.199,0.231,-1.155,0
-0.242,0.08,-0.583,0
-0.238,0.118,-0.297,0
-0.136,0.214,-0.228,0
-0.175,0.206,-0.358,0
-0.033,0.413,-0.958,0
0.065,0.55,-1.391,0
-0.046,0.623,-1.598,0
-0.176,0.602,-1.496,0
-0.182,0.589,-1.493,0
-0.359,0.504,-0.604,0
-0.287,0.444,-0.446,0
-0.391,0.35,0.012,0
-0.407,0.345,0.225,0
-0.455,0.341,0.175,0
-0.537,0.315,0.361,0
-0.209,0.513,0.655,0
0.042,0.865,0.863,0
-0.016,0.934,0.793,0
-0.014,0.912,0.799,0
-0.259,0.82,0.727,0
-0.209,0.59,0.984,0
-0.124,0.404,1.377,0
0.004,0.359,2.388,0
0.174,0.403,2.861,1
0.174,0.391,2.864,0
0.184,0.813,1.766,0
0.277,0.507,0.654,0
0.452,0.431,0.18,0
0.456,0.411,0.186,0
0.922,0.17,0.545,0
0.825,-0.26,1.379,0
0.552,-0.441,1.89,0
0.122,-0.678,2.292,0
-0.072,-0.65,2.358,0
-0.132,-0.338,1.558,0
-0.17,-0.104,0.63,0
-0.105,0.244,-0.545,0
-0.061,0.452,-1.448,0
-0.05,0.462,-1.963,0
0.003,0.408,-1.821,0
0.244,0.251,-1.162,0
0.371,0.171,-0.73,0
0.37,-0.165,-0.034,0
0.346,-0.407,0.302,0
0.335,-0.545,0.456,0
0.302,-0.654,0.501,0
0.258,-0.652,0.499,0
0.424,-0.572,0.253,0
0.588,-0.474,-0.089,0
0.542,-0.397,-0.363,0
0.403,-0.391,-0.826,0
0.295,-0.479,-1.188,0
0.106,-0.498,-1.254,0
0.047,-0.45,-1.096,0
0.075,-0.247,-1.269,0
0.175,0.077,-1.565,0
0.245,0.452,-2.067,0
0.233,0.728,-2.366,0
0.089,0.965,-2.78,0
-0.149,1.04,-2.876,0
-0.399,0.939,-2.571,0
-0.49,0.883,-2.136,0
-0.482,0.874,-1.47,0
-0.439,0.795,-0.995,0
-0.254,0.743,-0.684,0
-0.158,0.721,-0.488,0
0.124,0.727,-0.414,0
0.344,0.781,-0.136,0
0.581,0.655,0.605,0
0.673,0.678,1.11,0
0.626,0.723,1.703,0
0.421,0.737,1.808,0
0.186,0.791,1.272,0
0.007,0.857,0.829,0
-0.16,0.917,0.771,0
-0.067,1.008,0.711,0
0.198,1.245,0.598,0
0.419,1.295,0.769,0
0.259,1.075,1.515,0
-0.111,1.123,2.18,1
-0.431,1.062,2.855,0
-0.418,0.785,2.982,0
-0.391,0.693,2.498,0
-0.455,0.69,1.934,0
-0.593,0.734,1.405,0
-0.601,0.705,1.143,0
-0.317,0.427,1.056,0
0.003,0.088,1.569,0
0.384,-0.37,2.913,0
0.324,-0.767,3.886,0
0.103,-1.167,4.239,0
-0.106,-1.109,3.613,0
-0.288,-0.911,1.628,0
-0.28,-0.727,-0.214,0
-0.569,-0.637,-2.293,0
-0.722,-0.567,-3.06,0
-0.933,-0.404,-3.38,0
-0.858,-0.228,-3.008,0
-0.556,-0.064,-2.117,0
-0.438,-0.207,-1.434,0
-0.386,-0.449,-0.515,0
-0.48,-0.559,0.225,0
-0.399,-0.706,0.687,0
-0.197,-0.717,0.559,0
0.011,-0.531,-0.151,0
0.056,-0.406,-0.754,0
0.058,-0.246,-1.518,0
-0.053,-0.172,-1.826,0
-0.232,-0.005,-1.92,0
-0.253,0.117,-1.909,0
-0.262,0.316,-1.667,0
-0.338,0.326,-1.318,0
-0.445,0.323,-0.962,0
-0.368,0.425,-1.033,0
-0.25,0.471,-1.274,0
-0.346,0.459,-1.435,0
-0.345,0.443,-1.431,0
-0.571,0.409,-1.689,0
-0.629,0.336,-1.749,0
-0.712,0.273,-1.723,0
-0.708,0.266,-1.721,0
-0.699,0.272,-1.066,0
-0.596,0.345,-0.638,0
-0.589,0.336,-0.396,0
-0.616,0.342,-0.083,0
-0.59,0.314,0.349,0
-0.651,0.337,0.941,0
-0.836,0.352,1.357,0
-0.832,0.348,1.358,0
-0.586,0.627,1.688,0
-0.421,0.741,1.446,0
-0.356,0.714,1.407,0
-0.35,0.561,1.675,0
-0.26,0.511,2.133,0
-0.134,0.443,2.753,0
-0.106,0.663,2.911,1
-0.101,0.652,2.914,0
-0.105,0.518,1.783,0
-0.251,0.372,1.46,0
-0.202,0.33,1.365,0
-0.118,0.129,1.394,0
0.014,-0.145,1.607,0
-0.081,-0.281,2.107,0
-0.212,-0.46,2.209,0
-0.321,-0.618,1.968,0
-0.332,-0.595,1.503,0
-0.348,-0.43,0.642,0
-0.332,-0.296,0.145,0
-0.395,-0.261,-0.406,0
-0.482,-0.26,-0.518,0
-0.486,-0.319,-0.506,0
-0.366,-0.308,-0.577,0
-0.1,-0.228,-0.669,0
0.251,-0.211,-0.747,0
0.556,-0.215,-0.663,0
0.835,-0.135,-0.591,0
0.986,-0.129,-0.232,0
0.93,-0.229,0.116,0
0.482,-0.511,0.348,0
0.08,-0.73,0.56,0
-0.258,-0.861,0.627,0
-0.359,-0.802,0.259,0
-0.261,-0.538,-0.724,0
-0.021,-0.345,-1.549,0
0.206,-0.043,-2.505,0
0.262,0.082,-2.899,0
0.091,0.176,-2.709,0
-0.06,0.155,-2.324,0
-0.06,0.145,-2.321,0
-0.469,0.04,-1.507,0
-0.583,0.091,-1.507,0
-0.582,0.153,-1.575,0
-0.516,0.371,-1.687,0
-0.526,0.489,-1.64,0
-0.256,0.793,-1.782,0
0.045,1.055,-1.931,0
0.522,1.266,-2.216,0
0.613,1.272,-1.87,0
0.31,0.951,-1.141,0
0.026,0.667,-0.516,0
-0.315,0.401,0.28,0
-0.54,0.227,0.7,0
-0.677,0.19,0.793,0
-0.683,0.274,0.676,0
-0.757,0.365,0.305,0
-0.718,0.466,0.131,0
-0.602,0.642,0.302,0
-0.755,0.634,0.652,0
-0.892,0.455,1.067,0
-0.884,0.314,1.447,0
-0.688,0.199,2.222,0
-0.608,0.395,2.581,1
-0.471,0.733,2.289,0
-0.332,0.787,1.294,0
-0.561,0.718,0.081,0
-0.748,0.613,-0.221,0
-0.819,0.465,-0.064,0
-0.84,0.309,0.576,0
-0.798,-0.004,1.827,0
-0.617,-0.095,2.762,0
-0.294,-0.278,3.839,0
-0.116,-0.376,4.158,0
0.124,-0.285,3.353,0
0.134,0.004,2.089,0
0.098,0.147,0.109,0
0.037,0.068,-0.676,0
-0.433,0.088,-1.264,0
-0.956,-0.026,-1.107,0
-1.343,-0.193,-0.733,0
-1.545,-0.259,-0.283,0
-1.317,-0.378,0.156,0
-0.923,-0.459,0.274,0
-0.354,-0.43,0.233,0
-0.166,-0.453,0.182,0
-0.25,-0.571,0.248,0
-0.365,-0.622,0.343,0
-0.312,-0.571,0.184,0
-0.253,-0.429,-0.203,0
-0.17,-0.304,-0.962,0
-0.215,-0.201,-1.508,0
-0.326,-0.136,-2.023,0
-0.324,-0.159,-2.114,0
-0.285,-0.101,-1.752,0
-0.283,-0.026,-1.476,0
-0.264,0.038,-1.246,0
-0.311,0.127,-1.179,0
-0.434,0.246,-1.395,0
-0.566,0.247,-1.523,0
-0.552,0.236,-1.521,0
-0.645,0.422,-2.039,0
-0.762,0.447,-2.103,0
-0.873,0.417,-1.943,0
-1.099,0.328,-1.442,0
-1.27,0.254,-0.815,0
-1.29,0.105,-0.147,0
-1.076,0.132,0.349,0
-0.657,0.282,1.212,0
-0.438,0.245,1.295,0
-0.429,0.262,1.577,0
-0.591,0.312,1.567,0
-0.873,0.226,1.604,0
-0.965,0.223,1.935,0
-0.582,0.195,2.351,0
-0.283,0.262,2.73,0
-0.106,0.561,3.03,0
-0.099,0.815,2.876,0
0.269,0.97,1.983,0
0.412,1.076,1.205,1
0.574,1.114,-0.012,0
0.377,0.853,-0.309,0
-0.1,0.265,-0.158,0
-0.48,-0.192,0.356,0
-0.611,-0.788,1.654,0
-0.724,-1.095,2.523,0
-1.073,-1.344,3.375,0
-1.19,-1.424,3.681,0
-1.208,-1.249,3.528,0
-1.039,-0.901,2.551,0
-0.572,-0.417,0.773,0
-0.291,-0.11,-0.133,0
0.004,0.224,-1.055,0
0.003,0.275,-1.432,0
-0.232,0.126,-1.329,0
-0.278,0.087,-1.102,0
-0.09,-0.115,-0.723,0
-0.062,-0.227,-0.479,0
-0.067,-0.384,-0.012,0
-0.05,-0.511,0.075,0
-0.039,-0.579,-0.155,0
-0.002,-0.594,-0.408,0
0.14,-0.527,-0.934,0
0.184,-0.5,-1.173,0
0.182,-0.429,-1.414,0
0.052,-0.509,-1.589,0
-0.345,-0.691,-1.855,0
-0.547,-0.681,-1.953,0
-0.63,-0.582,-2.106,0
-0.445,-0.386,-2.361,0
-0.239,-0.117,-2.383,0
-0.164,0.034,-2.448,0
0.042,0.255,-2.57,0
0.163,0.355,-2.586,0
0.045,0.454,-2.584,0
-0.049,0.442,-2.635,0
-0.303,0.384,-2.377,0
-0.483,0.376,-2.025,0
-0.607,0.342,-1.313,0
-0.497,0.336,-0.603,0
-0.284,0.454,0.102,0
-0.03,0.455,0.385,0
0.454,0.606,1.012,0
0.804,0.842,1.427,0
0.725,0.91,1.808,0
0.425,0.85,1.649,0
-0.101,0.71,1.223,0
-0.226,0.674,1.223,0
-0.197,0.703,1.691,0
-0.04,0.688,2.256,0
-0.047,0.595,3.127,0
-0.099,0.589,3.534,0
-0.147,0.998,3.392,0
-0.109,1.088,2.702,1
-0.06,1.161,1.246,0
-0.112,1.198,0.387,0
-0.2,1.107,-0.473,0
-0.533,0.875,-0.644,0
-0.579,0.353,0.121,0
-0.275,-0.017,1.552,0
0.106,-0.601,4.35,0
0.164,-0.934,5.675,0
0.121,-1.145,6.075,0
0.102,-1.082,4.888,0
0.023,-0.727,1.916,0
-0.249,-0.706,0.001,0
-0.727,-0.566,-2.125,0
-1.031,-0.481,-3.029,0
-1.023,-0.348,-2.933,0
-0.973,-0.24,-2.329,0
-0.394,-0.354,-1.086,0
-0.431,-0.341,-1.088,0
0.043,-0.511,-0.267,0
0.018,-0.668,-0.11,0
-0.173,-0.795,0.098,0
-0.367,-0.926,0.109,0
-0.555,-1.01,0.057,0
-0.746,-1.042,-0.311,0
-0.675,-0.889,-1.091,0
-0.435,-0.72,-1.647,0
-0.257,-0.473,-2.223,0
-0.265,-0.385,-2.41,0
-0.216,-0.172,-2.451,0
-0.181,0.064,-2.283,0
-0.332,0.275,-1.866,0
-0.437,0.305,-1.483,0
-0.453,0.317,-1.018,0
-0.433,0.362,-0.798,0
-0.309,0.416,-0.594,0
-0.19,0.481,-0.515,0
-0.118,0.557,-0.495,0
-0.124,0.585,-0.703,0
-0.129,0.564,-0.697,0
-0.055,0.548,-0.747,0
-0.048,0.534,-0.743,0
-0.282,0.417,0.223,0
-0.265,0.27,0.749,0
-0.29,0.21,0.917,0
-0.381,0.228,1.296,0
-0.435,0.252,1.561,0
-0.429,0.228,1.567,0
-0.517,0.178,1.619,0
-0.559,0.15,1.618,0
-0.544,0.077,1.719,0
-0.307,0.033,2.177,0
-0.107,0.236,2.463,0
0.064,0.609,2.046,0
0.184,0.564,1.306,1
0.118,0.315,0.437,0
-0.015,0.221,0.189,0
-0.207,0.088,0.133,0
-0.19,-0.198,0.718,0
-0.051,-0.339,1.538,0
0.032,-0.447,1.863,0
-0.011,-0.592,2.167,0
-0.073,-0.604,2.243,0
-0.243,-0.53,2.06,0
-0.39,-0.496,1.805,0
-0.596,-0.422,1.066,0
-0.661,-0.311,0.427,0
-0.704,-0.181,-0.245,0
-0.66,-0.112,-0.617,0
-0.37,0.005,-0.31,0
-0.223,0.075,0.108,0
-0.167,0.001,0.477,0
-0.087,-0.043,0.413,0
0.072,-0.046,-0.029,0
0.045,-0.058,-0.325,0
-0.026,-0.136,-0.612,0
-0.181,-0.186,-0.615,0
-0.171,-0.184,-0.616,0
-0.485,-0.366,-0.969,0
-0.38,-0.242,-1.216,0
-0.3,-0.185,-1.136,0
-0.305,-0.138,-1.308,0
-0.394,-0.194,-1.513,0
-0.472,-0.147,-1.972,0
-0.386,-0.04,-2.289,0
-0.313,0.109,-2.828,0
-0.385,0.165,-3.062,0
-0.65,0.233,-2.903,0
-0.733,0.249,-2.592,0
-0.67,0.358,-1.935,0
-0.629,0.355,-1.547,0
-0.558,0.357,-1.143,0
-0.547,0.378,-1.011,0
-0.585,0.371,-1.109,0
-0.442,0.499,-1.379,0
-0.126,0.732,-1.684,0
0.101,0.835,-1.583,0
0.224,0.721,-0.857,0
0.187,0.67,-0.212,0
-0.003,0.596,1.088,0
-0.109,0.533,1.616,0
-0.151,0.511,1.8,0
-0.261,0.491,1.784,0
-0.326,0.566,1.314,0
-0.367,0.652,1.054,0
-0.061,0.717,1.099,0
0.198,0.807,1.311,0
0.206,0.778,1.32,0
0.201,1.393,1.555,0
-0.299,1.401,0.491,0
-0.592,1.149,-0.112,1
-0.859,0.872,-0.459,0
-0.919,0.552,-0.636,0
-0.737,0.078,0.354,0
-0.293,-0.164,1.96,0
0.377,-0.637,4.43,0
0.558,-0.782,5.408,0
0.588,-1.152,5.885,0
0.411,-1.115,5.281,0
0.17,-0.701,2.819,0
0.1,-0.393,0.72,0
-0.305,-0.427,-1.693,0
-0.569,-0.339,-3.034,0
-0.986,-0.336,-3.146,0
-1.185,-0.372,-2.51,0
-1.035,-0.444,-0.854,0
-0.697,-0.507,-0.023,0
-0.458,-0.769,1.085,0
-0.472,-0.94,1.478,0
-0.382,-0.987,1.269,0
-0.311,-0.906,0.604,0
-0.246,-0.716,-0.379,0
-0.196,-0.581,-1.027,0
-0.19,-0.487,-1.718,0
-0.296,-0.409,-2.093,0
-0.291,-0.21,-2.458,0
-0.225,-0.138,-2.3,0
-0.233,-0.133,-2.301,0
-0.129,0.059,-1.144,0
-0.229,0.119,-0.942,0
-0.31,0.232,-1.11,0
-0.37,0.342,-1.502,0
-0.346,0.396,-1.737,0
-0.328,0.458,-2.065,0
-0.291,0.475,-2.129,0
-0.307,0.415,-1.857,0
-0.345,0.414,-1.432,0
-0.355,0.416,-1.432,0
-0.444,0.436,-0.254,0
-0.412,0.539,0.025,0
-0.476,0.511,0.062,0
-0.492,0.589,0.395,0
-0.499,0.682,0.528,0
-0.58,0.707,0.449,0
-0.652,0.703,0.271,0
-0.772,0.613,0.443,0
-0.797,0.464,0.936,0
-0.253,0.33,1.637,0
0.36,0.412,1.979,0
1.042,0.482,2.365,0
0.968,0.621,2.466,0
0.697,0.965,1.794,0
0.653,0.689,1.149,0
0.594,0.356,0.899,0
0.447,0.203,1.319,1
0.158,-0.266,2.304,0
-0.028,-0.498,2.837,0
-0.267,-0.758,3.042,0
-0.435,-1.035,3.094,0
-0.507,-1.376,3.387,0
-0.426,-1.464,3.491,0
-0.045,-1.381,3.624,0
0.088,-1.112,3.316,0
0.185,-0.872,1.925,0
0.177,-0.68,0.971,0
0.045,-0.496,-0.195,0
-0.044,-0.449,-0.844,0
-0.115,-0.347,-1.605,0
-0.02,-0.332,-1.813,0
0.294,-0.258,-1.471,0
0.547,-0.216,-0.943,0
0.782,-0.222,-0.368,0
0.76,-0.251,-0.24,0
0.598,-0.296,-0.381,0
0.535,-0.301,-0.62,0
0.522,-0.25,-1.116,0
0.434,-0.25,-1.58,0
0.289,-0.289,-1.945,0
0.21,-0.279,-1.848,0
0.069,-0.248,-1.706,0
0.028,-0.197,-1.625,0
0.13,-0.041,-1.213,0
0.202,0.137,-1.167,0
0.169,0.307,-1.565,0
0.16,0.422,-1.962,0
-0.099,0.492,-2.506,0
-0.225,0.475,-2.729,0
-0.374,0.406,-2.55,0
-0.424,0.344,-2.124,0
-0.523,0.293,-1.509,0
-0.367,0.37,-1.354,0
0.064,0.495,-0.489,0
0.258,0.621,0.289,0
0.387,0.671,0.584,0
0.516,0.71,0.457,0
0.737,0.876,0.41,0
0.641,0.838,0.343,0
0.31,0.788,0.245,0
0.164,0.731,0.178,0
-0.002,0.656,0.322,0
0.017,0.64,0.326,0
-0.142,0.441,1.103,0
-0.05,0.365,1.507,0
-0.031,0.367,2.633,0
0.115,0.252,3.214,0
0.277,0.121,3.615,0
0.221,0.391,3.69,1
-0.268,0.862,2.297,0
-0.59,0.803,0.849,0
-0.762,0.735,-0.825,0
-0.933,0.739,-1.348,0
-0.914,0.714,-1.34,0
-1.146,0.12,-0.221,0
-0.706,-0.396,1.538,0
-0.349,-0.678,2.261,0
0.092,-1.303,3.467,0
0.25,-1.384,3.966,0
0.209,-1.346,3.956,0
0.021,-1.07,2.145,0
-0.009,-0.722,0.292,0
-0.259,-0.58,-0.74,0
-0.799,-0.496,-2.021,0
-1.078,-0.448,-2.187,0
-1.217,-0.58,-1.569,0
-0.954,-0.679,-0.764,0
-0.246,-0.787,0.864,0
0.144,-0.76,1.479,0
0.657,-0.743,1.759,0
0.769,-0.706,1.355,0
0.497,-0.696,0.25,0
0.206,-0.673,-0.651,0
0.075,-0.51,-1.51,0
-0.004,-0.405,-1.942,0
-0.314,-0.364,-2.628,0
-0.435,-0.354,-2.895,0
-0.391,-0.373,-2.52,0
-0.279,-0.336,-1.84,0
-0.1,-0.216,-0.876,0
0.085,0.023,-0.776,0
0.101,0.266,-1.125,0
-0.078,0.389,-1.491,0
-0.398,0.443,-2.037,0
-0.481,0.399,-2.146,0
-0.508,0.408,-2.002,0
-0.522,0.325,-1.7,0
-0.457,0.277,-1.093,0
-0.427,0.25,-0.78,0
-0.373,0.253,-0.407,0
-0.352,0.292,-0.123,0
-0.212,0.398,0.122,0
-0.083,0.429,0.288,0
-0.076,0.526,0.836,0
-0.065,0.606,1.022,0
-0.08,0.597,0.935,0
-0.119,0.592,0.908,0
-0.231,0.545,0.912,0
-0.238,0.359,1.215,0
-0.016,0.2,2.182,0
0.116,0.258,2.817,0
0.432,0.326,3.383,0
0.649,0.644,3.473,0
0.611,1.226,2.252,0
0.516,1.144,1.147,1
0.123,0.814,0.031,0
-0.152,0.704,-0.227,0
-0.303,0.334,0.328,0
-0.258,-0.048,1.215,0
-0.137,-0.435,2.201,0
-0.135,-0.628,2.685,0
-0.156,-1.115,3.519,0
-0.131,-1.282,3.673,0
-0.195,-1.236,3.352,0
-0.252,-1.026,2.638,0
-0.191,-0.533,1.174,0
-0.144,-0.215,0.134,0
-0.06,0.042,-1.336,0
-0.029,0.062,-1.746,0
-0.039,0.045,-1.741,0
-0.092,-0.021,-0.93,0
-0.182,-0.223,-0.239,0
-0.112,-0.301,-0.037,0
0.112,-0.284,-0.11,0
0.237,-0.273,-0.29,0
0.294,-0.309,-0.432,0
0.242,-0.321,-0.498,0
0.062,-0.388,-0.692,0
0.108,-0.407,-0.848,0
0.013,-0.406,-1.039,0
-0.072,-0.497,-1.016,0
-0.256,-0.492,-0.839,0
-0.323,-0.44,-1.008,0
-0.436,-0.307,-1.317,0
-0.4,-0.151,-1.677,0
-0.205,0.18,-2.439,0
-0.197,0.307,-2.784,0
-0.299,0.386,-3.252,0
-0.28,0.363,-3.247,0
-0.535,0.389,-2.553,0
-0.533,0.313,-1.91,0
-0.609,0.233,-1.019,0
-0.602,0.234,-1.02,0
-0.312,0.377,-0.431,0
-0.166,0.495,-0.325,0
-0.154,0.49,-0.323,0
0.342,0.786,-0.618,0
0.4,0.802,-0.733,0
0.234,0.709,-0.601,0
-0.15,0.603,-0.198,0
-0.389,0.501,0.041,0
-0.64,0.401,0.496,0
-0.654,0.403,0.695,0
-0.627,0.434,0.883,0
-0.512,0.49,0.913,0
-0.102,0.679,1.119,0
-0.092,0.659,1.125,0
0.076,0.659,1.581,0
-0.244,0.834,1.652,0
-0.255,0.809,1.659,0
-1.175,0.901,0.476,1
-1.419,0.734,0.215,0
-1.412,0.563,0.451,0
-1.427,0.581,0.446,0
-0.667,0.171,1.526,0
0.223,-0.302,3.405,0
0.353,-0.596,4.926,0
0.445,-1.259,6.836,0
0.337,-1.381,7.077,0
0.046,-1.236,5.244,0
0.037,-0.857,2.827,0
0.071,-0.415,0.222,0
-0.195,-0.255,-1.828,0
-0.667,-0.212,-3.909,0
-1.18,-0.25,-4.303,0
-1.303,-0.22,-3.458,0
-1.074,-0.185,-2.497,0
-0.589,-0.427,-0.656,0
-0.448,-0.609,0.198,0
-0.411,-0.86,0.875,0
-0.436,-1.055,1.097,0
-0.518,-1.128,0.813,0
-0.557,-1.098,0.319,0
-0.433,-0.849,-0.702,0
-0.333,-0.664,-1.258,0
-0.205,-0.365,-2.018,0
-0.184,-0.235,-2.439,0
-0.171,0.012,-2.735,0
-0.19,0.073,-2.471,0
-0.268,0.164,-2.073,0
-0.282,0.25,-1.84,0
-0.379,0.263,-1.532,0
-0.565,0.283,-1.415,0
-0.494,0.33,-1.566,0
-0.434,0.414,-1.523,0
-0.499,0.432,-1.279,0
-0.551,0.423,-1.18,0
-0.627,0.308,-0.739,0
-0.649,0.261,-0.263,0
-0.582,0.35,-0.075,0
-0.618,0.31,-0.084,0
-0.6,0.264,0.471,0
-0.543,0.28,0.759,0
-0.52,0.179,0.738,0
-0.598,0.072,1.136,0
-0.723,0.177,1.883,0
-0.678,0.097,2.196,0
-0.651,0.225,1.968,0
-0.482,0.369,1.556,0
-0.239,0.463,1.077,0
-0.123,0.499,0.928,0
0.159,0.587,1.092,0
0.106,0.623,1.398,0
-0.183,0.786,1.304,0
-0.176,0.697,0.987,1
-0.12,0.625,1.195,0
-0.028,0.477,1.493,0
0.03,0.196,1.796,0
0.097,-0.095,2.151,0
-0.334,-0.238,2.478,0
-0.57,-0.43,2.275,0
-0.597,-0.575,1.712,0
-0.453,-0.542,1.516,0
-0.119,-0.233,1.251,0
-0.011,-0.082,0.822,0
-0.074,-0.147,0.34,0
-0.21,-0.144,0.235,0
-0.088,-0.245,0.914,0
-0.255,-0.441,1.326,0
-0.669,-0.799,1.461,0
-0.739,-1.004,1.575,0
-0.712,-0.966,1.305,0
-0.455,-0.893,0.959,0
-0.048,-0.72,0.258,0
0.101,-0.537,-0.363,0
0.136,-0.459,-1.222,0
0.012,-0.365,-1.763,0
-0.308,-0.385,-2.38,0
-0.458,-0.448,-2.547,0
-0.445,-0.458,-2.545,0
-0.557,-0.429,-1.427,0
-0.224,-0.286,-0.756,0
-0.073,-0.078,-0.63,0
-0.069,0.065,-0.876,0
-0.194,0.186,-1.435,0
-0.371,0.259,-2.11,0
-0.503,0.313,-2.508,0
-0.537,0.457,-3.117,0
-0.473,0.534,-3.358,0
-0.393,0.606,-3.04,0
-0.328,0.608,-2.59,0
-0.186,0.55,-1.619,0
-0.074,0.506,-1.279,0
0.124,0.547,-1.053,0
0.197,0.556,-0.808,0
0.189,0.528,-0.579,0
0.062,0.481,-0.476,0
-0.114,0.396,-0.461,0
-0.204,0.347,-0.37,0
-0.336,0.355,0.184,0
-0.342,0.351,0.524,0
-0.337,0.319,1.052,0
-0.223,0.315,1.412,0
-0.128,0.398,2.114,0
-0.045,0.379,2.634,0
0.042,0.194,3.084,0
0.081,0.076,3.363,0
-0.068,0.288,3.548,0
-0.353,0.656,3.16,0
-0.708,0.745,1.242,0
-0.835,0.702,0.278,1
-0.702,0.685,-0.441,0
-0.583,0.753,-0.305,0
-0.346,0.609,0.708,0
-0.094,0.21,1.449,0
0.026,-0.479,2.421,0
-0.044,-1.044,3.06,0
-0.256,-1.49,4.223,0
-0.31,-1.302,4.072,0
-0.238,-0.875,2.294,0
-0.179,-0.503,0.715,0
-0.294,-0.287,-1.148,0
-0.528,-0.109,-2.201,0
-1.088,-0.2,-2.513,0
-1.413,-0.356,-2.1,0
-1.481,-0.739,-0.608,0
-1.268,-0.999,0.228,0
-0.729,-1.212,1.095,0
-0.315,-1.263,1.432,0
0.088,-1.162,1.214,0
0.081,-1.076,0.684,0
0.048,-0.854,-0.591,0
-0.02,-0.653,-1.27,0
-0.017,-0.29,-2.276,0
-0.117,-0.093,-2.802,0
-0.328,-0.047,-3.458,0
-0.411,-0.065,-3.128,0
-0.553,-0.103,-2.041,0
-0.502,-0.044,-1.49,0
-0.353,0.038,-1.206,0
-0.369,0.144,-1.163,0
-0.523,0.206,-1.342,0
-0.607,0.213,-1.435,0
-0.871,0.255,-1.378,0
-0.969,0.226,-1.341,0
-1.009,0.117,-1.054,0
-1.011,0.108,-0.699,0
-1.023,0.057,-0.427,0
-1.025,0.035,-0.34,0
-0.962,0.071,-0.013,0
-0.747,0.103,0.118,0
-0.433,0.138,0.404,0
-0.198,0.288,0.778,0
0.015,0.415,1.547,0
-0.042,0.475,1.88,0
-0.245,0.579,1.863,0
-0.357,0.441,1.613,0
-0.253,0.462,1.569,0
-0.029,0.493,1.652,0
0.125,0.434,2.212,0
0.168,0.485,2.553,0
0.084,0.91,2.784,0
0.028,1.105,2.261,1
0.035,1.079,2.268,0
0.03,1.209,0.596,0
0.182,1.156,0.112,0
0.299,0.902,0.135,0
0.124,0.178,1.154,0
-0.164,-0.111,1.82,0
-0.166,-0.079,1.811,0
-0.371,-0.867,2.701,0
-0.555,-1.178,2.721,0
-0.493,-1.153,2.679,0
-0.264,-0.888,2.446,0
0.031,-0.649,1.887,0
0.3,-0.405,0.827,0
0.231,-0.377,0.125,0
-0.01,-0.402,-0.65,0
-0.095,-0.487,-0.946,0
-0.208,-0.725,-0.886,0
-0.177,-0.785,-0.691,0
0.01,-0.811,-0.462,0
0.107,-0.791,-0.367,0
0.172,-0.7,-0.429,0
0.205,-0.682,-0.663,0
0.151,-0.514,-1.333,0
0.168,-0.512,-1.335,0
0.199,-0.26,-1.905,0
0.218,-0.183,-1.904,0
0.155,-0.183,-1.491,0
0.065,-0.166,-1.318,0
-0.044,-0.112,-1.449,0
-0.093,0.029,-1.693,0
-0.247,0.122,-1.877,0
-0.421,0.148,-1.883,0
-0.38,0.144,-1.883,0
-0.479,0.359,-1.984,0
-0.369,0.426,-1.649,0
-0.408,0.393,-1.306,0
-0.403,0.38,-1.302,0
-0.468,0.187,-0.839,0
-0.328,0.149,-1.251,0
-0.185,0.175,-1.475,0
-0.191,0.143,-1.466,0
-0.191,0.233,-1.161,0
-0.043,0.307,0.011,0
0.011,0.348,0.269,0
-0.054,0.433,0.254,0
-0.149,0.393,0.141,0
-0.306,0.362,0.148,0
-0.218,0.361,0.23,0
-0.214,0.193,0.497,0
-0.32,0.171,0.907,0
-0.227,0.016,1.557,0
-0.03,0.007,2.291,0
0.41,-0.005,3.371,0
0.444,0.065,3.706,0
0.096,0.687,3.284,0
-0.216,0.81,1.872,1
-0.249,0.964,0.258,0
-0.078,1.184,-0.719,0
0.121,1.315,-1.494,0
0.088,1.298,-1.487,0
0.628,0.662,0.337,0
0.707,0.139,1.253,0
0.506,-0.754,3.01,0
0.313,-1.183,4.156,0
0.012,-1.425,5.032,0
-0.262,-1.163,3.865,0
-0.141,-0.653,1.512,0
-0.113,-0.304,-0.581,0
-0.224,0.181,-3.036,0
-0.447,0.241,-3.942,0
-0.848,0.131,-2.928,0
-0.953,-0.024,-1.45,0
-0.864,-0.364,0.515,0
-0.837,-0.744,1.596,0
-0.646,-0.977,2.39,0
-0.359,-1.019,2.491,0
-0.026,-0.94,1.932,0
-0.151,-0.824,1.285,0
-0.402,-0.547,0.156,0
-0.329,-0.333,-0.442,0
-0.135,0.022,-1.523,0
-0.038,0.181,-2.117,0
-0.001,0.283,-2.953,0
0.002,0.266,-3.113,0
-0.096,0.239,-2.592,0
-0.099,0.202,-2.072,0
-0.158,0.157,-1.335,0
-0.164,0.188,-1.055,0
-0.139,0.321,-1.135,0
-0.242,0.351,-1.274,0
-0.389,0.433,-1.773,0
-0.423,0.49,-1.992,0
-0.439,0.469,-1.985,0
-0.348,0.496,-1.11,0
-0.496,0.278,-0.197,0
-0.67,0.145,0.307,0
-0.772,0.072,0.851,0
-0.708,0.019,1.01,0
-0.664,-0.025,1.017,0
-0.563,0.01,0.906,0
-0.301,0.154,0.541,0
-0.255,0.329,0.562,0
-0.361,0.398,0.439,0
-0.448,0.326,0.435,0
-0.468,0.245,0.975,0
-0.41,0.14,1.5,0
-0.303,0.099,2.059,0
-0.212,0.104,2.106,0
-0.315,0.557,1.718,0
-0.303,0.697,0.802,0
-0.155,0.561,-0.124,0
-0.023,0.678,-0.585,1
0.323,0.666,-0.509,0
0.381,0.418,0.106,0
0.139,-0.314,1.696,0
-0.196,-0.475,2.493,0
-0.687,-0.806,3.425,0
-0.738,-0.938,3.56,0
-0.714,-0.845,2.865,0
-0.552,-0.654,2.03,0
-0.327,-0.363,1.177,0
-0.204,-0.185,0.47,0
-0.213,-0.044,-0.454,0
-0.28,-0.079,-0.946,0
-0.474,-0.258,-1.137,0
-0.516,-0.376,-0.813,0
-0.519,-0.646,0.194,0
-0.444,-0.809,1.154,0
-0.391,-0.951,1.859,0
-0.275,-0.945,1.729,0
-0.241,-0.892,1.019,0
-0.226,-0.865,0.604,0
-0.231,-0.791,-0.274,0
-0.172,-0.65,-0.848,0
-0.066,-0.447,-1.763,0
-0.008,-0.369,-2.266,0
0.036,-0.19,-2.568,0
-0.02,-0.158,-2.513,0
-0.075,-0.094,-1.852,0
-0.213,-0.113,-1.39,0
-0.421,-0.007,-1.29,0
-0.477,0.079,-1.588,0
-0.437,0.27,-2.24,0
-0.436,0.418,-2.45,0
-0.26,0.616,-2.564,0
-0.027,0.752,-2.4,0
0.234,0.876,-2.101,0
0.304,0.852,-1.765,0
0.393,0.783,-0.985,0
0.385,0.701,-0.595,0
0.285,0.655,-0.163,0
0.296,0.565,0.075,0
0.094,0.52,0.491,0
-0.077,0.475,0.734,0
-0.305,0.502,0.771,0
-0.334,0.622,0.407,0
-0.429,0.697,-0.023,0
-0.451,0.741,-0.082,0
-0.492,0.8,0.251,0
-0.558,0.719,0.789,0
-0.457,0.685,1.554,0
-0.414,0.657,1.712,0
-0.153,0.469,2.065,0
0.122,0.344,2.429,0
0.251,0.594,2.747,0
0.175,0.982,2.314,1
-0.079,0.98,0.49,0
-0.3,0.827,-0.399,0
-0.507,0.728,-1.05,0
-0.636,0.609,-0.991,0
-0.945,0.356,-0.032,0
-0.906,0.163,0.887,0
-0.838,-0.438,2.182,0
-0.692,-0.736,2.802,0
-0.582,-0.982,3.076,0
-0.507,-0.893,2.581,0
-0.385,-0.7,1.346,0
-0.528,-0.654,0.259,0
-0.936,-0.724,-1.465,0
-1.289,-0.814,-1.739,0
-1.67,-0.899,-1.064,0
-1.76,-0.975,-0.387,0
-1.574,-1.043,0.703,0
-1.264,-1.101,1.217,0
-0.752,-1.175,1.708,0
-0.541,-1.132,1.785,0
-0.192,-0.94,1.432,0
-0.141,-0.836,0.958,0
-0.107,-0.582,-0.117,0
-0.137,-0.438,-0.787,0
-0.088,-0.198,-1.818,0
-0.042,-0.108,-2.45,0
-0.103,-0.05,-2.561,0
-0.225,-0.138,-2.146,0
-0.274,-0.198,-1.409,0
-0.379,-0.161,-0.822,0
-0.445,-0.126,-0.642,0
-0.504,-0.009,-0.89,0
-0.511,0.25,-1.645,0
-0.448,0.37,-2.074,0
-0.488,0.482,-2.037,0
-0.516,0.46,-1.636,0
-0.605,0.374,-0.889,0
-0.654,0.357,-0.454,0
-0.704,0.352,-0.015,0
-0.507,0.391,0.056,0
-0.362,0.614,0.351,0
-0.388,0.615,0.347,0
-0.485,0.553,0.386,0
-0.539,0.664,0.653,0
-0.538,0.793,0.592,0
-0.615,0.814,0.5,0
-0.647,0.869,0.448,0
-0.545,0.839,0.667,0
-0.28,0.667,1.323,0
-0.12,0.534,1.589,0
0.64,0.583,2.091,0
0.93,0.744,2.31,0
0.677,1.182,1.704,0
0.397,1.169,0.564,0
0.228,0.879,-0.576,0
0.135,0.804,-0.712,1
-0.069,0.566,-0.399,0
-0.135,0.213,0.341,0
-0.12,0.255,0.328,0
-0.234,-0.488,3.234,0
-0.272,-0.902,4.618,0
-0.24,-1.085,5.211,0
-0.088,-1.005,4.75,0
0.023,-0.865,3.475,0
0.236,-0.579,1.87,0
0.395,-0.38,1.014,0
0.367,-0.187,-0.225,0
0.163,-0.278,-0.854,0
-0.221,-0.475,-1.285,0
-0.41,-0.631,-1.274,0
-0.506,-0.964,-0.664,0
-0.517,-1.08,0.027,0
-0.366,-1.133,0.411,0
-0.094,-1.035,0.235,0
0.29,-0.821,-0.681,0
0.44,-0.662,-1.358,0
0.54,-0.507,-2.312,0
0.529,-0.517,-2.483,0
0.353,-0.539,-1.869,0
0.27,-0.53,-1.468,0
0.155,-0.531,-1.015,0
0.007,-0.585,-0.645,0
-0.177,-0.53,-0.726,0
-0.271,-0.43,-1.239,0
-0.287,-0.139,-2.101,0
-0.078,0.132,-2.641,0
0.242,0.526,-3.15,0
0.287,0.686,-3.258,0
0.078,0.679,-2.878,0
-0.082,0.529,-2.215,0
-0.178,0.323,-1.142,0
-0.113,0.271,-0.516,0
-0.11,0.157,0.365,0
-0.103,0.124,0.625,0
0.104,0.265,0.536,0
0.231,0.373,0.202,0
0.552,0.625,-0.254,0
0.639,0.698,-0.259,0
0.454,0.678,-0.018,0
0.235,0.576,0.331,0
-0.055,0.468,1.132,0
-0.166,0.452,1.708,0
-0.206,0.481,2.211,0
-0.157,0.525,2.312,0
0.196,0.627,2.004,0
0.484,0.759,1.681,0
0.826,0.958,1.27,0
0.84,1.28,1.097,0
0.854,1.251,1.104,0
0.402,1.368,0.128,1
-0.016,1.19,-0.089,0
-0.127,0.889,0.161,0
-0.148,0.901,0.158,0
-0.035,0.251,1.671,0
0.325,-0.456,2.574,0
0.501,-0.843,3.681,0
0.674,-1.167,5.284,0
0.675,-1.295,5.873,0
0.506,-1.028,4.972,0
0.356,-0.732,2.745,0
0.228,-0.337,-0.397,0
0.011,-0.252,-1.991,0
-0.666,-0.221,-3.475,0
-1.025,-0.3,-3.539,0
-1.069,-0.237,-2.92,0
-1.023,-0.154,-1.883,0
-0.529,-0.244,-0.799,0
-0.293,-0.242,-0.516,0
-0.135,-0.285,-0.362,0
-0.143,-0.411,-0.351,0
-0.201,-0.571,-0.385,0
-0.244,-0.626,-0.502,0
-0.212,-0.626,-0.842,0
-0.151,-0.543,-1.157,0
0.113,-0.403,-1.593,0
0.194,-0.253,-1.443,0
0.158,-0.183,-1.279,0
-0.025,-0.188,-1.182,0
-0.447,-0.22,-0.875,0
-0.587,-0.233,-0.627,0
-0.626,-0.065,-0.543,0
-0.482,0.067,-0.734,0
-0.367,0.21,-1.211,0
-0.353,0.296,-1.717,0
-0.36,0.332,-2.129,0
-0.43,0.29,-1.927,0
-0.5,0.263,-1.253,0
-0.501,0.264,-0.743,0
-0.47,0.258,-0.393,0
-0.429,0.375,-0.216,0
-0.256,0.544,-0.255,0
-0.268,0.598,-0.192,0
-0.256,0.627,0.288,0
-0.312,0.707,0.681,0
-0.403,0.679,0.927,0
-0.404,0.659,0.977,0
-0.397,0.601,1.233,0
-0.385,0.457,1.607,0
-0.136,0.473,2.16,0
0.156,0.517,2.356,0
0.67,0.92,2.518,0
0.824,1.394,2.112,0
0.816,1.362,2.12,0
-0.032,1.274,0.226,1
-0.487,0.875,-0.227,0
-0.553,0.717,-0.139,0
-0.446,0.206,0.729,0
-0.366,-0.13,1.501,0
-0.583,-0.482,2.564,0
-0.709,-0.806,3.047,0
-0.713,-0.77,3.039,0
-0.758,-1.18,3.349,0
-0.218,-0.821,2.722,0
-0.006,-0.482,2.095,0
0.022,-0.475,2.091,0
-0.06,-0.329,0.717,0
-0.33,-0.41,0.002,0
-0.443,-0.478,-0.327,0
-0.458,-0.527,-0.73,0
-0.372,-0.648,-0.774,0
-0.215,-0.808,-0.352,0
-0.076,-0.781,-0.198,0
0.193,-0.719,-0.346,0
0.207,-0.698,-0.48,0
-0.001,-0.714,-0.523,0
-0.134,-0.707,-0.556,0
-0.267,-0.589,-0.856,0
-0.184,-0.49,-1.2,0
0.02,-0.216,-1.908,0
0.048,-0.099,-2.209,0
-0.105,-0.094,-2.263,0
-0.16,-0.054,-2.39,0
-0.111,0.097,-2.447,0
-0.107,0.202,-2.339,0
-0.238,0.298,-2.29,0
-0.291,0.328,-2.168,0
-0.464,0.315,-1.849,0
-0.46,0.351,-1.602,0
-0.503,0.465,-1.274,0
-0.388,0.429,-1.17,0
-0.335,0.445,-0.825,0
-0.209,0.535,-1.059,0
0.018,0.624,-1.692,0
0.264,0.717,-1.835,0
0.476,0.786,-1.682,0
0.469,0.726,-1.401,0
0.288,0.533,-0.308,0
0.074,0.336,0.65,0
-0.215,0.187,1.357,0
-0.211,0.165,1.273,0
-0.306,0.333,1.001,0
-0.237,0.434,0.758,0
-0.025,0.55,0.564,0
0.002,0.519,0.919,0
0.173,0.603,1.703,0
0.328,0.582,2.154,0
0.417,1.056,2.885,0
0.444,1.389,2.936,1
0.194,1.366,1.66,0
-0.166,1.185,0.622,0
-0.315,0.933,-0.055,0
-0.333,0.723,-0.019,0
-0.35,0.094,0.9,0
-0.233,-0.324,2.08,0
-0.107,-0.85,4.236,0
-0.092,-1.28,5.701,0
-0.022,-1.383,6.09,0
-0.124,-1.252,5.352,0
0.072,-0.571,2.358,0
0.073,-0.378,0.566,0
-0.306,-0.149,-2.273,0
-0.632,-0.054,-3.412,0
-1.103,-0.174,-3.559,0
-1.105,-0.22,-2.796,0
-0.577,-0.22,-1.223,0
-0.119,-0.225,-0.409,0
0.083,-0.448,0.347,0
0.088,-0.64,0.716,0
0.043,-0.793,0.996,0
0.054,-0.795,0.782,0
0.059,-0.609,-0.035,0
-0.025,-0.549,-0.57,0
-0.19,-0.484,-1.408,0
-0.343,-0.442,-1.883,0
-0.452,-0.347,-2.456,0
-0.44,-0.255,-2.617,0
-0.389,-0.123,-2.481,0
-0.411,-0.164,-2.245,0
-0.599,-0.095,-1.727,0
-0.705,-0.023,-1.669,0
-0.617,0.025,-1.752,0
-0.663,0.015,-1.386,0
-0.695,0.088,-0.905,0
-0.715,0.111,-0.805,0
-0.657,0.138,-0.843,0
-0.634,0.199,-0.711,0
-0.608,0.156,-0.496,0
-0.636,0.107,-0.354,0
-0.631,0.025,0.125,0
-0.585,-0.016,0.537,0
-0.562,-0.061,1.822,0
-0.453,0.038,2.066,0
-0.436,0.103,2.236,0
-0.484,0.205,2.175,0
-0.504,0.328,1.411,0
-0.503,0.306,1.154,0
-0.196,0.33,1.092,0
-0.103,0.328,1.414,0
0.189,0.357,1.983,0
0.219,0.533,2.245,0
-0.046,0.806,2.082,0
-0.123,0.887,1.319,1
-0.292,1.014,0.004,0
-0.353,1.013,-0.712,0
-0.101,0.916,-0.997,0
-0.014,0.748,-0.696,0
-0.154,0.273,0.848,0
-0.312,-0.158,1.738,0
-0.683,-0.691,2.993,0
-0.875,-1.134,3.905,0
-0.802,-1.252,4.803,0
-0.512,-1.041,4.663,0
0.006,-0.564,3.079,0
0.154,-0.245,1.74,0
0.19,-0.019,-0.032,0
0.208,0.084,-0.815,0
0.28,0.271,-1.813,0
0.344,0.217,-2.16,0
0.282,0.014,-2.081,0
0.196,-0.205,-1.57,0
-0.065,-0.525,-0.492,0
-0.228,-0.764,0.364,0
-0.236,-0.86,0.454,0
-0.122,-0.789,-0.039,0
0.126,-0.591,-1.05,0
0.129,-0.487,-1.479,0
-0.01,-0.359,-1.662,0
-0.146,-0.295,-1.73,0
-0.269,-0.176,-1.828,0
-0.372,-0.108,-2.07,0
-0.527,0.008,-2.452,0
-0.585,0.081,-2.669,0
-0.333,0.283,-2.924,0
-0.282,0.426,-2.853,0
-0.191,0.426,-2.286,0
-0.131,0.361,-1.841,0
-0.095,0.264,-0.861,0
-0.219,0.283,-0.457,0
-0.117,0.237,-0.323,0
-0.058,0.212,-0.263,0
0.146,0.333,-0.489,0
0.327,0.432,-0.775,0
0.491,0.47,-1.207,0
0.436,0.416,-1.223,0
0.27,0.266,-0.54,0
0.167,0.112,0.173,0
0.062,0.078,0.712,0
-0.041,0.124,0.797,0
-0.109,0.241,0.636,0
-0.133,0.329,0.424,0
-0.144,0.466,0.207,0
-0.138,0.435,0.215,0
0.296,0.601,0.562,0
0.354,0.504,0.98,0
0.217,0.54,2.031,0
0.093,0.667,2.335,0
0.146,0.792,1.992,0
0.126,0.907,1.36,1
0.12,0.902,1.361,0
0.005,0.699,0.579,0
0.103,0.382,1.175,0
0.381,-0.009,1.931,0
0.131,-0.602,3.576,0
-0.178,-1.251,4.868,0
-0.586,-1.709,5.848,0
-0.704,-1.594,5.507,0
-0.447,-1.089,3.048,0
-0.444,-1.091,3.049,0
0.152,-0.02,-1.398,0
0.089,0.173,-2.801,0
-0.216,0.419,-4.111,0
-0.474,0.355,-3.975,0
-0.662,0.217,-2.896,0
-0.698,0.237,-2.9,0
-0.73,-0.328,-0.389,0
-0.846,-0.557,0.411,0
-0.8,-0.86,1.078,0
-0.741,-0.914,1.192,0
-0.39,-0.783,0.892,0
-0.107,-0.6,0.459,0
-0.132,-0.604,0.462,0
0.114,-0.267,-1.347,0
-0.059,-0.228,-1.774,0
-0.222,-0.238,-1.973,0
-0.525,-0.283,-1.891,0
-0.617,-0.311,-1.762,0
-0.682,-0.34,-1.385,0
-0.592,-0.27,-1.338,0
-0.442,-0.081,-1.237,0
-0.362,0.07,-1.038,0
-0.276,0.208,-0.853,0
-0.236,0.302,-0.998,0
-0.256,0.407,-1.201,0
-0.394,0.385,-1.253,0
-0.669,0.264,-1.185,0
-0.807,0.161,-0.956,0
-0.875,0.091,-0.696,0
-0.774,0.001,-0.677,0
-0.611,0.004,0.039,0
-0.425,0.082,0.525,0
-0.428,0.085,0.525,0
-0.314,0.176,1.007,0
-0.428,0.224,1.015,0
-0.415,0.257,1.033,0
-0.329,0.265,1.315,0
-0.242,0.272,1.559,0
0.069,0.309,2.107,0
0.214,0.403,2.312,0
0.277,0.784,2.049,0
0.354,0.973,1.418,0
0.344,0.942,1.426,0
0.606,1.156,0.033,1
0.606,0.893,0.024,0
0.489,0.462,0.694,0
0.112,-0.284,2.38,0
-0.22,-0.617,3.403,0
-0.636,-1.171,5.19,0
-0.918,-1.507,5.885,0
-1.061,-1.622,5.29,0
-1.089,-1.388,4.024,0
-0.839,-1.097,2.132,0
-0.683,-0.849,0.976,0
-0.424,-0.498,-0.882,0
-0.299,-0.346,-1.55,0
-0.281,-0.239,-1.684,0
-0.237,-0.267,-1.422,0
0.031,-0.37,-1.05,0
0.145,-0.438,-0.658,0
0.413,-0.388,-0.303,0
0.604,-0.378,-0.202,0
0.942,-0.233,-0.375,0
1.007,-0.148,-0.569,0
0.899,-0.065,-0.959,0
0.826,-0.032,-1.28,0
0.869,0.126,-2.071,0
0.823,0.158,-2.496,0
0.564,0.148,-2.495,0
0.423,0.092,-2.404,0
0.165,-0.042,-2.109,0
0.12,0.001,-2.026,0
0.139,-0.015,-2.023,0
0.209,0.275,-1.624,0
0.231,0.466,-1.578,0
0.213,0.48,-1.732,0
0.188,0.583,-1.97,0
0.206,0.632,-2.092,0
0.287,0.678,-2.073,0
0.423,0.682,-1.896,0
0.503,0.694,-1.532,0
0.565,0.727,-1.303,0
0.573,0.719,-1.301,0
0.83,0.549,-0.069,0
0.917,0.48,0.618,0
0.844,0.4,0.979,0
0.806,0.472,1.094,0
0.798,0.534,0.726,0
0.547,0.519,0.12,0
0.596,0.573,-0.145,0
0.51,0.568,0.426,0
0.461,0.554,0.845,0
0.366,0.512,1.317,0
0.392,0.366,1.736,0
0.153,0.326,2.239,0
-0.171,0.573,1.95,0
-0.406,0.698,0.932,0
-0.634,0.653,0.124,1
-0.483,0.689,-0.865,0
-0.385,0.73,-1.223,0
-0.309,0.678,-0.767,0
-0.017,0.512,0.082,0
0.437,0.144,2.048,0
0.588,-0.231,3.498,0
0.657,-0.736,5.549,0
0.713,-0.903,5.734,0
0.676,-0.853,4.358,0
0.645,-0.576,2.863,0
0.49,-0.417,0.737,0
0.063,-0.355,-0.392,0
-0.606,-0.317,-1.807,0
-0.996,-0.325,-2.118,0
-1.151,-0.298,-1.878,0
-0.868,-0.166,-1.176,0
-0.21,-0.142,-0.3,0
0.004,-0.269,0.205,0
0.028,-0.487,0.341,0
-0.059,-0.624,0.346,0
-0.129,-0.658,0.108,0
-0.192,-0.598,-0.308,0
-0.308,-0.44,-0.923,0
-0.326,-0.331,-1.262,0
-0.32,-0.326,-1.263,0
-0.301,-0.039,-2.2,0
-0.21,0.027,-2.031,0
-0.255,0.031,-1.718,0
-0.281,0.064,-1.198,0
-0.117,0.136,-1.028,0
-0.371,0.204,-1.192,0
-0.573,0.176,-1.404,0
-0.717,0.269,-1.685,0
-0.683,0.359,-1.767,0
-0.498,0.483,-1.737,0
-0.419,0.495,-1.447,0
-0.487,0.453,-0.945,0
-0.59,0.407,-0.724,0
-0.649,0.218,-0.244,0
-0.732,0.121,0.014,0
-0.59,0.1,0.37,0
-0.653,0.063,0.545,0
-0.46,0.199,0.627,0
-0.295,0.381,0.726,0
-0.296,0.371,0.728,0
-0.583,0.541,0.856,0
-0.732,0.441,0.968,0
-0.548,0.378,1.385,0
-0.193,0.411,2.19,0
-0.039,0.437,2.365,0
0.151,0.667,2.396,0
0.144,1.09,1.999,0
0.122,1.096,0.427,0
0.11,0.888,-0.244,1
0.012,0.853,-0.343,0
0.057,0.649,0.248,0
0.414,0.278,1.765,0
0.395,0.116,2.617,0
0.218,-0.315,3.277,0
0.096,-0.714,3.393,0
0.086,-0.973,3.414,0
0.056,-1.069,3.391,0
-0.288,-1.062,2.981,0
-0.518,-0.917,2.156,0
-0.487,-0.905,2.152,0
-0.409,-0.515,-0.25,0
-0.151,-0.284,-1.173,0
-0.064,-0.188,-1.282,0
0.194,-0.112,-1.293,0
0.28,-0.233,-0.984,0
0.281,-0.229,-0.985,0
0.27,-0.373,-0.327,0
0.333,-0.502,-0.253,0
0.312,-0.52,-0.161,0
0.253,-0.581,-0.277,0
0.184,-0.535,-0.459,0
0.081,-0.487,-0.945,0
0.052,-0.43,-1.454,0
0.249,-0.216,-1.919,0
0.242,-0.063,-1.894,0
0.178,0.046,-2.124,0
0.086,0.064,-2.332,0
-0.127,0.089,-2.241,0
-0.339,0.11,-2.268,0
-0.436,0.264,-2.504,0
-0.449,0.365,-2.65,0
-0.344,0.486,-2.876,0
-0.101,0.664,-2.823,0
0.11,0.789,-2.371,0
0.157,0.71,-1.829,0
0.104,0.56,-0.946,0
0.072,0.471,-0.418,0
0.136,0.401,0.266,0
0.143,0.406,0.466,0
0.245,0.399,0.374,0
0.272,0.35,0.348,0
0.329,0.416,0.399,0
0.351,0.518,0.34,0
0.321,0.561,0.436,0
0.255,0.598,0.509,0
0.151,0.536,0.8,0
0.131,0.516,1.238,0
0.142,0.562,1.614,0
0.072,0.57,1.918,0
0.084,0.671,2.216,0
-0.071,1.015,2.141,0
-0.164,1.529,1.029,0
-0.155,1.519,0.374,1
-0.254,1.283,0.374,0
-0.133,1.12,0.452,0
0.169,1.007,1.403,0
0.515,0.672,2.283,0
0.622,-0.072,3.932,0
0.401,-0.68,5.368,0
0.306,-1.37,6.649,0
0.282,-1.283,6.668,0
0.304,-0.877,4.449,0
0.126,-0.583,2.044,0
0.115,-0.293,-0.222,0
-0.139,-0.153,-1.699,0
-0.702,-0.145,-3.107,0
-0.818,-0.117,-3.244,0
-0.632,-0.105,-2.46,0
-0.49,-0.348,-1.35,0
-0.316,-0.7,-0.154,0
-0.205,-0.901,0.223,0
-0.248,-0.892,0.221,0
-0.172,-1.136,-0.255,0
-0.158,-1.135,-0.81,0
-0.177,-1.085,-1.082,0
-0.225,-0.939,-1.516,0
-0.327,-0.839,-2.01,0
-0.315,-0.655,-2.943,0
-0.297,-0.578,-3.387,0
-0.41,-0.57,-3.065,0
-0.461,-0.551,-2.439,0
-0.401,-0.421,-1.945,0
-0.574,-0.373,-1.672,0
-0.691,-0.285,-1.499,0
-0.754,-0.211,-1.566,0
-0.756,-0.207,-1.567,0
-0.497,0.134,-1.558,0
-0.222,0.201,-1.546,0
-0.11,0.247,-1.559,0
-0.092,0.202,-1.344,0
-0.038,0.207,-1.061,0
-0.084,0.102,-0.607,0
-0.136,0.082,-0.289,0
-0.303,-0.057,0.367,0
-0.303,-0.221,0.766,0
-0.277,-0.128,1.315,0
-0.192,-0.024,1.289,0
0.006,0.125,1.008,0
0.071,0.222,0.85,0
0.121,0.271,0.906,0
0.182,0.225,1.198,0
0.394,0.245,1.594,0
0.502,0.386,1.796,0
0.478,0.952,2.007,0
0.448,1.369,1.49,0
0.876,1.241,0.459,0
1.053,1.254,0.329,1
1.059,1.256,0.328,0
0.59,0.66,1.546,0
0.326,-0.129,2.54,0
-0.049,-0.394,3.454,0
-0.28,-0.875,4.394,0
-0.326,-1.061,5.093,0
-0.143,-1.11,5.273,0
-0.161,-0.97,4.63,0
-0.231,-0.57,2.855,0
-0.082,-0.3,1.467,0
-0.059,-0.109,-0.059,0
-0.188,-0.054,-1.184,0
-0.301,-0.049,-2.006,0
-0.289,-0.061,-2.071,0
-0.183,-0.228,-1.395,0
-0.053,-0.352,-0.509,0
0.128,-0.482,0.633,0
0.282,-0.455,0.767,0
0.391,-0.463,0.399,0
0.288,-0.491,-0.01,0
0.168,-0.491,-0.682,0
0.278,-0.431,-1.073,0
0.038,-0.24,-1.626,0
-0.179,-0.522,-2.139,0
-0.059,-0.18,-2.69,0
-0.021,-0.157,-2.797,0
0.28,0,-2.723,0
0.266,0.047,-2.375,0
0.246,0.079,-2.16,0
0.013,0.03,-2.108,0
-0.365,-0.041,-2.108,0
-0.382,0.081,-2.298,0
-0.211,0.321,-2.63,0
-0.119,0.458,-2.724,0
0.132,0.681,-2.812,0
0.239,0.759,-2.689,0
0.234,0.749,-2.686,0
0.254,0.712,-1.479,0
0.256,0.628,-0.762,0
0.224,0.601,-0.099,0
0.161,0.421,0.327,0
0.091,0.354,0.397,0
0.059,0.423,0.274,0
0.047,0.515,0.055,0
0.031,0.618,-0.143,0
-0.072,0.548,0.104,0
-0.243,0.49,0.803,0
-0.26,0.483,1.169,0
-0.045,0.595,1.374,0
0.118,0.621,1.628,0
0.309,0.631,2.052,0
0.213,0.757,2.221,0
-0.338,1.18,1.362,1
-0.549,1.088,0.637,0
-0.585,0.907,0.015,0
-0.508,0.897,-0.219,0
-0.34,0.598,0.581,0
-0.126,0.357,1.844,0
0.042,0.074,3.597,0
0.147,-0.32,4.936,0
0.46,-0.711,5.761,0
0.491,-0.791,5.448,0
0.149,-0.689,3.897,0
-0.122,-0.435,1.999,0
-0.156,-0.22,-0.103,0
-0.313,-0.093,-1.664,0
-0.709,-0.099,-3.104,0
-0.911,-0.164,-3.162,0
-0.879,-0.209,-2.138,0
-0.679,-0.26,-1.203,0
-0.405,-0.615,-0.036,0
-0.411,-0.873,0.358,0
-0.366,-1.117,0.67,0
-0.299,-1.157,0.623,0
-0.209,-1.111,0.137,0
-0.338,-1.077,-0.326,0
-0.492,-1.007,-1.06,0
-0.521,-0.886,-1.651,0
-0.395,-0.735,-2.282,0
-0.276,-0.545,-2.465,0
-0.188,-0.453,-2.364,0
-0.283,-0.353,-2.085,0
-0.294,-0.341,-2.088,0
-0.557,-0.24,-1.553,0
-0.558,-0.226,-1.557,0
-0.568,0.134,-1.914,0
-0.489,0.371,-2.076,0
-0.471,0.44,-2.044,0
-0.487,0.445,-2.044,0
-0.339,0.437,-1.52,0
-0.47,0.36,-0.945,0
-0.482,0.242,-0.145,0
-0.495,0.276,0.753,0
-0.643,0.323,0.995,0
-0.698,0.344,0.81,0
-0.724,0.447,0.552,0
-0.663,0.591,0.234,0
-0.568,0.711,0.124,0
-0.356,0.896,0.21,0
-0.254,1.037,0.567,0
-0.459,0.827,0.991,0
-0.635,0.668,1.082,0
-0.474,0.317,1.809,0
-0.219,0.236,2.461,0
-0.108,0.255,2.909,0
-0.156,0.649,2.913,0
-0.13,0.929,1.809,0
0.323,0.99,0.732,1
0.535,1.177,-0.092,0
0.433,1.014,-0.022,0
0.347,0.36,0.86,0
0.157,-0.184,1.746,0
-0.292,-0.736,3.157,0
-0.561,-1.252,4.236,0
-0.639,-1.417,4.867,0
-0.508,-1.359,4.351,0
-0.236,-0.888,3.075,0
-0.014,-0.528,1.863,0
0.057,-0.267,0.611,0
0.16,-0.142,-0.049,0
0.346,-0.086,-0.277,0
0.417,-0.18,0.026,0
0.487,-0.398,0.575,0
0.555,-0.521,0.66,0
0.667,-0.572,0.321,0
0.729,-0.551,0.023,0
0.782,-0.505,-0.489,0
0.81,-0.397,-1.004,0
0.713,-0.36,-1.625,0
0.646,-0.242,-2.204,0
0.476,-0.18,-2.793,0
0.311,-0.204,-2.882,0
0.078,-0.17,-2.627,0
0.022,-0.101,-2.443,0
-0.211,-0.021,-2.396,0
-0.383,0.024,-2.373,0
-0.51,0.152,-2.518,0
-0.49,0.237,-2.718,0
-0.577,0.373,-3.121,0
-0.693,0.404,-3.293,0
-0.759,0.361,-3.239,0
-0.763,0.272,-2.749,0
-0.612,0.095,-1.471,0
-0.571,0.079,-0.759,0
-0.207,0.169,-0.12,0
0.039,0.252,0.242,0
0.088,0.302,0.499,0
0.032,0.23,0.536,0
0.089,0.249,0.419,0
0.154,0.316,0.322,0
0.194,0.467,0.356,0
0.221,0.497,0.446,0
0.298,0.583,0.393,0
0.298,0.574,0.684,0
0.113,0.594,1.068,0
0.11,0.58,1.423,0
0.23,0.68,2.109,0
0.352,0.694,2.743,0
0.707,0.792,3.214,0
0.823,1.005,2.992,0
0.366,1.499,1.779,0
-0.002,1.462,0.628,1
0.009,1.417,0.64,0
-0.201,1.146,-0.521,0
-0.244,0.691,0.254,0
-0.272,0.242,1.434,0
-0.239,-0.541,3.213,0
-0.116,-1.155,4.685,0
0.159,-1.614,6.073,0
0.147,-1.712,6.245,0
-0.049,-1.322,4.376,0
-0.069,-0.863,1.979,0
0.073,-0.44,-0.572,0
-0.079,-0.168,-2.168,0
-0.153,0.098,-3.467,0
-0.234,0.084,-3.399,0
-0.429,0.043,-2.203,0
-0.499,-0.074,-1.393,0
-0.429,-0.427,-0.348,0
-0.461,-0.613,0.086,0
-0.452,-0.809,0.162,0
-0.37,-0.897,-0.107,0
-0.106,-0.895,-0.571,0
0.495,-0.764,-0.791,0
0.425,-0.477,-1.2,0
0.537,-0.437,-1.481,0
0.169,-0.313,-2.166,0
-0.027,-0.28,-2.525,0
-0.225,-0.332,-2.495,0
-0.391,-0.247,-2.256,0
-0.491,-0.202,-1.945,0
-0.473,-0.031,-1.778,0
-0.417,0.071,-1.757,0
-0.354,0.179,-1.825,0
-0.418,0.299,-1.881,0
-0.418,0.353,-1.902,0
-0.449,0.326,-1.517,0
-0.488,0.299,-1.034,0
-0.572,0.278,-0.485,0
-0.685,0.205,-0.048,0
-0.862,0.057,0.484,0
-0.898,0.014,0.614,0
-0.809,0.072,0.447,0
-0.625,0.119,0.298,0
-0.422,0.209,0.302,0
-0.307,0.275,0.319,0
-0.332,0.325,0.567,0
-0.168,0.481,0.849,0
-0.065,0.571,0.898,0
-0.073,0.56,1.089,0
-0.196,0.443,1.601,0
-0.209,0.374,2.027,0
0.06,0.283,2.636,0
0.204,0.278,2.768,0
0.237,0.632,2.352,0
0.035,1.072,1.377,1
-0.062,0.975,0.181,0
0.088,0.878,-0.113,0
0.404,0.842,0.187,0
0.654,0.507,0.941,0
0.477,0.082,2.072,0
-0.036,0.046,2.7,0
-0.349,-0.191,2.801,0
-0.42,-0.167,2.21,0
-0.58,-0.013,0.691,0
-0.607,0.03,0.077,0
-0.386,0.134,-0.275,0
-0.105,0.187,-0.341,0
0.107,0.115,-0.205,0
0.038,-0.024,-0.141,0
-0.335,-0.5,-0.134,0
-0.522,-0.751,-0.209,0
-0.6,-1.069,0.057,0
-0.449,-1.236,0.088,0
-0.343,-1.3,0.309,0
-0.302,-1.31,0.321,0
-0.414,-1.274,-0.082,0
-0.419,-1.132,-0.444,0
-0.365,-0.867,-1.09,0
-0.237,-0.569,-1.835,0
0.11,-0.034,-2.929,0
0.228,0.234,-3.527,0
0.265,0.462,-3.887,0
0.132,0.525,-3.531,0
-0.029,0.512,-2.786,0
-0.202,0.493,-2.069,0
-0.326,0.521,-1.415,0
-0.308,0.583,-1.189,0
-0.341,0.685,-0.941,0
-0.241,0.773,-0.981,0
0.004,1.019,-1.288,0
0.052,1.028,-1.58,0
0.153,1.08,-1.619,0
0.071,0.938,-1.324,0
0.066,0.76,-1.036,0
0.107,0.61,-0.578,0
0.083,0.277,0.414,0
0.072,0.285,1.022,0
0.092,0.231,1.357,0
-0.049,0.237,1.149,0
-0.017,0.228,1.152,0
-0.359,0.414,0.098,0
-0.219,0.476,0.165,0
-0.147,0.485,0.598,0
-0.085,0.276,1.57,0
0.036,0.301,2.193,0
0.345,0.261,2.785,0
0.379,0.438,3.18,1
0.301,1.235,2.408,0
0.197,1.531,0.576,0
-0.131,1.384,-0.878,0
-0.31,1.3,-1.024,0
-0.607,1.155,-0.877,0
-0.578,0.738,-0.408,0
-0.116,-0.049,1.344,0
0.075,-0.678,3.572,0
0.204,-1.434,6.726,0
0.262,-1.651,8.323,0
0.449,-1.269,6.924,0
0.401,-0.754,3.861,0
0.282,-0.282,0.434,0
0.068,-0.03,-1.878,0
-0.256,0.171,-3.707,0
-0.705,-0.022,-3.764,0
-0.993,-0.391,-1.804,0
-1.032,-0.356,-1.812,0
-0.801,-1.125,1.16,0
-0.795,-1.408,2.127,0
-0.84,-1.373,2.12,0
-0.156,-1.282,0.924,0
0.137,-1.037,-0.29,0
0.275,-0.874,-1.13,0
0.294,-0.665,-2.196,0
0.161,-0.589,-2.618,0
-0.018,-0.556,-2.967,0
-0.17,-0.525,-3.102,0
-0.268,-0.572,-2.891,0
-0.32,-0.496,-2.32,0
-0.439,-0.358,-1.71,0
-0.42,-0.236,-1.611,0
-0.408,0.029,-1.851,0
-0.443,0.147,-1.907,0
-0.508,0.256,-1.839,0
-0.482,0.259,-1.763,0
-0.602,0.284,-1.298,0
-0.611,0.252,-1.081,0
-0.651,0.199,-0.951,0
-0.658,0.206,-0.952,0
-0.767,0.035,0.069,0
-0.901,0.016,0.462,0
-0.704,-0.089,0.437,0
-0.613,-0.074,0.918,0
-0.363,0.1,1.784,0
-0.344,0.183,2.073,0
-0.063,0.413,1.803,0
0.184,0.6,1.674,0
0.062,0.528,1.408,0
-0.06,0.357,1.283,0
-0.019,0.198,1.536,0
0.139,0.137,1.96,0
0.036,0.267,2.309,0
-0.155,0.648,2.236,0
-0.188,0.98,1.294,0
-0.21,1.178,0.649,1
0.01,1.264,-0.209,0
0.465,1.201,-0.418,0
0.819,0.914,0.456,0
0.603,0.576,1.367,0
0.184,0.098,2.31,0
-0.184,-0.232,3.237,0
-0.565,-0.534,3.57,0
-0.684,-0.583,3.112,0
-0.696,-0.661,2.388,0
-0.674,-0.662,1.675,0
-0.473,-0.661,0.99,0
-0.319,-0.439,0.63,0
-0.121,-0.459,0.252,0
-0.186,-0.493,0.019,0
-0.176,-0.585,-0.206,0
-0.225,-0.756,-0.144,0
-0.388,-0.918,0.185,0
-0.423,-1.028,0.597,0
-0.263,-1.034,0.64,0
-0.096,-0.904,0.245,0
0.127,-0.68,-0.428,0
0.315,-0.494,-1.277,0
0.4,-0.242,-2.177,0
0.308,-0.12,-2.577,0
0.267,0.059,-2.98,0
0.252,0.171,-3.169,0
0.283,0.323,-3.232,0
0.146,0.345,-3.021,0
-0.006,0.258,-2.581,0
-0.18,0.226,-2.278,0
-0.351,0.2,-2.102,0
-0.325,0.267,-2.034,0
-0.221,0.334,-1.998,0
-0.208,0.387,-1.979,0
0.025,0.485,-1.874,0
0.125,0.491,-1.808,0
0.128,0.481,-1.806,0
0.012,0.237,-1.409,0
-0.203,-0.037,-0.22,0
-0.342,-0.16,0.285,0
-0.284,-0.124,0.524,0
-0.196,-0.028,0.436,0
-0.073,0.183,0.23,0
-0.061,0.272,0.198,0
-0.011,0.442,0.239,0
0.014,0.415,0.569,0
0.107,0.5,1.129,0
0.153,0.477,1.335,0
0.106,0.468,1.883,0
0.089,0.417,2.333,0
0.12,0.408,2.698,0
-0.002,0.791,2.657,0
-0.109,1.295,1.395,0
0.084,1.42,0.665,1
0.395,1.729,-0.658,0
0.475,1.683,-1.17,0
0.328,1.277,-0.711,0
0.135,0.735,0.647,0
0.019,-0.226,2.837,0
-0.199,-0.769,4.43,0
-0.597,-1.538,5.988,0
-0.692,-1.668,6.829,0
-0.404,-1.117,4.615,0
-0.233,-0.685,2.598,0
0.063,-0.207,0.112,0
-0.086,0.097,-1.734,0
-0.357,0.232,-3.476,0
-0.697,0.164,-3.825,0
-1.022,-0.121,-2.526,0
-0.96,-0.351,-1.453,0
-0.614,-0.588,0.023,0
-0.346,-0.686,0.77,0
-0.057,-0.947,1.579,0
0.162,-0.927,1.547,0
0.326,-0.796,0.681,0
0.374,-0.682,-0.335,0
0.402,-0.495,-1.48,0
0.423,-0.472,-2.313,0
0.282,-0.456,-2.928,0
0.147,-0.475,-2.846,0
0.061,-0.46,-2.474,0
0.019,-0.483,-1.924,0
0.037,-0.329,-1.489,0
0.047,-0.194,-1.658,0
-0.074,-0.031,-1.938,0
-0.232,0.111,-2.106,0
-0.368,0.229,-2.354,0
-0.397,0.264,-2.288,0
-0.502,0.321,-2.029,0
-0.512,0.269,-1.771,0
-0.454,0.288,-1.391,0
-0.409,0.297,-1.24,0
-0.445,0.21,-0.724,0
-0.362,0.206,-0.196,0
-0.196,0.214,0.549,0
-0.227,0.156,1.003,0
-0.444,0.11,1.613,0
-0.711,-0.051,2.037,0
-0.926,-0.114,2.164,0
-0.818,0.028,1.893,0
-0.599,0.092,1.993,0
-0.408,0.295,2.065,0
-0.102,0.444,2.253,0
0.223,0.564,2.186,0
0.229,0.543,2.191,0
0.329,1.302,1.031,0
0.504,1.369,-0.013,0
0.554,1.398,-0.384,1
0.546,1.109,-0.085,0
0.588,0.508,1.04,0
0.283,-0.161,2.742,0
-0.137,-0.566,3.837,0
-0.511,-1.018,4.934,0
-0.661,-1.177,5.11,0
-0.648,-1.168,4.036,0
-0.613,-0.979,2.771,0
-0.491,-0.807,1.295,0
-0.418,-0.776,0.6,0
-0.248,-0.663,0.024,0
-0.111,-0.646,-0.497,0
0.137,-0.667,-0.873,0
0.222,-0.738,-1.001,0
0.138,-0.902,-1.311,0
0.099,-0.979,-1.476,0
0.043,-1.093,-1.051,0
0.223,-0.951,-0.546,0
0.313,-0.853,-0.003,0
0.356,-0.757,-0.042,0
0.317,-0.564,-0.638,0
0.24,-0.455,-1.195,0
0.17,-0.232,-1.756,0
0.168,-0.082,-1.957,0
0.223,0.081,-2.488,0
0.294,0.216,-3.188,0
0.263,0.402,-3.54,0
0.214,0.446,-3.183,0
0.176,0.522,-2.436,0
0.258,0.54,-1.964,0
0.225,0.565,-1.477,0
0.22,0.66,-1.361,0
0.262,0.747,-1.523,0
0.343,0.764,-1.619,0
0.519,0.834,-1.667,0
0.482,0.912,-1.673,0
0.524,0.872,-1.558,0
0.613,0.85,-1.21,0
0.775,0.924,-0.233,0
0.844,0.746,0.706,0
0.605,0.557,1.618,0
0.449,0.473,1.726,0
0.131,0.497,1.511,0
0.093,0.455,1.338,0
0.011,0.512,1.169,0
-0.052,0.573,1.148,0
-0.089,0.525,1.321,0
0.18,0.498,1.626,0
0.296,0.409,2.255,0
0.21,0.331,2.4,0
-0.338,0.609,2.367,0
-0.649,0.732,1.696,1
-0.625,0.892,0.415,0
-0.526,0.957,-0.293,0
-0.529,0.876,-0.631,0
-0.522,0.666,-0.365,0
-0.414,0.183,0.655,0
-0.241,-0.17,1.696,0
-0.365,-0.876,3.231,0
-0.733,-1.551,4.489,0
-0.795,-1.886,5.463,0
-0.983,-1.851,5.001,0
-0.647,-1.284,2.491,0
-0.402,-0.956,0.901,0
-0.377,-0.578,-1.615,0
-0.623,-0.375,-2.84,0
-1.005,-0.448,-3.092,0
-1.127,-0.501,-2.607,0
-1.098,-0.583,-1.435,0
-0.723,-0.636,-0.573,0
-0.146,-0.493,0.139,0
0.247,-0.391,0.515,0
0.623,-0.341,0.634,0
0.682,-0.251,0.466,0
0.673,-0.19,-0.091,0
0.666,-0.154,-0.691,0
0.483,-0.064,-1.37,0
0.309,-0.093,-1.88,0
0.152,-0.067,-2.545,0
-0.046,-0.119,-2.732,0
-0.21,-0.166,-2.44,0
-0.238,-0.167,-2.17,0
-0.295,-0.013,-1.909,0
-0.2,0.193,-1.861,0
-0.214,0.378,-1.919,0
-0.18,0.529,-2.058,0
-0.147,0.665,-2.209,0
-0.108,0.729,-2.246,0
-0.086,0.762,-2.289,0
-0.012,0.765,-2.26,0
0.037,0.66,-1.852,0
0,0.494,-1.34,0
0.124,0.437,-0.612,0
0.133,0.407,-0.001,0
0.065,0.281,0.811,0
-0.079,0.162,1.55,0
-0.336,0.101,2.442,0
-0.489,0.062,2.73,0
-0.608,0.114,2.59,0
-0.539,0.256,2.141,0
-0.415,0.367,1.225,0
-0.359,0.379,0.87,0
-0.151,0.472,1.154,0
-0.147,0.694,1.694,0
-0.242,1.152,1.476,0
-0.014,1.296,0.813,0
0.459,1.56,-0.162,0
0.738,1.646,-0.53,1
0.682,1.08,0.381,0
0.241,0.353,1.479,0
-0.409,-0.483,3.367,0
-0.662,-1.163,5.348,0
-0.795,-1.623,7.128,0
-0.571,-1.587,7.364,0
-0.356,-1.236,6.197,0
-0.345,-0.934,4.53,0
-0.413,-0.516,1.742,0
-0.393,-0.321,0.349,0
-0.26,-0.005,-1.533,0
-0.203,0.043,-2.177,0
-0.126,-0.026,-2.446,0
0.044,-0.202,-2.338,0
0.18,-0.415,-1.512,0
0.099,-0.633,-0.822,0
-0.064,-0.831,-0.136,0
-0.095,-0.877,0.019,0
-0.145,-0.891,-0.214,0
-0.171,-0.868,-0.657,0
-0.158,-0.787,-1.295,0
-0.101,-0.688,-1.754,0
-0.025,-0.544,-2.471,0
0.022,-0.456,-3.009,0
-0.066,-0.414,-3.046,0
-0.128,-0.404,-2.655,0
-0.266,-0.39,-1.663,0
-0.305,-0.324,-1.33,0
-0.27,-0.128,-1.506,0
-0.287,-0.057,-1.947,0
-0.346,0.04,-2.617,0
-0.338,0.123,-3.025,0
-0.154,0.21,-2.991,0
-0.069,0.216,-2.414,0
-0.077,0.141,-1.355,0
0.028,0.192,-0.591,0
0.178,0.276,0.115,0
0.384,0.401,0.237,0
0.469,0.537,0.033,0
0.407,0.535,-0.285,0
0.277,0.6,-0.318,0
0.152,0.6,-0.058,0
0.23,0.575,0.383,0
0.106,0.526,0.954,0
0.012,0.568,1.151,0
0.203,0.528,1.306,0
0.329,0.695,2.154,0
0.34,0.734,2.639,0
0.39,0.695,2.874,0
0.474,0.685,2.874,0
0.16,0.859,2.476,0
-0.265,1.082,1.735,1
-0.248,1.046,1.743,0
-0.512,1.224,-0.369,0
-0.585,1.066,-1.359,0
-0.465,0.808,-1.255,0
-0.121,0.381,0.069,0
-0.022,-0.2,1.57,0
-0.385,-0.95,3.962,0
-0.507,-1.458,5.747,0
-0.341,-1.46,6.398,0
-0.16,-1.175,5.034,0
-0.054,-0.576,1.894,0
0.021,-0.334,0.158,0
-0.451,-0.133,-2.502,0
-0.787,-0.108,-3.524,0
-1.089,-0.289,-3.296,0
-1.145,-0.361,-2.16,0
-0.81,-0.535,-0.509,0
-0.565,-0.644,0.407,0
-0.338,-0.784,1.093,0
-0.128,-0.784,1.124,0
0.16,-0.75,0.685,0
0.305,-0.623,0.141,0
0.316,-0.517,-0.609,0
0.21,-0.459,-1.168,0
0.031,-0.415,-1.773,0
-0.012,-0.386,-2.13,0
-0.044,-0.36,-2.127,0
-0.124,-0.267,-1.915,0
-0.191,-0.254,-1.39,0
-0.199,-0.199,-1.146,0
-0.221,-0.017,-1.075,0
-0.284,0.041,-1.099,0
-0.36,0.201,-1.134,0
-0.313,0.317,-1.353,0
-0.101,0.531,-1.598,0
-0.039,0.589,-1.722,0
0.043,0.656,-1.785,0
0.115,0.581,-1.665,0
-0.037,0.502,-1.201,0
-0.153,0.336,-0.691,0
-0.396,0.082,0.155,0
-0.506,0.056,0.807,0
-0.513,0.133,1.273,0
-0.509,0.236,1.253,0
-0.534,0.342,1.002,0
-0.465,0.492,0.827,0
-0.436,0.516,1.026,0
-0.341,0.517,1.329,0
-0.048,0.521,1.5,0
0.187,0.553,1.673,0
0.335,0.83,2.214,0
0.494,1.138,2.253,0
0.619,1.399,1.202,0
0.503,1.409,0.462,0
0.288,1.177,-0.557,0
0.08,0.916,-0.537,1
-0.144,0.431,0.663,0
-0.224,-0.023,1.857,0
-0.211,0.048,1.841,0
-0.637,-1.118,4.075,0
-0.759,-1.609,5.076,0
-0.899,-1.702,5.277,0
-1.06,-1.61,4.558,0
-0.928,-1.285,3.305,0
-0.533,-0.766,1.067,0
-0.233,-0.44,-0.25,0
0.152,-0.137,-1.448,0
0.277,-0.076,-1.935,0
0.32,-0.209,-1.954,0
0.304,-0.324,-1.554,0
0.338,-0.522,-0.759,0
0.438,-0.594,-0.36,0
0.62,-0.506,0.093,0
0.703,-0.487,0.052,0
0.718,-0.325,-0.667,0
0.662,-0.19,-1.418,0
0.44,-0.108,-2.103,0
0.321,-0.047,-2.65,0
0.182,0.109,-3.31,0
0.066,0.092,-3.479,0
0.062,0.169,-3.125,0
0.099,0.234,-2.744,0
-0.081,0.018,-1.628,0
-0.291,0.033,-1.079,0
-0.226,0.188,-1.168,0
-0.15,0.353,-1.462,0
-0.21,0.507,-2.015,0
-0.153,0.587,-2.384,0
-0.001,0.816,-2.453,0
0.11,0.858,-2.241,0
0.117,0.726,-1.544,0
-0.011,0.594,-1.018,0
-0.058,0.436,-0.285,0
0.03,0.35,0.429,0
0.07,0.282,1.05,0
0.102,0.311,1.222,0
0.138,0.392,1.5,0
0.262,0.475,1.516,0
0.035,0.693,1.244,0
0.098,0.572,1.117,0
0.089,0.648,1.35,0
0.131,0.558,1.665,0
0.303,0.443,1.765,0
0.229,0.416,1.815,0
-0.089,0.741,2.094,0
-0.303,0.846,1.661,0
-0.384,1.109,0.381,0
-0.326,1.125,-0.261,1
-0.284,1.099,-0.762,0
-0.273,0.901,-0.427,0
0.496,0.197,1.845,0
0.69,-0.336,4.296,0
0.545,-1.295,7.336,0
0.463,-1.878,8.671,0
0.314,-1.752,7.561,0
0.304,-1.181,4.632,0
0.5,-0.602,0.869,0
0.38,-0.282,-2.026,0
-0.306,-0.017,-4.759,0
-0.834,-0.198,-4.483,0
-0.955,-0.294,-2.405,0
-0.534,-0.441,-0.754,0
-0.349,-0.711,0.608,0
-0.495,-1.09,1.309,0
-0.462,-1.351,1.45,0
-0.355,-1.285,0.705,0
-0.259,-1.099,-0.486,0
-0.157,-1.019,-1.071,0
-0.248,-1.005,-1.631,0
-0.308,-0.946,-1.958,0
-0.346,-0.848,-2.338,0
-0.311,-0.673,-2.747,0
-0.28,-0.402,-3.228,0
-0.207,-0.188,-3.282,0
-0.124,-0.066,-2.843,0
-0.132,-0.003,-2.381,0
-0.278,-0.023,-1.883,0
-0.394,-0.057,-1.522,0
-0.559,-0.079,-1.313,0
-0.551,-0.074,-1.315,0
-0.651,-0.034,-1.236,0
-0.443,0.034,-1.274,0
-0.392,0.105,-0.982,0
-0.335,0.123,-0.928,0
-0.397,0.134,-0.581,0
-0.433,0.106,-0.27,0
-0.425,0.168,0.165,0
-0.529,0.154,0.53,0
-0.618,0.168,0.742,0
-0.681,0.268,0.735,0
-0.82,0.444,0.474,0
-0.794,0.452,0.07,0
-0.648,0.513,-0.025,0
-0.458,0.422,0.152,0
-0.45,0.198,0.569,0
-0.08,0.245,1.039,0
0.398,0.656,1.875,0
0.367,1.167,2.037,0
0.326,1.201,1.25,0
0.234,1.045,0.713,1
0.239,1.045,0.713,0
0.112,0.684,0.901,0
0.168,0.294,1.844,0
0.357,-0.033,2.608,0
0.689,-0.537,3.154,0
0.7,-0.892,3.574,0
0.564,-1.344,3.951,0
0.291,-1.443,4.093,0
-0.034,-1.308,3.697,0
0.057,-1.062,2.757,0
0.153,-0.711,1.303,0
0.234,-0.501,0.281,0
0.403,-0.13,-1.108,0
0.588,-0.117,-1.686,0
0.583,-0.239,-1.682,0
0.689,-0.261,-1.439,0
0.916,-0.313,-1.122,0
1.054,-0.4,-0.919,0
1.034,-0.583,-0.729,0
0.91,-0.646,-0.561,0
0.774,-0.632,-0.192,0
0.707,-0.567,-0.161,0
0.638,-0.358,-0.728,0
0.659,-0.21,-1.315,0
0.531,-0.038,-1.977,0
0.432,0.073,-2.323,0
0.271,0.155,-2.696,0
0.147,0.109,-2.806,0
-0.013,0.06,-2.499,0
-0.022,0.06,-1.897,0
0.017,0.064,-1.322,0
0.014,0.129,-1.201,0
-0.006,0.204,-1.295,0
-0.11,0.266,-1.447,0
-0.174,0.321,-1.525,0
-0.145,0.416,-1.508,0
0.014,0.51,-1.521,0
0.078,0.519,-1.425,0
0.143,0.453,-0.869,0
0.28,0.444,-0.242,0
0.444,0.472,0.62,0
0.365,0.448,1.216,0
0.189,0.469,1.556,0
0.177,0.559,1.58,0
0.295,0.557,1.498,0
0.324,0.507,1.5,0
0.431,0.445,1.719,0
0.716,0.397,1.947,0
0.972,0.538,2.202,0
1.015,0.805,2.209,0
0.546,1.47,1.451,0
0.293,1.646,0.452,0
0.191,1.61,-0.476,0
0.08,1.597,-0.852,1
-0.138,1.398,-0.866,0
0.076,0.829,-0.547,0
0.828,-0.364,1.583,0
0.881,-1.308,4.871,0
0.599,-2.438,9.611,0
0.375,-2.885,11.458,0
0.294,-2.332,9.651,0
0.255,-1.694,5.797,0
0.45,-1.008,1.481,0
0.31,-0.504,-1.359,0
-0.132,-0.216,-3.899,0
-0.374,-0.187,-4.349,0
-0.224,-0.19,-2.988,0
0.243,-0.288,-1.791,0
0.583,-0.53,-0.409,0
0.617,-0.839,0.178,0
0.709,-1.101,0.276,0
0.819,-1.01,-0.277,0
0.92,-0.878,-1.163,0
0.998,-0.791,-1.698,0
0.944,-0.652,-2.581,0
0.679,-0.642,-3.196,0
0.244,-0.635,-3.561,0
0.093,-0.623,-3.505,0
-0.048,-0.662,-3.199,0
-0.154,-0.688,-2.8,0
-0.354,-0.595,-2.861,0
-0.542,-0.78,-2.584,0
-0.316,-0.325,-2.466,0
-0.18,-0.135,-2.431,0
-0.158,-0.018,-2.245,0
-0.242,0,-2.024,0
-0.39,-0.117,-1.6,0
-0.377,-0.135,-1.295,0
-0.276,-0.098,-0.831,0
-0.221,-0.053,-0.616,0
-0.093,0.07,-0.506,0
-0.137,0.191,-0.48,0
-0.193,0.209,-0.57,0
-0.219,0.253,-0.382,0
-0.273,0.161,0.424,0
-0.237,0.059,1.1,0
-0.433,0.088,1.792,0
-0.438,0.121,2.258,0
-0.34,0.218,2.582,0
-0.153,0.334,2.438,0
0.25,0.437,1.751,0
0.476,0.421,1.486,0
0.46,0.394,1.493,0
0.909,1.009,1.889,0
0.847,1.343,1.965,0
0.86,1.281,1.498,1
0.873,1.278,1.499,0
0.47,0.691,1.441,0
0.538,0.113,2.677,0
0.581,-0.264,3.273,0
0.382,-0.432,3.949,0
0.303,-0.609,4.353,0
0.598,-0.512,3.755,0
0.984,-0.252,2.504,0
1.339,0.008,0.884,0
1.502,0.18,0.014,0
1.607,0.367,-0.643,0
1.564,0.255,-0.98,0
1.338,0.1,-0.928,0
1.093,-0.241,-0.666,0
0.68,-0.514,-0.182,0
0.525,-0.663,0.1,0
0.569,-0.627,0.092,0
0.284,-0.917,0.185,0
0.328,-0.895,-0.191,0
0.453,-0.787,-0.611,0
0.481,-0.663,-1.255,0
0.501,-0.572,-1.793,0
0.486,-0.509,-2.458,0
0.258,-0.485,-2.594,0
0.118,-0.418,-2.467,0
0.074,-0.353,-2.318,0
0.074,-0.139,-2.292,0
0.174,0.155,-2.499,0
0.157,0.454,-2.969,0
0.144,0.701,-3.361,0
0.094,0.962,-3.483,0
-0.044,0.979,-3.233,0
-0.208,0.825,-2.293,0
-0.315,0.698,-1.475,0
-0.416,0.472,-0.364,0
-0.426,0.357,0.437,0
-0.338,0.294,1.342,0
-0.171,0.319,1.734,0
0.266,0.525,1.625,0
0.623,0.764,1.22,0
0.954,0.984,0.633,0
1.004,1.029,0.188,0
0.921,1.067,-0.179,0
0.939,1.035,-0.224,0
0.803,0.933,0.327,0
0.635,0.823,1.09,0
0.382,0.757,1.939,0
0.329,0.734,2.315,0
0.514,0.818,2.4,0
0.608,0.963,1.959,0
0.611,1.395,1.033,0
0.604,1.668,0.713,1
0.61,1.614,0.728,0
0.72,1.865,-0.048,0
-0.106,1.623,-0.307,0
-0.408,1.347,0.624,0
-0.318,0.769,1.491,0
-0.045,0.184,1.753,0
0.361,-0.762,3.085,0
0.471,-1.454,5.25,0
0.623,-1.993,7.798,0
0.689,-2.098,8.245,0
0.694,-1.475,5.397,0
0.634,-0.843,2.161,0
0.696,-0.484,-1.143,0
0.28,-0.199,-3.07,0
-0.323,-0.339,-3.906,0
-0.662,-0.494,-3.226,0
-0.387,-0.401,-1.321,0
0.042,-0.371,-0.609,0
0.353,-0.356,-0.021,0
0.35,-0.511,-0.141,0
0.294,-0.481,-0.873,0
0.292,-0.486,-1.483,0
0.259,-0.416,-1.939,0
0.204,-0.437,-2.303,0
0.014,-0.431,-2.769,0
-0.174,-0.485,-3.13,0
-0.238,-0.507,-3.346,0
-0.224,-0.487,-2.995,0
-0.063,-0.43,-2.265,0
-0.046,-0.373,-1.868,0
-0.031,-0.298,-1.713,0
-0.118,-0.274,-1.604,0
-0.18,-0.247,-1.621,0
-0.197,-0.209,-1.808,0
-0.151,-0.16,-2.07,0
-0.077,-0.147,-2.222,0
-0.002,-0.172,-2.152,0
0.056,-0.166,-1.684,0
0.23,-0.204,-1.125,0
0.226,-0.157,-0.742,0
0.146,-0.206,-0.377,0
0.083,-0.294,-0.139,0
0.009,-0.246,0.242,0
0.035,-0.282,0.496,0
-0.01,-0.276,1.207,0
-0.018,-0.243,1.431,0
-0.004,-0.06,1.582,0
0.094,0.057,1.674,0
0.301,0.327,1.411,0
0.378,0.546,1.238,0
0.167,1.098,1.079,0
-0.225,1.408,0.728,0
0.996,1.853,-0.241,0
1.625,2.135,-0.818,0
1.67,1.711,-0.382,0
0.945,0.739,1.078,1
0.933,0.809,1.06,0
-0.431,-1.183,5.188,0
-0.764,-1.821,7.428,0
-0.787,-1.892,8.097,0
-0.266,-1.641,7.244,0
0.21,-1.075,5.809,0
0.727,-0.269,3.42,0
0.926,0.118,2.187,0
1.22,0.542,0.516,0
1.35,0.663,-0.484,0
1.469,0.683,-1.266,0
1.662,0.521,-1.217,0
1.705,0.241,-0.362,0
1.631,-0.062,0.28,0
1.522,-0.345,0.242,0
1.46,-0.463,-0.148,0
1.347,-0.571,-1.003,0
1.325,-0.54,-1.577,0
1.097,-0.595,-2.354,0
0.973,-0.581,-2.902,0
0.811,-0.538,-3.524,0
0.614,-0.692,-3.601,0
0.386,-0.792,-2.805,0
0.413,-0.699,-2.172,0
0.599,-0.48,-1.795,0
0.722,-0.25,-1.949,0
0.665,-0.04,-2.512,0
0.55,-0.012,-2.913,0
0.44,0.01,-3.012,0
0.549,0.079,-2.761,0
0.444,0.009,-1.875,0
0.32,-0.119,-1.199,0
0.124,-0.252,-0.127,0
-0.025,-0.284,0.217,0
-0.065,-0.249,0.315,0
-0.006,-0.194,0.31,0
0.288,0.025,-0.012,0
0.468,0.14,-0.268,0
0.81,0.36,-0.25,0
0.787,0.528,-0.091,0
0.399,0.5,-0.038,0
0.131,0.377,0.472,0
-0.075,0.4,1.39,0
-0.177,0.355,2.009,0
-0.136,0.486,2.802,0
0.204,0.566,2.642,0
0.524,0.56,2.28,0
0.651,0.477,2.207,0
0.813,0.56,2.151,0
0.587,0.942,2.128,1
0.469,1.194,1.717,0
0.273,1.24,0.979,0
-0.345,1.166,-0.17,0
-0.633,0.887,-0.325,0
-0.957,0.678,0.14,0
-0.407,0.445,0.36,0
0.296,0.259,0.694,0
0.756,-0.104,1.442,0
0.853,-0.621,2.8,0
0.605,-0.9,3.159,0
0.326,-0.818,1.912,0
0.312,-0.613,0.581,0
0.366,-0.38,-0.497,0
0.051,-0.223,-0.891,0
-0.466,-0.344,-1.29,0
-0.729,-0.518,-1.183,0
-0.881,-0.747,-0.483,0
-0.616,-0.916,0.529,0
-0.173,-1.123,1.685,0
-0.031,-1.196,2.096,0
0.058,-1.321,1.839,0
0.054,-1.257,0.931,0
0.117,-1.098,-0.465,0
0.185,-0.931,-1.454,0
0.15,-0.794,-2.391,0
0.09,-0.743,-2.731,0
-0.043,-0.755,-2.649,0
-0.218,-0.75,-2.177,0
-0.171,-0.634,-1.878,0
-0.065,-0.515,-1.708,0
-0.134,-0.303,-1.306,0
-0.15,-0.17,-1.285,0
-0.092,-0.012,-1.291,0
-0.039,0.125,-1.123,0
0.031,0.24,-1.061,0
0.113,0.312,-1.02,0
0.195,0.403,-1.031,0
0.082,0.354,-0.957,0
-0.261,0.182,-0.913,0
-0.393,0.125,-0.975,0
-0.607,0.13,-0.673,0
-0.496,0.097,-0.489,0
-0.705,-0.015,0.032,0
-0.782,-0.06,0.6,0
-0.825,0.012,1.332,0
-0.579,0.105,1.301,0
-0.184,0.217,0.744,0
0.164,0.391,0.749,0
0.776,0.553,1.1,0
0.971,0.638,1.581,0
0.978,0.758,2.231,0
0.686,0.916,2.548,0
0.431,1.362,2.089,0
0.591,1.401,1.222,0
0.944,1.396,0.322,0
1.15,1.359,0.328,1
1.485,0.912,1.232,0
1.431,0.772,2.161,0
1.319,0.459,2.548,0
1.295,0.285,2.587,0
1.113,-0.028,2.099,0
0.787,-0.132,1.655,0
0.514,-0.237,1.151,0
0.298,-0.186,0.62,0
0.046,-0.247,-0.122,0
-0.034,-0.214,-0.753,0
-0.188,-0.264,-0.983,0
-0.271,-0.385,-0.667,0
-0.297,-0.6,-0.225,0
-0.216,-0.702,-0.025,0
0.133,-0.717,-0.167,0
0.572,-0.635,-0.239,0
0.856,-0.62,0.235,0
0.845,-0.717,0.561,0
0.531,-0.9,0.741,0
0.342,-0.974,0.423,0
0.086,-0.904,-0.27,0
0.096,-0.803,-0.782,0
0.271,-0.506,-1.656,0
0.426,-0.387,-2.161,0
0.576,-0.142,-2.315,0
0.694,0.061,-2.364,0
0.846,0.298,-2.608,0
0.866,0.376,-3.001,0
0.56,0.385,-2.485,0
0.318,0.31,-1.915,0
0.03,0.278,-1.513,0
-0.142,0.228,-1.487,0
-0.048,0.168,-1.119,0
0.113,0.267,-0.548,0
0.259,0.278,-0.214,0
0.375,0.252,-0.353,0
0.74,0.416,-0.079,0
1.029,0.568,0.175,0
1.159,0.549,0.324,0
0.801,0.377,1.13,0
0.311,0.087,2.28,0
0.067,-0.003,2.449,0
0.073,0.076,2.126,0
0.274,0.247,1.457,0
0.486,0.466,0.66,0
0.496,0.415,0.676,0
0.744,0.422,1.525,0
0.703,0.347,2.052,0
0.345,0.548,2.234,0
0.074,0.572,1.517,1
-0.037,0.867,0.441,0
0.093,0.897,-0.376,0
0.454,1.121,-1.63,0
0.716,1.222,-1.982,0
1.126,0.886,-0.919,0
1.235,0.273,0.717,0
1.073,-0.583,3.347,0
0.774,-1.212,5.107,0
0.266,-1.677,5.966,0
0.019,-1.629,4.448,0
0.041,-1.361,1.992,0
0.049,-1.256,0.132,0
-0.238,-0.96,-1.407,0
-0.457,-0.98,-1.397,0
-0.188,-1.011,-0.259,0
0.072,-1.088,0.523,0
0.135,-1.26,0.72,0
-0.094,-1.46,0.789,0
-0.138,-1.442,0.507,0
0.098,-1.267,0.073,0
0.386,-0.94,-0.426,0
0.351,-0.839,-0.879,0
0.313,-0.607,-1.893,0
0.307,-0.496,-2.37,0
0.254,-0.391,-2.546,0
0.187,-0.349,-2.587,0
-0.066,-0.418,-2.248,0
-0.285,-0.406,-1.922,0
-0.403,-0.321,-1.567,0
-0.31,-0.247,-1.33,0
0.097,0.187,-1.516,0
0.279,0.344,-1.899,0
0.533,0.605,-2.182,0
0.773,0.769,-2.087,0
0.721,0.784,-1.824,0
0.539,0.696,-1.617,0
0.544,0.693,-1.616,0
0.008,0.428,-0.642,0
-0.204,0.362,-0.342,0
-0.207,0.3,-0.313,0
-0.487,0.082,-0.287,0
-0.527,0.12,-0.095,0
-0.451,0.177,0.671,0
-0.37,0.244,1.145,0
-0.077,0.285,1.49,0
-0.041,0.38,1.452,0
-0.062,0.299,1.171,0
0.059,0.296,1.033,0
0.067,0.203,1.604,0
0.05,0.203,2.057,0
-0.2,0.598,2.514,0
0.091,0.816,2.146,0
0.619,0.986,1.199,0
0.98,1.071,0.784,1
1.233,0.782,1.145,0
1.318,0.36,2.009,0
0.859,-0.108,2.985,0
0.722,-0.341,3.131,0
0.632,-0.532,3.138,0
0.639,-0.503,2.659,0
0.716,-0.389,1.493,0
0.923,-0.212,0.686,0
0.954,-0.187,0.223,0
0.957,-0.346,0.202,0
0.634,-0.613,0.849,0
0.387,-0.826,1.157,0
-0.086,-1.148,1.17,0
-0.269,-1.251,1.061,0
-0.086,-1.236,0.712,0
0.23,-1.13,0.582,0
0.683,-0.97,0.374,0
0.848,-0.872,0.164,0
0.609,-0.875,-0.339,0
0.508,-0.815,-0.889,0
0.462,-0.53,-1.708,0
0.236,-0.53,-2.375,0
0.085,-0.506,-2.505,0
0.223,-0.423,-2.169,0
0.786,-0.022,-1.74,0
1.15,0.188,-1.755,0
1.233,0.336,-2.057,0
1.094,0.33,-2.273,0
0.737,0.312,-2.407,0
0.541,0.307,-2.432,0
0.376,0.336,-2.537,0
0.279,0.301,-2.619,0
0.051,0.18,-2.255,0
0.056,0.167,-2.251,0
0.266,0.189,-1.691,0
0.44,0.244,-1.272,0
0.456,0.217,-0.664,0
0.42,0.189,-0.393,0
0.555,0.209,0.043,0
0.578,0.175,0.211,0
0.471,0.285,0.553,0
0.425,0.333,0.516,0
0.456,0.448,0.367,0
0.444,0.463,0.749,0
0.601,0.346,1.366,0
0.664,0.337,2.39,0
0.569,0.066,3.566,0
0.629,0.011,4.181,0
0.569,0.17,4.944,0
0.495,0.623,5.037,0
0.233,1.353,2.385,0
0.213,1.414,0.503,1
0.165,1.567,-1.029,0
0.014,1.427,-1.413,0
-0.006,0.817,-0.306,0
0.411,0.137,1.387,0
0.885,-0.811,3.969,0
0.891,-1.394,5.619,0
0.664,-1.888,7.155,0
0.48,-1.832,6.034,0
0.292,-1.26,2.401,0
0.319,-0.972,0.044,0
-0.076,-0.737,-2.531,0
-0.248,-0.603,-3.376,0
-0.332,-0.698,-2.641,0
-0.048,-0.753,-1.221,0
0.298,-0.889,-0.043,0
0.279,-1.088,0.505,0
0.136,-1.367,0.525,0
0.272,-1.217,-0.069,0
0.577,-1.056,-0.766,0
0.817,-0.874,-1.519,0
0.784,-0.665,-2.58,0
0.566,-0.686,-3.033,0
0.307,-0.64,-3.066,0
0.407,-0.544,-3.021,0
0.515,-0.304,-2.6,0
0.462,-0.153,-2.283,0
0.204,-0.326,-1.542,0
0.182,-0.092,-1.5,0
0.228,0.012,-1.703,0
0.221,0.174,-1.687,0
0.188,0.251,-1.71,0
0.241,0.303,-1.775,0
0.241,0.298,-1.774,0
0.304,0.314,-1.562,0
0.103,0.175,-1.378,0
-0.031,0.076,-0.509,0
-0.145,-0.055,0.349,0
-0.085,0.088,0.477,0
-0.082,0.085,0.478,0
0.255,0.273,-0.087,0
0.193,0.244,-0.115,0
0.14,0.27,-0.08,0
0.104,0.242,0.135,0
0.222,0.294,0.403,0
0.218,0.284,0.592,0
0.294,0.235,0.67,0
0.431,0.182,0.73,0
0.538,0.111,1.128,0
0.566,0.169,2.104,0
0.376,0.653,2.607,0
-0.009,1.395,1.783,0
-0.024,1.404,0.837,1
-0.008,1.391,0.842,0
-0.103,0.968,-0.01,0
-0.146,0.113,1.475,0
-0.351,-0.352,2.91,0
-0.455,-1.042,4.51,0
-0.776,-1.264,5.259,0
-0.644,-1.593,5.733,0
-0.839,-1.447,5.463,0
-0.877,-1.15,4.189,0
-0.667,-0.856,2.774,0
-0.315,-0.45,1.055,0
0.033,-0.23,-0.013,0
0.366,-0.078,-1.208,0
0.468,-0.209,-1.372,0
0.507,-0.603,-0.267,0
0.392,-0.929,0.731,0
0.293,-1.068,1.323,0
0.228,-1.115,1.154,0
0.185,-1.099,0.354,0
0.206,-0.984,-0.345,0
0.176,-0.832,-1.292,0
0.238,-0.712,-1.952,0
0.318,-0.458,-2.764,0
0.393,-0.32,-3.294,0
0.574,-0.093,-3.853,0
0.599,-0.055,-3.617,0
0.528,-0.082,-2.761,0
0.388,-0.179,-2.2,0
0.148,-0.212,-1.221,0
0.097,-0.065,-1.27,0
0.09,0.074,-1.817,0
0.056,0.196,-2.205,0
0.067,0.335,-2.415,0
0.16,0.439,-2.431,0
0.135,0.572,-2.376,0
0.191,0.575,-2.236,0
0.187,0.443,-1.57,0
0.11,0.316,-0.945,0
0.127,0.252,0,0
0.099,0.189,0.38,0
-0.054,0.106,0.661,0
-0.067,0.072,0.754,0
-0.115,0.113,0.818,0
-0.009,0.208,0.704,0
0.34,0.431,0.879,0
0.333,0.405,1.158,0
0.321,0.489,1.654,0
0.236,0.282,2.247,0
-0.053,0.04,3.209,0
-0.022,-0.025,3.478,0
-0.452,0.298,3.167,0
-0.61,0.736,2.207,0
-0.475,1.108,0.658,0
-0.284,1.416,-0.516,1
-0.376,1.512,-1.137,0
-0.423,1.377,-0.995,0
0.251,0.751,0.677,0
0.475,-0.071,2.43,0
0.188,-1.257,5.486,0
-0.178,-2.094,7.596,0
-0.42,-2.423,7.659,0
-0.426,-2.378,7.645,0
-0.298,-1.619,2.626,0
-0.104,-1.071,0.044,0
-0.077,-0.528,-2.78,0
-0.208,-0.435,-3.465,0
-0.385,-0.402,-3.054,0
-0.534,-0.58,-1.847,0
-0.426,-0.731,-0.673,0
-0.591,-1.008,0.059,0
-0.595,-1.312,0.812,0
-0.293,-1.33,0.769,0
0.099,-1.182,0.331,0
0.327,-1.104,-0.061,0
0.396,-0.959,-0.846,0
0.415,-0.894,-1.484,0
0.277,-0.808,-2.133,0
0.069,-0.872,-2.623,0
-0.253,-0.918,-3.01,0
-0.372,-0.856,-3.226,0
-0.388,-0.779,-2.973,0
-0.357,-0.649,-2.786,0
-0.215,-0.413,-2.582,0
-0.048,-0.163,-2.379,0
0.075,0.094,-1.911,0
0.092,0.215,-1.696,0
0.061,0.361,-1.641,0
-0.044,0.373,-1.538,0
-0.203,0.349,-1.463,0
-0.137,0.388,-1.482,0
-0.063,0.349,-1.181,0
-0.1,0.375,-0.743,0
-0.191,0.321,-0.323,0
-0.133,0.253,-0.091,0
-0.014,0.321,0.667,0
-0.024,0.294,1.214,0
-0.156,0.34,1.877,0
-0.273,0.345,2.061,0
-0.442,0.383,2.3,0
-0.512,0.476,2.503,0
-0.305,0.569,2.351,0
-0.105,0.689,2.428,0
0.314,0.888,2.637,0
0.478,1.084,2.662,0
0.177,1.37,2.125,0
0.045,1.229,1.537,1
-0.122,1.046,0.908,0
-0.139,0.908,0.649,0
-0.237,0.591,0.727,0
-0.273,0.395,1.033,0
-0.395,0.07,1.92,0
-0.464,-0.253,2.278,0
-0.45,-0.546,2.341,0
-0.38,-0.778,2.534,0
-0.325,-0.823,2.831,0
-0.357,-0.713,2.606,0
-0.333,-0.578,1.627,0
-0.274,-0.41,0.579,0
-0.246,-0.277,-0.897,0
-0.362,-0.382,-1.394,0
-0.394,-0.495,-1.422,0
-0.336,-0.601,-1.421,0
-0.197,-0.79,-1.131,0
-0.173,-0.886,-0.685,0
-0.066,-0.943,0.12,0
0.049,-0.884,0.602,0
0.154,-0.779,0.487,0
0.04,-0.763,0.2,0
-0.168,-0.749,-0.501,0
-0.283,-0.709,-0.941,0
-0.331,-0.699,-1.459,0
-0.318,-0.594,-1.772,0
-0.184,-0.568,-1.984,0
-0.06,-0.5,-1.541,0
0.211,-0.292,-1.072,0
0.226,-0.297,-1.071,0
0.179,-0.084,-1.271,0
0.081,0.005,-1.668,0
0.095,-0.017,-1.661,0
-0.074,0.137,-2.383,0
-0.102,0.231,-2.619,0
-0.141,0.184,-2.592,0
0.047,0.234,-2.491,0
0.267,0.256,-2.099,0
0.32,0.157,-0.928,0
0.214,0.124,-0.49,0
0.283,0.119,0.268,0
0.386,0.106,0.696,0
0.318,0.114,0.943,0
0.174,0.127,0.692,0
0.192,0.105,0.7,0
0.271,0.36,-0.192,0
0.378,0.481,0.229,0
0.468,0.497,0.64,0
0.494,0.556,0.954,0
0.489,0.501,1.511,0
0.423,0.266,2.253,0
0.236,0.104,3.047,0
0.011,0.479,3.936,0
-0.053,0.878,3.393,0
-0.125,1.077,1.563,0
-0.286,0.973,0.486,1
-0.284,0.939,0.498,0
-0.219,0.564,0.328,0
0.079,0.068,1.632,0
0.306,-0.27,2.471,0
0.396,-0.964,3.996,0
0.487,-1.263,4.77,0
0.647,-1.235,4.51,0
0.575,-0.935,2.782,0
0.485,-0.482,0.064,0
0.388,-0.334,-1.533,0
-0.033,-0.207,-2.897,0
-0.469,-0.393,-3.192,0
-0.935,-0.583,-2.349,0
-0.87,-0.645,-1.292,0
-0.424,-0.728,-0.397,0
-0.207,-0.881,-0.043,0
0.152,-0.956,0.139,0
0.33,-1.05,0.105,0
0.413,-1.204,0.178,0
0.421,-1.221,0.209,0
0.275,-1.173,-0.186,0
0.117,-1.127,-0.821,0
-0.091,-0.967,-1.748,0
-0.14,-0.828,-2.274,0
-0.042,-0.667,-2.683,0
-0.129,-0.671,-2.278,0
-0.168,-0.654,-1.651,0
-0.071,-0.516,-1.326,0
-0.155,-0.394,-1.241,0
-0.212,-0.254,-1.524,0
-0.275,-0.06,-1.88,0
-0.321,0.084,-1.82,0
-0.326,0.087,-1.821,0
-0.593,0.285,-1.294,0
-0.515,0.348,-1.281,0
-0.581,0.315,-1.128,0
-0.613,0.379,-0.862,0
-0.588,0.385,-0.618,0
-0.515,0.408,-0.206,0
-0.358,0.329,0.194,0
-0.369,0.33,0.193,0
-0.098,0.152,1.014,0
-0.144,0.018,1.767,0
-0.203,0.024,2.277,0
-0.216,0.159,2.222,0
-0.141,0.275,1.61,0
-0.147,0.408,1.379,0
-0.101,0.402,1.294,0
0.216,0.626,1.313,0
0.446,0.759,1.463,0
0.334,1.174,1.637,0
0.25,1.159,1.371,1
0.139,0.822,1.421,0
-0.007,0.44,1.941,0
-0.242,-0.081,3.151,0
-0.22,-0.37,3.537,0
-0.266,-0.533,3.729,0
-0.375,-0.511,3.594,0
-0.348,-0.557,2.826,0
-0.267,-0.49,2.023,0
-0.239,-0.347,0.887,0
-0.132,-0.264,0.287,0
-0.023,-0.122,-0.306,0
0.073,-0.094,-0.511,0
0.157,-0.028,-0.77,0
0.201,-0.079,-0.913,0
0.217,-0.093,-1.277,0
0.334,-0.045,-1.457,0
0.613,-0.087,-1.476,0
0.86,-0.096,-1.468,0
1.061,-0.227,-1.49,0
1.113,-0.399,-1.143,0
0.787,-0.759,-0.119,0
0.417,-0.997,0.378,0
-0.185,-1.256,0.567,0
-0.378,-1.185,0.171,0
-0.382,-0.972,-0.657,0
-0.12,-0.728,-1.407,0
0.146,-0.352,-2.177,0
0.134,-0.252,-2.54,0
0.18,-0.117,-2.774,0
0.282,-0.034,-2.6,0
0.27,0.146,-1.989,0
0.172,0.183,-1.634,0
-0.264,0.014,-1.176,0
-0.424,0.174,-1.369,0
-0.27,0.369,-2.019,0
-0.096,0.542,-2.133,0
0.17,0.764,-2.299,0
0.317,0.88,-2.315,0
0.368,0.731,-1.477,0
0.305,0.57,-0.658,0
0.144,0.299,0.452,0
0.009,0.089,0.977,0
0.074,0.144,1.262,0
0.156,0.225,1.086,0
0.207,0.415,0.431,0
0.137,0.452,0.082,0
0.099,0.5,-0.013,0
0.257,0.55,0.062,0
0.139,0.405,1.354,0
0.067,0.343,2.026,0
0.153,0.271,2.547,0
0.043,0.101,2.916,0
0.018,0.546,3.332,0
-0.011,0.913,2.716,1
-0.006,0.989,1.25,0
0.25,1.051,0.622,0
0.281,1.119,0.132,0
0.007,0.864,0.448,0
0.013,0.135,1.605,0
0.22,-0.322,2.662,0
0.345,-1.217,4.858,0
0.028,-1.539,5.931,0
0.174,-1.904,6.051,0
0.096,-1.725,4.511,0
0.234,-1.127,1.724,0
0.39,-0.81,-0.419,0
0.007,-0.511,-2.843,0
-0.281,-0.485,-3.56,0
-0.44,-0.569,-2.792,0
-0.402,-0.646,-1.262,0
-0.448,-0.656,-0.116,0
-0.455,-0.742,0.054,0
-0.435,-0.908,-0.016,0
-0.198,-0.866,-0.173,0
0.19,-0.808,-0.484,0
0.251,-0.786,-0.539,0
0.302,-0.756,-0.498,0
0.184,-0.758,-0.577,0
-0.024,-0.704,-0.949,0
-0.256,-0.694,-1.355,0
-0.484,-0.668,-1.718,0
-0.58,-0.589,-1.694,0
-0.378,-0.286,-1.738,0
-0.134,-0.02,-1.819,0
-0.023,0.236,-2.185,0
-0.014,0.37,-2.45,0
-0.06,0.449,-2.532,0
-0.048,0.461,-2.318,0
-0.215,0.324,-1.675,0
-0.382,0.221,-1.229,0
-0.441,0.144,-0.968,0
-0.527,0.142,-0.657,0
-0.551,0.307,-0.372,0
-0.539,0.4,-0.369,0
-0.681,0.506,-0.305,0
-0.776,0.546,-0.455,0
-0.696,0.51,-0.452,0
-0.567,0.4,0.008,0
-0.656,0.478,0.684,0
-0.856,0.449,0.555,0
-0.623,0.409,0.639,0
-0.175,0.592,1.123,0
0.203,0.786,1.346,0
0.138,0.763,1.522,0
-0.015,0.683,1.763,0
-0.097,0.636,2.284,0
-0.219,0.895,2.654,0
-0.437,1.18,2.315,1
-0.511,1.186,1.25,0
-0.48,1.016,0.65,0
-0.37,0.929,0.161,0
-0.295,0.733,0.387,0
-0.295,0.752,0.381,0
-0.461,-0.478,2.831,0
-0.939,-1.079,4.411,0
-0.998,-1.365,4.939,0
-0.842,-1.485,4.643,0
-0.622,-1.273,3.617,0
-0.4,-0.823,1.917,0
-0.281,-0.556,0.573,0
-0.113,-0.299,-0.892,0
-0.09,-0.308,-1.364,0
-0.283,-0.434,-1.036,0
-0.39,-0.606,-0.398,0
-0.423,-0.845,-0.14,0
-0.418,-0.922,-0.224,0
-0.308,-0.977,-0.584,0
-0.049,-0.865,-0.933,0
0.184,-0.728,-1.538,0
0.181,-0.661,-1.801,0
0.152,-0.674,-1.703,0
0.071,-0.677,-1.109,0
-0.08,-0.717,-0.838,0
-0.185,-0.679,-1.073,0
-0.215,-0.555,-1.663,0
-0.268,-0.46,-2.064,0
-0.305,-0.248,-2.188,0
-0.2,-0.109,-2.048,0
0.215,0.31,-2.314,0
0.203,0.465,-2.506,0
0.091,0.471,-2.314,0
0.014,0.417,-1.914,0
-0.118,0.335,-1.406,0
-0.201,0.304,-1.447,0
-0.168,0.512,-1.999,0
0.005,0.622,-2.339,0
0.182,0.83,-2.294,0
0.162,0.83,-2.2,0
0.062,0.75,-1.601,0
-0.079,0.539,-0.428,0
-0.281,0.268,0.797,0
-0.377,0.174,1.288,0
-0.347,0.131,1.582,0
-0.331,0.226,1.396,0
-0.287,0.348,0.931,0
-0.362,0.476,0.535,0
-0.457,0.551,0.321,0
-0.249,0.576,0.591,0
-0.241,0.556,0.597,0
-0.329,0.418,1.361,0
-0.429,0.354,1.741,0
-0.687,0.717,2.095,0
-0.53,1.072,1.585,0
-0.476,1.229,1.101,1
-0.491,1.02,1.151,0
-0.517,0.757,1.679,0
-0.553,0.13,3.38,0
-0.359,-0.395,4.513,0
-0.599,-1.007,5.965,0
-0.584,-1.459,6.75,0
-0.329,-1.778,6.547,0
-0.167,-1.676,5.386,0
-0.045,-1.141,2.573,0
-0.075,-0.682,0.161,0
-0.106,-0.335,-2.689,0
-0.304,-0.33,-3.59,0
-0.951,-0.669,-3.247,0
-1.342,-1.026,-2.018,0
-1.365,-1.274,-0.902,0
-1.217,-1.348,-0.468,0
-0.924,-1.418,-0.17,0
-0.447,-1.347,-0.173,0
0.077,-1.136,-0.47,0
0.131,-1.141,-0.725,0
-0.006,-1.099,-1.02,0
-0.074,-1.047,-1.36,0
-0.183,-0.994,-1.845,0
-0.26,-0.954,-2.223,0
-0.345,-0.912,-2.701,0
-0.403,-0.869,-2.764,0
-0.334,-0.731,-2.697,0
-0.179,-0.509,-2.637,0
0.158,-0.022,-2.528,0
0.1,0.155,-2.426,0
-0.194,0.337,-2.207,0
-0.419,0.431,-2.114,0
-0.651,0.444,-2.015,0
-0.77,0.478,-1.788,0
-0.87,0.437,-1.333,0
-0.994,0.396,-0.836,0
-1.162,0.302,-0.384,0
-1.25,0.291,-0.209,0
-1.262,0.431,-0.002,0
-1.282,0.436,-0.003,0
-1.16,0.536,0.823,0
-1.2,0.55,1.237,0
-1.217,0.548,1.676,0
-1.359,0.628,1.871,0
-1.571,0.58,1.785,0
-1.55,0.589,1.661,0
-1.387,0.61,1.641,0
-1.255,0.572,1.501,0
-0.762,0.649,2.109,0
-0.407,0.747,2.778,0
-0.314,0.943,3.414,0
-0.451,1.216,3.631,1
-0.449,1.372,3.43,0
-0.443,1.377,2.958,0
-0.801,0.978,2.562,0
-1.103,0.564,2.4,0
-1.345,-0.189,2.388,0
-1.366,-0.539,2.944,0
-1.122,-0.711,3.733,0
-0.675,-0.552,3.647,0
-0.124,-0.336,2.732,0
-0.117,-0.235,1.628,0
-0.456,-0.266,0.293,0
-0.535,-0.221,-0.378,0
-0.546,-0.239,-0.763,0
-0.756,-0.324,-1.126,0
-0.766,-0.375,-1.605,0
-0.596,-0.421,-1.732,0
-0.325,-0.495,-1.723,0
-0.121,-0.59,-1.459,0
-0.04,-0.844,-0.861,0
-0.002,-1.027,-0.418,0
-0.057,-1.216,0.303,0
-0.16,-1.348,0.468,0
-0.461,-1.4,0.254,0
-0.646,-1.427,-0.101,0
-0.779,-1.249,-0.907,0
-0.733,-1.014,-1.63,0
-0.664,-0.68,-2.451,0
-0.555,-0.483,-3.053,0
-0.606,-0.413,-3.296,0
-0.579,-0.305,-3.056,0
-0.51,-0.232,-2.395,0
-0.476,-0.227,-2.101,0
-0.514,-0.15,-1.712,0
-0.512,-0.134,-1.659,0
-0.39,-0.034,-1.796,0
-0.309,0.012,-2.13,0
-0.298,0.01,-2.464,0
-0.21,-0.022,-2.661,0
-0.176,-0.118,-2.383,0
-0.263,-0.271,-1.877,0
-0.181,-0.391,-1.411,0
-0.183,-0.469,-0.841,0
-0.36,-0.442,-0.089,0
-0.351,-0.361,-0.023,0
-0.424,-0.121,-0.208,0
-0.41,-0.124,-0.207,0
-0.337,0.357,-0.664,0
-0.224,0.538,-0.811,0
-0.008,0.795,-0.395,0
0.109,0.827,0.283,0
0.183,0.718,1.299,0
0.099,0.557,2.534,0
0.018,0.276,4.012,0
0.155,0.298,4.916,1
0.057,0.496,5.244,0
0.011,0.892,4.464,0
-0.338,1.521,1.841,0
-0.137,1.686,0.63,0
-0.264,1.775,-0.652,0
-0.279,1.424,-0.533,0
-0.379,0.64,1.63,0
-0.397,-0.015,3.231,0
-0.913,-1.076,5.287,0
-1.181,-1.78,6.323,0
-1.281,-1.85,5.615,0
-0.971,-1.487,3.652,0
-0.673,-0.822,0.509,0
-0.538,-0.476,-1.134,0
-0.62,0.07,-3.734,0
-0.763,0.046,-3.887,0
-1.025,-0.034,-2.339,0
-0.879,-0.096,-1.227,0
-0.968,-0.548,0.016,0
-1.05,-0.823,0.238,0
-1.101,-1.275,0.493,0
-1.043,-1.392,0.508,0
-0.838,-1.48,0.253,0
-0.635,-1.4,-0.062,0
-0.315,-1.092,-1.123,0
-0.168,-0.847,-2.044,0
-0.01,-0.544,-3.202,0
0.026,-0.428,-4.006,0
-0.086,-0.33,-4.243,0
-0.248,-0.344,-3.534,0
-0.73,-0.539,-2.3,0
-0.969,-0.546,-1.885,0
-0.992,-0.248,-1.68,0
-0.843,-0.013,-1.864,0
-0.588,0.288,-2.2,0
-0.676,0.381,-2.129,0
-0.937,0.28,-1.488,0
-1.033,0.251,-1.013,0
-1.039,0.279,-1.019,0
-1.189,0.295,-0.216,0
-1.238,0.294,0.13,0
-1.338,0.083,0.761,0
-1.388,-0.05,1.355,0
-1.251,0.011,1.86,0
-0.916,0.13,2.36,0
-0.743,0.324,2.307,0
-0.724,0.589,1.72,0
-0.797,0.717,1.003,0
-0.826,0.812,0.487,0
-0.748,0.817,0.625,0
-0.576,0.78,1.73,0
-0.63,0.716,2.374,0
-0.443,0.784,2.629,0
-0.702,1.106,2.614,1
-0.617,1.366,1.459,0
-0.335,1.646,0.614,0
-0.33,1.616,0.62,0
0.162,1.523,0.473,0
0.185,0.511,2.072,0
-0.081,0.127,2.974,0
-0.573,-0.754,4.766,0
-0.962,-1.08,5.612,0
-0.94,-1.228,4.808,0
-0.868,-0.986,3.269,0
-0.551,-0.579,1.354,0
-0.273,-0.359,0.369,0
-0.261,-0.27,-0.628,0
-0.428,-0.434,-0.773,0
-0.602,-0.704,-0.496,0
-0.685,-0.974,-0.243,0
-0.935,-1.465,0.242,0
-0.996,-1.534,0.298,0
-0.656,-1.419,-0.406,0
-0.186,-1.213,-1.266,0
0.262,-0.837,-2.01,0
0.24,-0.809,-2.132,0
0.242,-0.811,-2.132,0
-0.338,-1.05,-0.9,0
-0.622,-1.029,-0.675,0
-0.76,-0.946,-0.992,0
-0.779,-0.759,-1.619,0
-0.676,-0.487,-2.249,0
-0.532,-0.22,-2.734,0
-0.532,-0.092,-2.716,0
-0.616,0.005,-2.584,0
-0.722,0.027,-2.366,0
-0.826,-0.047,-2.02,0
-0.843,-0.054,-2.018,0
-0.978,-0.13,-1.551,0
-1.086,-0.237,-1.582,0
-1.055,-0.213,-1.691,0
-0.724,-0.004,-1.751,0
-0.237,0.232,-1.803,0
0.004,0.34,-1.795,0
0.105,0.377,-1.375,0
0.12,0.375,-1.006,0
0.058,0.282,-0.28,0
0.037,0.279,0.136,0
-0.122,0.286,0.423,0
-0.317,0.229,0.629,0
-0.285,0.365,0.684,0
-0.274,0.473,0.666,0
0.058,0.595,0.688,0
0.392,0.685,1.089,0
0.592,0.685,1.761,0
0.627,0.58,2.751,0
0.376,0.557,4.165,0
-0.178,0.947,4.81,1
-0.328,1.254,3.175,0
-0.679,1.506,1.35,0
-0.95,1.572,-0.475,0
-0.718,1.235,-1.104,0
-0.25,0.634,0.525,0
0.239,-0.086,3.195,0
-0.013,-1.105,6.994,0
-0.326,-1.83,8.48,0
-0.556,-2.034,8.143,0
-0.747,-1.891,5.963,0
-0.524,-1.398,2.813,0
-0.6,-1.012,0.281,0
-0.775,-0.687,-2.803,0
-1.023,-0.633,-3.521,0
-1.306,-0.761,-3.454,0
-1.212,-0.755,-2.57,0
-0.957,-0.942,-0.881,0
-0.926,-1.177,-0.334,0
-1.079,-1.514,0.074,0
-0.973,-1.595,0.152,0
-0.571,-1.466,-0.224,0
-0.424,-1.302,-0.759,0
-0.284,-1.221,-1.497,0
-0.293,-1.106,-2.039,0
-0.378,-0.976,-2.66,0
-0.464,-0.946,-2.894,0
-0.59,-0.748,-2.795,0
-0.639,-0.655,-2.524,0
-0.682,-0.417,-2.496,0
-0.778,-0.203,-2.457,0
-0.603,0.089,-2.718,0
-0.476,0.277,-2.681,0
-0.412,0.491,-2.466,0
-0.297,0.603,-2.48,0
-0.262,0.659,-2.016,0
-0.476,0.526,-1.371,0
-0.749,0.357,-0.739,0
-0.967,0.284,-0.352,0
-1.004,0.33,-0.038,0
-0.988,0.399,-0.002,0
-0.82,0.68,-0.03,0
-0.73,0.822,0.127,0
-0.699,0.813,0.512,0
-0.706,0.747,0.91,0
-0.699,0.598,1.639,0
-0.769,0.494,2.154,0
-0.629,0.322,2.569,0
-0.418,0.301,2.888,0
-0.328,0.086,3.445,0
-0.243,0.101,3.728,0
-0.082,0.235,4.048,0
-0.12,0.467,3.769,0
-0.4,1.103,2.491,0
-0.228,1.409,1.032,1
-0.079,1.558,-0.558,0
-0.229,1.325,-0.748,0
-0.329,0.672,0.561,0
-0.343,0.668,0.562,0
-0.261,-0.609,3.472,0
-0.461,-1.068,4.399,0
-0.602,-1.338,4.425,0
-0.52,-1.251,3.353,0
-0.277,-0.921,1.786,0
-0.057,-0.607,0.914,0
-0.013,-0.461,-0.169,0
-0.105,-0.499,-0.587,0
-0.476,-0.741,-0.403,0
-0.49,-0.881,-0.281,0
-0.579,-1.268,0.634,0
-0.704,-1.522,1.161,0
-0.83,-1.767,1.27,0
-0.622,-1.688,0.998,0
-0.05,-1.329,0.247,0
0.23,-1.054,-0.28,0
0.471,-0.76,-1.019,0
0.551,-0.516,-1.907,0
0.572,-0.233,-3.002,0
0.553,-0.09,-3.654,0
0.413,0.029,-4.011,0
0.261,0.05,-3.565,0
0.109,0.015,-3.071,0
-0.105,-0.078,-2.554,0
-0.396,-0.173,-2.084,0
-0.402,-0.157,-1.997,0
-0.279,0.088,-1.95,0
-0.29,0.161,-1.866,0
-0.229,0.314,-2.032,0
-0.228,0.314,-1.999,0
-0.373,0.257,-1.754,0
-0.505,0.07,-1.434,0
-0.549,-0.018,-0.894,0
-0.572,-0.144,-0.608,0
-0.628,-0.168,-0.436,0
-0.46,-0.115,-0.583,0
-0.215,0.059,-0.521,0
-0.153,0.201,-0.426,0
-0.256,0.302,-0.437,0
-0.494,0.235,-0.063,0
-0.706,0.295,-0.1,0
-0.739,0.478,-0.26,0
-0.69,0.582,-0.529,0
-0.656,0.558,-0.357,0
-0.653,0.531,-0.35,0
-0.087,0.55,1.276,0
0.178,0.475,2.535,0
0.269,0.34,3.444,0
0.215,0.52,4.188,0
-0.023,0.98,3.619,0
-0.441,1.463,1.77,1
-0.562,1.573,0.291,0
-0.76,1.543,-1.309,0
-0.889,1.01,-1.243,0
-0.445,0.198,1.211,0
-0.355,-0.544,3.752,0
-0.708,-1.891,7.182,0
-1.195,-2.582,8.957,0
-0.986,-2.381,7.78,0
-0.843,-1.887,5.059,0
-0.406,-1.025,1.727,0
-0.218,-0.478,-0.426,0
-0.59,-0.282,-2.529,0
-0.829,-0.321,-2.643,0
-0.884,-0.566,-1.217,0
-0.839,-0.709,-0.162,0
-0.796,-1.098,0.307,0
-0.85,-1.393,0.444,0
-0.419,-1.397,0.148,0
0.093,-1.209,-0.25,0
0.428,-1.015,-0.888,0
0.56,-0.832,-1.424,0
0.411,-0.77,-2.263,0
0.22,-0.757,-2.857,0
-0.043,-0.869,-3.287,0
-0.265,-0.982,-2.919,0
-0.5,-1.144,-1.782,0
-0.536,-1.109,-1.069,0
-0.57,-0.979,-0.69,0
-0.488,-0.751,-0.915,0
-0.344,-0.283,-1.588,0
-0.299,-0.092,-2.225,0
-0.302,0.184,-2.673,0
-0.361,0.277,-2.864,0
-0.373,0.371,-3.011,0
-0.454,0.361,-2.671,0
-0.522,0.217,-2.004,0
-0.667,0.036,-1.18,0
-0.688,0.043,-1.181,0
-0.468,0.219,0.088,0
-0.341,0.22,0.429,0
-0.406,0.245,0.433,0
-0.479,0.201,0.742,0
-0.396,0.247,1.169,0
-0.515,0.304,1.707,0
-0.498,0.301,1.854,0
-0.424,0.303,1.971,0
-0.333,0.414,2.114,0
0.05,0.573,2.033,0
0.367,0.742,2.052,0
0.42,0.703,2.587,0
0.157,0.715,2.952,0
-0.473,1.087,2.583,0
-0.573,1.005,1.714,0
-0.554,0.978,1.722,1
0.086,0.844,1.474,0
0.379,0.483,2.276,0
0.528,0.122,2.936,0
0.185,0.02,3.321,0
0.086,-0.294,3.089,0
-0.058,-0.769,2.548,0
-0.092,-0.923,2.141,0
-0.027,-0.916,1.937,0
0.024,-0.768,1.438,0
0.048,-0.612,0.31,0
0.036,-0.516,-0.644,0
-0.002,-0.51,-1.617,0
-0.065,-0.54,-2.022,0
-0.205,-0.884,-1.546,0
-0.409,-1.176,-0.753,0
-0.693,-1.447,-0.02,0
-0.834,-1.571,0.008,0
-0.785,-1.463,-0.24,0
-0.523,-1.24,-0.627,0
-0.207,-0.978,-1.046,0
-0.142,-0.839,-1.309,0
-0.035,-0.561,-1.622,0
0.096,-0.4,-1.887,0
0.154,-0.214,-2.159,0
0.158,-0.153,-2.227,0
0.155,-0.054,-2.278,0
0.159,-0.101,-2.142,0
0.141,-0.105,-1.918,0
0.098,-0.024,-2.017,0
0.075,0.094,-2.265,0
0.107,0.263,-2.492,0
0.249,0.481,-2.642,0
0.226,0.544,-2.57,0
0.279,0.658,-2.444,0
0.211,0.631,-2.508,0
0.13,0.53,-2.347,0
0.057,0.459,-1.779,0
-0.003,0.237,-1.007,0
-0.153,0.078,-0.396,0
-0.366,-0.033,0.32,0
-0.357,-0.052,0.566,0
-0.344,0.206,0.344,0
-0.303,0.403,0.213,0
-0.433,0.548,0.169,0
-0.375,0.637,0.233,0
-0.264,0.734,0.71,0
-0.233,0.792,1.128,0
-0.186,0.783,1.49,0
-0.356,0.69,1.616,0
-0.213,0.553,2.283,0
-0.046,0.359,3.014,0
0.036,0.477,4.029,0
-0.264,1.077,3.72,1
-0.656,1.523,1.645,0
-0.749,1.479,0.35,0
-0.723,1.708,-0.951,0
-0.517,1.656,-1.134,0
-0.33,1.265,0.911,0
-0.217,0.53,2.599,0
-0.416,-0.909,5.705,0
-0.593,-1.8,7.492,0
-0.613,-2.386,7.993,0
-0.511,-2.178,6.012,0
-0.188,-1.517,2.907,0
-0.07,-1.147,0.472,0
-0.396,-0.722,-2.475,0
-0.637,-0.493,-3.881,0
-0.95,-0.515,-3.721,0
-0.917,-0.499,-2.806,0
-0.806,-0.714,-1.169,0
-0.855,-0.976,-0.492,0
-0.801,-1.312,0.336,0
-0.552,-1.37,0.558,0
-0.15,-1.278,0.411,0
0.074,-1.187,-0.047,0
0.281,-0.894,-0.581,0
0.216,-0.829,-0.972,0
-0.074,-0.677,-1.572,0
-0.243,-0.628,-1.754,0
-0.369,-0.519,-1.838,0
-0.517,-0.418,-1.944,0
-0.543,-0.257,-2.163,0
-0.635,-0.177,-2.204,0
-0.767,-0.086,-2.062,0
-0.636,0.066,-1.912,0
-0.645,0.057,-1.91,0
-0.327,0.406,-2.144,0
-0.257,0.53,-2.171,0
-0.354,0.423,-1.756,0
-0.367,0.42,-1.755,0
-0.654,0.24,-0.505,0
-0.972,0.101,0.183,0
-1.06,0.067,0.375,0
-1.07,0.013,0.643,0
-1.058,0,1.012,0
-0.89,-0.041,1.091,0
-0.712,0.034,0.886,0
-0.294,0.272,0.707,0
-0.199,0.459,0.874,0
-0.237,0.456,0.978,0
-0.276,0.477,1.103,0
-0.341,0.43,1.207,0
-0.22,0.453,1.202,0
-0.092,0.527,1.399,0
0.038,0.685,1.636,0
0.014,0.652,1.646,0
-0.068,1.179,0.849,1
0.208,1.056,0.608,0
0.588,1.09,0.903,0
0.575,1.091,0.903,0
0.045,0.026,2.593,0
-0.544,-0.637,3.087,0
-0.717,-1.159,3.853,0
-0.894,-1.608,4.806,0
-0.91,-1.66,4.899,0
-0.988,-1.434,4.157,0
-0.887,-1.214,3.011,0
-0.717,-0.985,1.383,0
-0.607,-0.872,0.634,0
-0.382,-0.862,0.051,0
-0.26,-0.849,-0.084,0
-0.417,-1.018,-0.17,0
-0.573,-1.165,-0.25,0
-0.799,-1.219,-0.5,0
-0.842,-1.211,-0.889,0
-0.599,-1.039,-1.409,0
-0.325,-0.807,-1.698,0
-0.01,-0.524,-2.093,0
0.366,-0.3,-2.486,0
0.355,-0.145,-2.391,0
0.178,-0.16,-2.109,0
-0.183,-0.339,-1.553,0
-0.399,-0.377,-1.165,0
-0.481,-0.308,-1.012,0
-0.508,-0.262,-1.069,0
-0.686,-0.251,-1.33,0
-0.684,-0.158,-1.681,0
-0.669,-0.096,-1.948,0
-0.524,0.079,-2.156,0
-0.29,0.254,-2.756,0
-0.25,0.318,-2.937,0
-0.284,0.255,-2.232,0
-0.395,0.128,-1.581,0
-0.669,-0.116,-1.169,0
-0.853,-0.203,-0.984,0
-0.771,-0.102,-0.871,0
-0.614,-0.029,-0.775,0
-0.523,0.137,-0.775,0
-0.549,0.171,-0.767,0
-0.549,0.243,-0.586,0
-0.344,0.389,-0.191,0
0.004,0.783,-0.031,0
-0.234,0.73,0.265,0
-0.631,0.722,0.573,0
-0.756,0.673,0.709,0
-0.766,0.687,0.942,0
-0.636,0.745,1.032,0
-0.655,0.685,1.06,0
-0.247,0.904,1.329,0
-0.268,1.661,1.908,0
-0.573,1.954,1.196,0
-0.978,1.746,0.405,0
-0.862,1.503,-0.087,0
-0.654,0.968,1.048,1
-0.67,0.479,2.828,0
-1.06,-0.254,5.567,0
-1.175,-0.956,7.301,0
-1.222,-1.64,7.82,0
-1.159,-1.903,6.863,0
-0.756,-1.837,4.805,0
-0.355,-1.526,3.265,0
-0.152,-1.099,1.105,0
-0.287,-0.762,-0.695,0
-0.766,-0.808,-2.772,0
-1.285,-0.995,-3.01,0
-2.033,-1.431,-2.283,0
-2.154,-1.543,-1.567,0
-1.779,-1.401,-0.877,0
-1.392,-1.241,-1.059,0
-1.054,-1.186,-1.282,0
-0.894,-1.201,-1.232,0
-0.649,-1.155,-1.129,0
-0.62,-1.181,-1.178,0
-0.626,-1.159,-1.184,0
-0.645,-1.222,-1.386,0
-0.745,-1.248,-1.501,0
-0.792,-1.2,-1.624,0
-0.693,-1.039,-1.677,0
-0.605,-0.869,-1.638,0
-0.526,-0.619,-1.835,0
-0.428,-0.42,-2.149,0
-0.206,-0.196,-2.178,0
-0.305,-0.169,-1.817,0
-0.506,-0.137,-1.414,0
-0.417,-0.038,-1.421,0
-0.125,0.181,-1.323,0
-0.263,0.139,-0.762,0
-0.567,0.041,-0.206,0
-0.74,0.086,-0.162,0
-0.516,0.268,-0.191,0
-0.626,0.311,-0.25,0
-0.951,0.363,-0.231,0
-0.995,0.245,-0.614,0
-0.763,0.353,-0.098,0
-0.798,0.328,0.86,0
-0.936,0.24,1.521,0
-1.033,0.202,1.549,0
-1.006,0.361,1.7,0
-0.935,0.316,1.712,0
-0.661,0.298,1.696,0
-0.466,0.286,1.711,0
-0.187,0.206,1.839,0
-0.101,0.21,1.91,0
-0.447,0.333,2.063,0
-0.41,1.033,0.806,0
-0.221,1.001,0.182,1
0.571,1.338,-0.393,0
0.754,1.242,0.203,0
0.736,1.236,0.206,0
0.37,0.311,3.295,0
0.092,0.121,3.732,0
0.063,-0.544,4.186,0
0.063,-0.76,4.31,0
-0.053,-0.989,4.152,0
-0.141,-1.013,3.743,0
-0.145,-0.943,2.583,0
-0.228,-0.867,1.48,0
-0.525,-1.073,0.29,0
-0.749,-1.262,-0.092,0
-1.013,-1.545,-0.374,0
-0.993,-1.64,-0.217,0
-0.836,-1.657,0.134,0
-0.524,-1.481,-0.126,0
-0.167,-1.123,-1.064,0
0.045,-0.816,-1.754,0
0.083,-0.522,-2.891,0
0.093,-0.322,-3.527,0
-0.039,-0.253,-3.61,0
-0.23,-0.311,-3.055,0
-0.446,-0.393,-2.079,0
-0.672,-0.438,-1.596,0
-0.743,-0.354,-1.576,0
-0.553,-0.166,-1.907,0
-0.36,0.074,-1.903,0
-0.284,0.162,-1.738,0
-0.323,0.221,-1.558,0
-0.43,0.193,-1.466,0
-0.676,0.06,-1.423,0
-0.748,-0.054,-1.424,0
-0.803,-0.229,-1.516,0
-0.762,-0.273,-1.494,0
-0.585,-0.238,-1.341,0
-0.321,-0.17,-1.191,0
-0.188,-0.062,-0.825,0
-0.191,-0.071,-0.448,0
-0.117,-0.004,-0.255,0
-0.056,0.172,-0.345,0
-0.053,0.375,-0.631,0
-0.205,0.429,-0.719,0
-0.277,0.539,-0.787,0
-0.281,0.476,-0.368,0
-0.18,0.44,0.494,0
-0.073,0.377,1.308,0
-0.127,0.239,1.946,0
0.054,0.244,2.481,0
0.526,0.256,3.049,0
0.768,0.234,3.377,0
0.657,0.313,3.489,0
0.092,0.757,3.099,0
-0.82,1.251,1.172,1
-1.196,1.188,-0.096,0
-1.236,1.189,-1.031,0
-1.097,0.984,-0.935,0
-0.716,0.394,0.881,0
-0.447,-0.098,2.3,0
-0.437,-0.937,4.005,0
-0.62,-1.613,5.096,0
-0.715,-1.941,5.78,0
-0.596,-1.805,4.958,0
-0.538,-1.436,2.577,0
-0.46,-1.184,0.966,0
-0.507,-1.059,-0.64,0
-0.57,-0.877,-1.304,0
-0.778,-0.95,-1.542,0
-0.838,-1.031,-1.078,0
-0.847,-1.22,-0.452,0
-0.78,-1.37,-0.594,0
-0.444,-1.446,-0.81,0
-0.192,-1.41,-0.881,0
0.134,-1.223,-0.757,0
0.363,-1.048,-0.917,0
0.186,-0.944,-1.352,0
-0.049,-0.966,-1.557,0
-0.272,-0.942,-1.544,0
-0.352,-0.864,-1.528,0
-0.419,-0.689,-1.787,0
-0.461,-0.638,-1.996,0
-0.441,-0.453,-2.029,0
-0.417,-0.284,-1.907,0
-0.464,-0.097,-1.847,0
-0.308,0.144,-1.921,0
-0.121,0.489,-2.172,0
-0.11,0.616,-2.253,0
-0.336,0.552,-1.764,0
-0.51,0.542,-1.208,0
-0.641,0.439,-0.593,0
-0.758,0.272,-0.124,0
-0.996,0.165,0.197,0
-0.875,0.182,0.365,0
-0.549,0.276,0.488,0
-0.34,0.352,0.646,0
-0.331,0.301,0.753,0
-0.511,0.167,0.802,0
-0.275,0.233,0.868,0
0.095,0.383,1.152,0
0.507,0.413,1.732,0
0.546,0.299,2.177,0
0.413,0.034,2.718,0
0.34,-0.159,2.898,0
0.241,-0.196,2.91,0
-0.122,0.207,2.629,0
-0.453,1.057,1.224,0
-0.15,1.319,0.16,0
0.326,1.636,-0.801,1
0.842,1.417,-0.5,0
1.391,0.668,1.005,0
0.986,-0.036,2.631,0
-0.109,-0.992,4.801,0
-0.716,-1.3,5.598,0
-0.786,-1.262,4.37,0
-0.515,-1.01,3.063,0
-0.224,-0.78,1.911,0
0.093,-0.611,1.553,0
0.156,-0.58,1.139,0
0.019,-0.745,0.998,0
-0.42,-1.257,1.124,0
-0.794,-1.637,1.294,0
-1.078,-1.994,1.23,0
-0.98,-2.009,0.886,0
-0.451,-1.658,-0.087,0
-0.016,-1.315,-1.119,0
0.385,-0.849,-2.5,0
0.594,-0.56,-3.167,0
0.601,-0.231,-3.34,0
0.39,-0.145,-2.937,0
0.054,-0.17,-2.317,0
-0.231,-0.194,-1.731,0
-0.462,-0.259,-1.142,0
-0.587,-0.246,-1.114,0
-0.642,-0.017,-1.863,0
-0.513,0.205,-2.467,0
-0.267,0.44,-2.995,0
-0.176,0.528,-3.128,0
-0.105,0.535,-3.133,0
-0.132,0.422,-2.857,0
-0.251,0.187,-2.236,0
-0.291,-0.048,-1.727,0
-0.62,-0.477,-0.301,0
-0.822,-0.624,0.208,0
-0.844,-0.727,0.236,0
-0.789,-0.662,-0.193,0
-0.772,-0.493,-0.873,0
-0.735,-0.357,-1.153,0
-0.603,-0.083,-1.291,0
-0.395,0.136,-1.613,0
-0.409,0.264,-1.374,0
-0.442,0.257,-0.817,0
-0.451,0.239,-0.812,0
-0.61,0.08,0.467,0
-0.437,0.092,1.271,0
-0.389,0.005,1.987,0
-0.112,-0.012,2.518,0
0.22,0.02,2.854,0
0.302,0.204,3.248,0
0.113,0.716,3.184,0
-0.218,1.452,1.533,0
-0.264,1.682,0.238,1
-0.252,1.673,-0.542,0
-0.152,1.387,-0.709,0
0.209,0.464,1.328,0
0.058,-0.336,3.553,0
-0.344,-1.517,6.502,0
-0.694,-2.141,7.898,0
-0.861,-2.398,7.542,0
-1.015,-2.217,5.683,0
-0.926,-1.78,2.617,0
-0.89,-1.599,0.805,0
-1.08,-1.508,-1.084,0
-1.23,-1.301,-1.897,0
-0.96,-1.186,-1.878,0
-0.705,-1.023,-1.86,0
-0.524,-1.154,-1.192,0
-0.446,-1.329,-0.769,0
-0.329,-1.474,-0.025,0
-0.234,-1.513,0.272,0
-0.03,-1.404,0.125,0
-0.025,-1.274,-0.29,0
-0.04,-1.26,-0.294,0
0.027,-1.077,-1.452,0
-0.047,-0.933,-2.008,0
-0.074,-0.72,-2.434,0
-0.092,-0.429,-3.026,0
-0.173,-0.288,-3.098,0
-0.49,-0.186,-2.857,0
-0.628,-0.125,-2.653,0
-0.563,-0.016,-2.398,0
-0.47,0.126,-2.262,0
-0.457,0.129,-2.108,0
-0.467,0.182,-2.192,0
-0.444,0.184,-1.872,0
-0.414,0.171,-1.547,0
-0.387,0.273,-1.236,0
-0.284,0.356,-1.128,0
-0.234,0.373,-0.783,0
-0.325,0.303,-0.44,0
-0.482,0.166,0.111,0
-0.73,0.032,0.662,0
-0.92,-0.014,1.308,0
-0.941,-0.01,1.422,0
-0.644,0.247,0.819,0
-0.423,0.466,0.409,0
-0.1,0.683,0.377,0
-0.151,0.606,0.835,0
-0.003,0.689,1.822,0
0.208,0.733,2.338,0
0.337,0.866,2.452,0
0.109,0.959,2.383,0
0.1,0.926,2.392,0
-0.762,1.558,0.827,0
-0.214,1.544,0.276,1
0.163,1.615,0.042,0
0.654,1.169,1.119,0
0.515,0.225,2.419,0
-0.214,-1.002,5.598,0
-0.565,-1.495,7.49,0
-0.793,-1.644,7.392,0
-1.147,-1.652,5.307,0
-1.413,-1.353,2.408,0
-1.369,-1.243,1.342,0
-1.449,-1.125,-0.381,0
-1.382,-1.144,-1,0
-1.385,-1.231,-1.071,0
-1.3,-1.314,-0.987,0
-1.176,-1.493,-0.863,0
-1.142,-1.657,-0.514,0
-0.974,-1.753,-0.455,0
-0.77,-1.735,-0.608,0
-0.762,-1.732,-0.609,0
-0.12,-1.439,-0.882,0
-0.079,-1.29,-0.887,0
-0.228,-1.213,-0.949,0
-0.434,-1.119,-1.218,0
-0.51,-1.036,-1.419,0
-0.525,-0.811,-2.013,0
-0.355,-0.576,-2.676,0
-0.109,-0.303,-3.234,0
-0.001,-0.187,-3.357,0
0.02,-0.029,-3.015,0
-0.019,-0.006,-2.608,0
-0.368,-0.16,-1.82,0
-0.612,-0.289,-1.285,0
-0.663,-0.363,-1.107,0
-0.659,-0.276,-1.039,0
-0.59,-0.315,-1.091,0
-0.503,-0.243,-1.232,0
-0.277,-0.095,-1.294,0
-0.16,0.08,-1.373,0
0.092,0.234,-1.59,0
-0.007,0.294,-1.511,0
-0.119,0.305,-1.152,0
-0.181,0.271,-0.925,0
-0.374,0.221,-0.305,0
-0.404,0.23,-0.04,0
-0.348,0.341,0.058,0
-0.306,0.464,0.072,0
-0.217,0.529,0.084,0
0.015,0.689,0.774,0
-0.022,0.686,1.595,0
-0.119,0.715,1.947,0
-0.291,0.486,2.322,0
-0.305,0.369,2.922,0
-0.329,0.374,3.661,0
-0.538,0.725,3.643,1
-0.808,1.532,1.603,0
-0.869,1.623,0.383,0
-1.275,1.672,-0.452,0
-1.066,1.13,-0.495,0
-0.663,0.204,1.607,0
-0.649,-0.367,3.661,0
-0.873,-1.351,5.697,0
-1.095,-1.856,6.552,0
-1.175,-2.048,5.46,0
-1.148,-1.747,3.914,0
-0.909,-1.196,1.568,0
-1.124,-0.876,-0.259,0
-1.585,-0.908,-1.804,0
-2.026,-1.107,-1.878,0
-2.19,-1.27,-1.113,0
-1.888,-1.307,-0.127,0
-1.375,-1.342,0.657,0
-1.235,-1.489,0.659,0
-0.931,-1.594,0.329,0
-0.721,-1.686,0.371,0
-0.642,-1.718,0.542,0
-0.641,-1.644,0.395,0
-0.594,-1.485,-0.355,0
-0.579,-1.344,-1.184,0
-0.529,-1.128,-2.043,0
-0.539,-0.943,-2.196,0
-0.721,-0.877,-1.888,0
-0.904,-0.884,-1.69,0
-1.043,-0.698,-1.477,0
-1.098,-0.527,-1.701,0
-1.055,-0.266,-2.063,0
-0.947,-0.007,-2.438,0
-0.927,0.222,-2.84,0
-0.955,0.225,-2.851,0
-1.083,0.103,-2.274,0
-1.169,0.023,-1.673,0
-1.137,0.002,-0.771,0
-1.141,-0.062,-0.378,0
-1.405,-0.232,0.358,0
-1.661,-0.352,0.474,0
-1.758,-0.423,0.782,0
-1.553,-0.32,1.048,0
-1.221,-0.158,1.318,0
-1.146,-0.066,1.491,0
-1.385,-0.128,1.523,0
-1.215,-0.016,1.57,0
-0.746,0.384,1.714,0
-0.43,0.478,1.563,0
-0.426,0.381,1.653,0
-0.491,0.255,1.614,0
-0.667,0.109,1.866,0
-0.705,-0.08,1.943,0
-1.183,0.215,1.759,0
-1.435,0.622,1.18,0
-1.48,1.133,-0.152,0
-1.208,1.369,-0.909,1
-0.49,1.582,-1.563,0
-0.035,1.243,-1.059,0
0.031,0.548,1.154,0
-0.423,0.234,2.978,0
-0.822,-0.361,4.945,0
-1.108,-0.66,5.717,0
-1.32,-0.983,5.159,0
-1.577,-1.162,4.137,0
-1.793,-1.265,2.742,0
-1.885,-1.357,2.006,0
-1.964,-1.447,0.96,0
-1.978,-1.622,0.113,0
-1.847,-1.858,0.172,0
-1.568,-1.933,0.509,0
-1.415,-2.158,0.973,0
-1.348,-2.169,0.863,0
-1.388,-2.204,0.202,0
-1.321,-2.116,-0.229,0
-1.035,-1.821,-0.977,0
-0.736,-1.588,-1.496,0
-0.345,-1.231,-2.102,0
-0.094,-1.007,-2.321,0
0.064,-0.838,-2.356,0
0.159,-0.769,-2.272,0
0.115,-0.66,-2.174,0
0.102,-0.596,-2.395,0
-0.195,-0.586,-2.637,0
-0.423,-0.534,-2.617,0
-0.569,-0.533,-2.629,0
-0.674,-0.478,-2.579,0
-0.671,-0.405,-2.091,0
-0.81,-0.442,-1.699,0
-0.823,-0.524,-1.395,0
-0.794,-0.562,-1.116,0
-0.692,-0.564,-0.889,0
-0.614,-0.514,-0.744,0
-0.549,-0.447,-0.82,0
-0.559,-0.509,-0.696,0
-0.538,-0.503,-0.676,0
-0.575,-0.448,-0.619,0
-0.482,-0.432,-0.69,0
-0.539,-0.334,-0.564,0
-0.47,-0.068,-0.8,0
-0.398,0.143,-0.936,0
-0.415,0.129,-0.932,0
-0.349,0.46,-0.636,0
-0.261,0.53,0.036,0
-0.318,0.402,0.481,0
-0.389,0.332,1.162,0
-0.421,0.336,1.488,0
-0.31,0.341,1.472,0
-0.212,0.348,1.35,0
-0.169,0.336,1.73,0
-0.235,0.27,1.98,0
-0.226,0.253,1.985,1
-1.287,1.17,1.547,0
-1.729,1.442,-0.479,0
-1.837,1.291,-1.655,0
-1.774,1.027,-1.896,0
-1.78,1.024,-1.895,0
-1.583,-0.538,3.169,0
-1.624,-1.434,6.316,0
-1.505,-2.163,8.916,0
-0.985,-2.111,8.72,0
-0.544,-1.683,5.924,0
-0.515,-1.198,3.069,0
-0.621,-0.834,0.517,0
-0.685,-0.649,-0.848,0
-0.982,-0.766,-1.433,0
-1.095,-0.948,-0.696,0
-1.192,-1.265,0.491,0
-1.34,-1.485,0.963,0
-1.209,-1.771,1.007,0
-0.772,-1.706,0.756,0
-0.344,-1.472,0.426,0
-0.215,-1.387,-0.086,0
-0.102,-1.071,-1.019,0
-0.167,-1.054,-1.683,0
-0.235,-0.93,-2.453,0
-0.232,-0.86,-2.904,0
-0.371,-0.763,-3.032,0
-0.441,-0.736,-2.544,0
-0.494,-0.534,-1.642,0
-0.492,-0.354,-1.644,0
-0.393,-0.043,-1.935,0
-0.415,0.179,-2.109,0
-0.321,0.403,-2.438,0
-0.391,0.508,-2.304,0
-0.386,0.506,-2.303,0
-1.186,0.08,-1.365,0
-1.185,0.086,-1.367,0
-1.751,-0.247,-0.475,0
-1.563,-0.136,-0.659,0
-1.428,0.023,-1.085,0
-1.435,0.011,-1.082,0
-1.302,0.341,-1.091,0
-1.103,0.42,-0.853,0
-1.174,0.342,-0.313,0
-1.17,0.245,0.706,0
-1.065,0.185,1.185,0
-1.291,0.021,1.433,0
-1.393,0.026,1.369,0
-1.212,0.214,1.209,0
-0.958,0.303,1.182,0
-0.724,0.435,1.237,0
-0.545,0.43,1.383,0
-0.333,0.709,1.995,0
-0.377,1.051,2.566,0
-0.873,1.268,1.366,0
-1.105,1.218,0.373,1
-1.226,1.144,0.252,0
-1.305,0.882,0.383,0
-1.306,0.902,0.377,0
-1.265,-0.137,2.306,0
-1.498,-1.169,4.393,0
-1.621,-2.027,6.238,0
-1.654,-2.649,7.403,0
-1.574,-2.556,6.877,0
-1.312,-2.022,4.327,0
-1.133,-1.462,1.771,0
-0.762,-1.005,-0.759,0
-0.74,-0.788,-2.265,0
-0.977,-0.918,-2.951,0
-1.185,-1.012,-2.561,0
-1.358,-1.244,-1.541,0
-1.453,-1.351,-1.052,0
-1.287,-1.404,-1.033,0
-0.984,-1.152,-1.152,0
-0.492,-0.88,-1.273,0
-0.048,-0.606,-1.225,0
0.155,-0.386,-1.067,0
-0.163,-0.484,-0.853,0
-0.466,-0.588,-0.764,0
-0.571,-0.625,-0.824,0
-0.601,-0.601,-1.023,0
-0.574,-0.551,-1.185,0
-0.537,-0.456,-1.703,0
-0.676,-0.497,-1.723,0
-0.796,-0.415,-2.075,0
-0.778,-0.314,-2.017,0
-0.832,-0.308,-1.411,0
-0.882,-0.289,-1.006,0
-1.127,-0.425,-0.568,0
-1.347,-0.507,-0.84,0
-1.338,-0.328,-1.342,0
-1.111,-0.156,-1.448,0
-0.882,0.007,-1.518,0
-0.83,0.057,-1.571,0
-0.704,0.151,-1.549,0
-0.632,0.233,-1.346,0
-0.4,0.255,-0.479,0
-0.46,0.189,0.337,0
-0.72,0.061,0.981,0
-0.958,0.064,0.933,0
-0.876,0.302,0.364,0
-0.638,0.534,0.065,0
-0.52,0.725,0.114,0
-0.773,0.408,0.291,0
-0.237,0.573,1.351,0
0.011,0.601,1.92,0
-0.075,0.574,2.549,0
-0.38,0.346,2.871,0
-1.102,0.482,2.456,0
-1.657,1.04,1.437,0
-1.924,1.411,-0.077,1
-1.792,1.428,-1.358,0
-1.378,1.292,-1.942,0
-0.93,0.948,-0.591,0
-0.68,-0.094,2.232,0
-1.064,-1.112,4.807,0
-1.346,-2.23,8.391,0
-1.184,-2.537,8.94,0
-1.055,-2.232,6.949,0
-0.951,-1.732,3.912,0
-0.977,-1.144,0.791,0
-1.043,-0.808,-0.864,0
-1.23,-0.63,-2.133,0
-1.371,-0.704,-2.148,0
-1.586,-1.119,-0.896,0
-1.492,-1.312,-0.315,0
-1.179,-1.654,0.528,0
-0.935,-1.683,0.645,0
-0.417,-1.475,-0.143,0
-0.218,-1.247,-0.917,0
-0.113,-1.097,-1.551,0
-0.248,-1.153,-1.717,0
-0.507,-1.177,-2.036,0
-0.725,-1.229,-2.029,0
-0.844,-1.162,-2.158,0
-0.784,-1.105,-2.228,0
-0.659,-0.829,-2.216,0
-0.458,-0.598,-2.373,0
-0.21,-0.281,-2.58,0
-0.123,-0.085,-2.523,0
-0.223,-0.038,-2.053,0
-0.302,-0.035,-1.675,0
-0.488,-0.116,-1.134,0
-0.692,-0.16,-0.744,0
-0.8,-0.092,-0.639,0
-0.831,-0.019,-0.64,0
-0.83,0.122,-0.797,0
-0.739,0.265,-0.96,0
-0.761,0.253,-0.956,0
-0.572,0.535,-0.862,0
-0.631,0.519,-0.254,0
-0.785,0.341,0.373,0
-1.057,0.105,1.252,0
-1.127,0.016,1.706,0
-1.128,0.024,1.704,0
-0.888,0.27,1.979,0
-0.695,0.427,1.904,0
-0.588,0.326,1.762,0
-0.181,0.405,1.981,0
-0.038,0.532,2.171,0
-0.343,1.032,2.173,0
-0.508,1.353,1.496,0
-0.56,1.406,0.593,0
-0.452,1.394,0.606,0
-0.445,1.385,0.608,1
-0.185,0.993,2.224,0
-0.223,0.189,2.806,0
-0.416,-0.51,3.777,0
-0.508,-1.379,5.552,0
-0.782,-1.81,6.106,0
-1.232,-1.941,5.042,0
-1.44,-1.791,3.426,0
-1.304,-1.346,1.035,0
-1.057,-1.141,-0.294,0
-0.805,-0.96,-1.27,0
-0.657,-0.923,-1.333,0
-0.545,-1.106,-0.972,0
-0.693,-1.257,-0.474,0
-0.639,-1.461,0.224,0
-0.527,-1.484,0.305,0
-0.271,-1.357,-0.403,0
-0.069,-1.219,-1.016,0
0.18,-1.001,-1.507,0
0.333,-0.79,-2.093,0
0.287,-0.623,-2.678,0
0.158,-0.584,-2.926,0
-0.024,-0.591,-2.75,0
-0.19,-0.618,-2.323,0
-0.441,-0.604,-2.03,0
-0.512,-0.613,-1.817,0
-0.562,-0.466,-1.783,0
-0.52,-0.355,-2.067,0
-0.27,-0.069,-2.431,0
-0.137,0.03,-2.325,0
-0.189,0.03,-2.03,0
-0.3,-0.083,-1.755,0
-0.438,-0.207,-1.426,0
-0.524,-0.286,-1.211,0
-0.718,-0.562,-0.616,0
-0.759,-0.643,-0.229,0
-0.58,-0.541,-0.659,0
-0.19,-0.308,-1.096,0
0.328,0.155,-0.976,0
0.442,0.349,-0.73,0
0.401,0.488,-0.647,0
0.182,0.584,-0.518,0
-0.191,0.539,0.042,0
-0.28,0.506,0.397,0
-0.396,0.381,1.136,0
-0.322,0.439,1.36,0
-0.264,0.379,0.952,0
0.228,0.563,1.131,0
0.909,0.933,1.419,0
1.349,0.95,1.67,0
1.049,1.665,1.947,0
0.485,1.581,1.514,1
-0.697,1.578,0.184,0
-0.845,1.371,0.055,0
-0.832,1.367,0.057,0
-0.575,0.635,0.993,0
-0.308,0.09,2.837,0
-0.257,-0.459,4.367,0
-0.165,-1.022,5.705,0
0.107,-1.216,5.519,0
0.031,-1.409,3.767,0
0.04,-1.186,2.318,0
0.002,-0.836,0.251,0
-0.101,-0.684,-1.246,0
-0.522,-0.679,-2.261,0
-0.777,-0.662,-2.697,0
-0.957,-0.701,-2.125,0
-0.964,-0.703,-1.504,0
-0.944,-0.874,-0.652,0
-0.955,-1.083,-0.133,0
-0.767,-1.299,0.003,0
-0.763,-1.477,0.145,0
-0.607,-1.546,0.056,0
-0.404,-1.473,-0.173,0
-0.435,-1.464,-0.175,0
-0.349,-1.185,-1.323,0
-0.438,-1.063,-1.779,0
-0.475,-0.984,-2.08,0
-0.548,-0.968,-1.975,0
-0.559,-0.904,-1.366,0
-0.583,-0.77,-0.702,0
-0.728,-0.748,-0.417,0
-1.013,-0.674,-0.231,0
-0.985,-0.484,-0.575,0
-0.769,-0.186,-0.906,0
-0.635,-0.041,-0.751,0
-0.647,0.007,-0.676,0
-0.69,0.071,-0.724,0
-0.43,0.204,-0.607,0
-0.174,0.326,-0.528,0
0.018,0.34,-0.336,0
-0.097,0.234,-0.122,0
-0.045,0.203,0.015,0
0.012,0.201,0.419,0
0.055,0.121,0.97,0
-0.174,0.022,1.217,0
-0.498,0.068,0.974,0
-0.69,0.092,0.8,0
-0.373,0.413,0.53,0
-0.155,0.548,0.832,0
0.084,0.665,1.343,0
0.308,0.779,1.628,0
0.198,0.714,2.016,0
-0.213,0.747,1.87,0
-0.801,0.999,0.726,0
-0.757,0.818,0.235,0
-0.751,0.793,0.243,1
-0.253,0.541,0.179,0
0.12,0.237,1.478,0
0.173,0.01,2.582,0
-0.053,-0.262,3.137,0
-0.096,-0.572,3.482,0
-0.216,-0.853,3.586,0
-0.279,-0.955,3.333,0
-0.34,-0.762,2.419,0
-0.363,-0.593,1.476,0
-0.518,-0.404,0.177,0
-0.554,-0.361,-0.484,0
-0.554,-0.348,-1.131,0
-0.548,-0.299,-1.053,0
-0.675,-0.629,-0.934,0
-0.8,-0.911,-0.425,0
-0.727,-1.118,0.25,0
-0.768,-1.181,0.23,0
-0.585,-1.258,-0.072,0
-0.423,-1.187,-0.155,0
-0.206,-1.064,-0.392,0
0.066,-0.895,-0.758,0
0.096,-0.725,-1.08,0
0.003,-0.643,-1.222,0
-0.078,-0.507,-1.557,0
-0.004,-0.28,-2.05,0
0.026,-0.09,-2.705,0
0.001,0.05,-2.899,0
0.142,0.061,-3.133,0
0.087,-0.112,-2.299,0
-0.005,-0.109,-1.201,0
-0.018,-0.101,-1.036,0
0.19,0.105,-1.268,0
0.294,0.242,-1.421,0
0.255,0.356,-1.453,0
0.147,0.344,-1.401,0
0.06,0.324,-1.512,0
0.001,0.288,-1.559,0
-0.013,0.156,-1.493,0
0.04,0.021,-1.255,0
-0.007,-0.074,-0.461,0
-0.078,-0.122,0.011,0
-0.378,-0.094,0.479,0
-0.443,0.045,0.553,0
-0.494,0.127,0.647,0
-0.764,0.115,0.625,0
-0.702,0.236,0.516,0
-0.538,0.299,0.56,0
-0.311,0.406,0.706,0
-0.227,0.418,0.625,0
0.261,0.379,0.782,0
0.477,0.449,1.422,0
0.213,0.591,1.867,0
-0.078,0.836,1.488,1
-0.316,0.953,0.254,0
-0.318,0.828,0.037,0
0.289,0.868,0.129,0
0.625,0.572,1.407,0
0.415,0.073,3.304,0
0.093,-0.573,4.7,0
-0.151,-1.181,5.603,0
-0.172,-1.298,5.43,0
-0.205,-1.432,3.688,0
-0.334,-1.145,2.324,0
-0.067,-0.593,0.022,0
-0.151,-0.281,-1.734,0
-0.43,-0.205,-3.269,0
-0.752,-0.369,-2.745,0
-0.679,-0.563,-0.848,0
-0.605,-0.509,0.394,0
-0.726,-0.815,1.713,0
-0.739,-0.959,1.803,0
-0.586,-1.011,1.434,0
-0.375,-1.019,1.175,0
0.019,-0.849,0.959,0
0.211,-0.8,0.545,0
0.234,-0.688,-0.369,0
0.191,-0.576,-1.339,0
0.165,-0.441,-2.39,0
0.179,-0.303,-2.916,0
0.193,-0.204,-2.818,0
0.092,-0.218,-2.334,0
-0.198,-0.265,-2.009,0
-0.278,-0.22,-2.235,0
-0.152,0.023,-2.489,0
-0.052,0.17,-2.671,0
-0.001,0.326,-2.686,0
0.019,0.368,-2.605,0
-0.066,0.346,-2.05,0
-0.355,0.136,-1.257,0
-0.675,-0.089,-0.008,0
-0.793,-0.132,0.3,0
-0.827,-0.041,0.036,0
-0.65,0.092,-0.355,0
-0.251,0.359,-0.644,0
-0.004,0.414,-0.659,0
-0.035,0.325,-0.183,0
-0.247,0.141,0.441,0
-0.512,0.044,1.081,0
-0.526,0.061,1.157,0
-0.408,0.202,1.105,0
-0.166,0.283,1.074,0
0.065,0.323,1.236,0
0.169,0.406,1.669,0
0.64,0.548,1.763,0
1.072,1.117,1.857,0
0.724,1.802,0.987,0
0.492,1.847,-0.068,0
0.288,1.546,-0.474,0
0.127,1.125,0.204,0
-0.023,0.263,2.537,1
0.022,-0.409,3.699,0
-0.243,-1.041,5.085,0
-0.519,-1.346,5.678,0
-0.585,-1.03,4.657,0
-0.315,-0.832,2.944,0
0.044,-0.385,1.25,0
0.141,-0.318,0.884,0
-0.004,-0.444,1.045,0
-0.179,-0.636,1.151,0
-0.327,-0.845,0.886,0
-0.422,-0.948,0.688,0
-0.439,-1.042,0.685,0
-0.233,-1.195,0.415,0
0.122,-0.97,0.022,0
0.454,-0.914,-0.307,0
0.806,-0.786,-0.757,0
0.93,-0.691,-1.305,0
0.875,-0.616,-2.143,0
0.718,-0.62,-2.186,0
0.592,-0.582,-2.14,0
0.512,-0.55,-2.086,0
0.426,-0.401,-2.089,0
0.453,-0.225,-2.362,0
0.617,-0.032,-2.569,0
0.565,-0.007,-2.45,0
0.413,0.109,-2.42,0
0.168,0.092,-2.447,0
0.014,0.158,-2.7,0
0.376,0.392,-2.795,0
0.451,0.501,-2.527,0
0.25,0.431,-2.025,0
-0.034,0.275,-1.396,0
-0.158,0.258,-1.219,0
-0.073,0.273,-1.191,0
-0.092,0.192,-0.892,0
-0.141,0.108,-0.436,0
0.009,0.214,-0.564,0
0.301,0.351,-0.569,0
0.513,0.473,-0.262,0
0.216,0.372,0.172,0
-0.175,0.173,0.443,0
-0.482,0.193,0.899,0
-0.385,0.283,1.088,0
-0.254,0.426,1.642,0
-0.222,0.409,1.648,0
-0.026,0.343,1.507,0
0.03,0.257,1.512,0
0.663,0.391,1.904,0
0.767,0.748,2.11,0
0.764,0.709,2.122,0
-0.113,1.442,0.294,0
-0.103,1.407,0.306,1
-0.32,1.302,-0.72,0
-0.047,0.933,0.332,0
0.251,0.353,1.672,0
0.202,-0.626,4.063,0
-0.034,-1.531,5.814,0
-0.159,-2.093,6.388,0
0.062,-2.069,5.461,0
0.363,-1.354,2.381,0
0.545,-0.845,0.493,0
0.656,-0.322,-2.099,0
0.495,-0.244,-3.095,0
0.004,-0.424,-2.339,0
-0.372,-0.681,-0.762,0
-0.698,-0.97,0.593,0
-1.02,-1.102,1.173,0
-1.068,-1.258,0.72,0
-0.99,-1.261,0.303,0
-0.374,-1.077,0.053,0
0.076,-0.945,0.029,0
0.34,-0.834,-0.103,0
0.319,-0.715,-0.552,0
0.226,-0.687,-1.441,0
0.065,-0.62,-1.807,0
-0.138,-0.556,-2.057,0
-0.246,-0.537,-2.06,0
-0.486,-0.494,-2.217,0
-0.501,-0.417,-2.445,0
-0.496,-0.179,-2.563,0
-0.408,0.057,-2.641,0
0.155,0.466,-2.947,0
0.36,0.755,-2.894,0
0.121,0.758,-2.471,0
-0.176,0.594,-1.935,0
-0.545,0.314,-1.002,0
-0.835,0.191,-0.472,0
-0.844,0.176,-0.164,0
-0.71,0.203,-0.188,0
-0.725,0.226,0.143,0
-0.792,0.198,0.132,0
-0.498,0.232,0.047,0
-0.227,0.387,0.628,0
-0.255,0.328,1.224,0
-0.19,0.33,1.496,0
-0.345,0.351,1.852,0
-0.304,0.382,1.611,0
-0.202,0.33,1.217,0
-0.141,0.261,1.39,0
0.066,0.283,1.71,0
0.11,0.485,1.906,0
0.099,0.447,1.917,0
0.279,1.878,0.361,0
0.645,1.884,-0.933,0
0.391,1.76,-1.378,0
-0.063,0.929,-0.046,1
-0.088,0.222,1.739,0
-0.484,-0.66,4.228,0
-0.765,-1.345,5.787,0
-0.683,-1.695,6.789,0
-0.509,-1.861,6.509,0
-0.452,-1.617,5.231,0
-0.302,-1.242,3.735,0
-0.109,-0.801,1.463,0
-0.02,-0.573,0.499,0
-0.042,-0.403,-0.802,0
-0.005,-0.351,-1.654,0
0.079,-0.372,-1.768,0
0.137,-0.523,-1.096,0
0.201,-0.763,-0.028,0
0.368,-0.831,0.239,0
0.455,-0.863,-0.129,0
0.507,-0.9,-0.575,0
0.717,-0.8,-0.941,0
0.842,-0.719,-1.005,0
0.855,-0.537,-1.272,0
0.673,-0.496,-1.615,0
0.546,-0.38,-2.242,0
0.533,-0.235,-2.648,0
0.495,-0.162,-2.998,0
0.415,-0.115,-2.933,0
0.425,-0.128,-2.929,0
0.345,-0.067,-2.225,0
-0.033,-0.187,-1.933,0
-0.194,-0.265,-1.755,0
-0.125,-0.145,-1.662,0
-0.07,-0.063,-1.793,0
-0.023,0.13,-2.132,0
0.021,0.192,-2.246,0
0.023,0.175,-2.241,0
-0.002,0.2,-2.079,0
0.211,0.281,-1.925,0
0.125,0.215,-1.343,0
0.118,0.211,-1.342,0
0.044,0.035,-0.023,0
0.001,0.058,0.708,0
-0.185,0.111,0.874,0
-0.285,0.186,0.587,0
-0.284,0.313,0.347,0
-0.085,0.437,0.363,0
0.023,0.493,0.6,0
0.051,0.457,1.046,0
0.017,0.377,1.415,0
0.019,0.368,2.134,0
-0.311,0.538,2.232,0
-0.309,0.515,2.24,0
-1.147,1.052,0.361,0
-1.196,1.091,-0.209,0
-1.06,1.073,-0.392,0
-1.025,0.85,0.488,1
-0.997,0.357,1.595,0
-1.265,-0.428,3.786,0
-1.363,-1.232,5.654,0
-1.126,-1.731,6.576,0
-0.697,-1.91,5.869,0
-0.137,-1.465,3.529,0
0.15,-0.949,1.614,0
0.337,-0.412,-1.447,0
0.196,-0.348,-2.85,0
-0.451,-0.535,-3.111,0
-0.657,-0.701,-2.097,0
-0.835,-0.875,-0.034,0
-1.043,-1.049,0.702,0
-1.036,-1.139,1.048,0
-0.936,-1.136,0.819,0
-0.564,-1.017,0.404,0
-0.458,-1.038,0.423,0
-0.468,-1.124,0.442,0
-0.505,-1.162,0.051,0
-0.486,-1.122,-0.912,0
-0.397,-0.952,-1.559,0
-0.175,-0.671,-2.071,0
-0.284,-0.511,-2.169,0
-0.487,-0.443,-2.133,0
-0.556,-0.313,-1.985,0
-0.511,-0.085,-1.733,0
-0.533,0.01,-1.583,0
-0.533,0.251,-1.452,0
-0.566,0.324,-1.747,0
-0.652,0.367,-1.766,0
-0.67,0.356,-1.514,0
-0.656,0.361,-1.372,0
-0.547,0.371,-1.338,0
-0.441,0.394,-1.141,0
-0.375,0.421,-0.705,0
-0.405,0.448,-0.353,0
-0.589,0.348,0.103,0
-0.694,0.295,0.412,0
-0.681,0.232,0.728,0
-0.786,0.217,1.091,0
-0.635,0.343,0.817,0
-0.904,0.233,1.093,0
-0.834,0.283,1.506,0
-0.549,0.478,1.734,0
-0.346,0.526,2.101,0
-0.033,0.664,2.252,0
-0.033,0.825,2.024,0
-0.361,1.231,1.547,0
-0.638,1.568,0.942,0
-0.535,1.515,-0.054,0
-0.509,1.507,-0.361,1
-0.527,1.234,0.501,0
-0.552,1.232,0.503,0
-1.039,0.061,3.352,0
-1.406,-0.529,4.215,0
-1.625,-1.349,5.139,0
-1.629,-1.781,5.165,0
-1.765,-2.047,4.606,0
-1.849,-1.949,3.735,0
-1.707,-1.641,2.073,0
-1.561,-1.357,0.76,0
-1.316,-1.008,-0.65,0
-1.216,-0.883,-1.2,0
-1.203,-0.762,-1.588,0
-1.17,-0.799,-1.395,0
-0.908,-0.864,-0.869,0
-0.703,-0.845,-0.586,0
-0.59,-0.865,-0.708,0
-0.452,-0.782,-0.952,0
-0.197,-0.678,-1.408,0
-0.062,-0.513,-1.754,0
0.034,-0.436,-1.793,0
-0.053,-0.43,-1.486,0
-0.33,-0.51,-1.128,0
-0.565,-0.503,-1.127,0
-0.785,-0.434,-1.211,0
-0.889,-0.293,-1.533,0
-0.815,-0.091,-2.246,0
-0.844,0.037,-2.326,0
-0.715,0.329,-2.779,0
-0.662,0.406,-2.978,0
-0.846,0.35,-2.831,0
-0.996,0.168,-2.308,0
-1.007,0.171,-2.308,0
-1.148,-0.23,-0.912,0
-1.263,-0.384,-0.593,0
-1.072,-0.351,-0.626,0
-0.661,-0.219,-0.699,0
-0.476,-0.123,-0.369,0
-0.424,-0.089,-0.235,0
-0.516,-0.074,-0.221,0
-0.474,-0.068,-0.275,0
-0.465,-0.036,-0.249,0
-0.723,-0.145,-0.282,0
-0.785,-0.159,-0.227,0
-0.562,-0.019,0.096,0
-0.443,0.128,0.188,0
-0.24,0.354,0.213,0
-0.182,0.547,0.33,0
-0.227,0.623,0.773,0
-0.225,0.621,1.637,0
-0.36,0.68,2.633,0
-0.704,1.024,2.58,0
-1.087,1.526,0.939,0
-1.075,1.633,-0.342,0
-0.756,1.461,-1.108,1
-0.535,1.174,-0.378,0
-0.503,0.469,2.167,0
-0.828,-0.264,4.028,0
-0.977,-1.224,6.261,0
-0.879,-1.613,6.379,0
-0.729,-1.833,5.146,0
-0.585,-1.767,3.776,0
-0.413,-1.396,2.184,0
-0.449,-1.039,0.573,0
-0.752,-0.743,-1.314,0
-1.111,-0.732,-2.542,0
-1.708,-0.844,-2.961,0
-1.911,-0.9,-2.294,0
-1.815,-1.025,-0.344,0
-1.681,-1.023,0.458,0
-1.42,-1.084,0.623,0
-1.229,-1.044,0.569,0
-0.823,-0.906,0.307,0
-0.401,-0.757,-0.017,0
-0.22,-0.646,-0.495,0
-0.33,-0.667,-0.892,0
-0.346,-0.659,-0.893,0
-0.557,-0.66,-1.751,0
-0.651,-0.529,-2.057,0
-0.76,-0.508,-1.979,0
-1.024,-0.417,-1.596,0
-1.055,-0.288,-1.56,0
-0.938,-0.061,-1.544,0
-0.942,0.029,-1.508,0
-0.968,0.178,-1.454,0
-0.869,0.313,-1.234,0
-1.022,0.348,-0.76,0
-1.243,0.201,-0.514,0
-1.454,0.1,0.087,0
-1.524,0.022,0.321,0
-1.699,-0.047,0.447,0
-1.779,-0.045,0.276,0
-1.594,0.029,-0.078,0
-1.481,0.052,0.12,0
-1.448,-0.025,0.478,0
-1.274,0.027,0.608,0
-1.118,0.111,1.151,0
-1.052,0.285,1.295,0
-1.054,0.421,1.347,0
-0.976,0.528,1.348,0
-0.783,0.473,1.534,0
-0.781,0.333,1.826,0
-0.718,0.367,2.161,0
-0.636,0.41,2.087,0
-0.617,0.793,1.652,0
-0.709,1.303,0.804,1
-0.574,1.288,-0.04,0
-0.17,1.308,-0.204,0
0.179,1.112,0.582,0
0.102,0.702,1.996,0
-0.439,0.523,3.095,0
-0.401,0.306,2.627,0
-0.394,-0.126,2.444,0
-0.603,-0.343,2.602,0
-0.796,-0.919,3.347,0
-1.001,-1.095,3.043,0
-1.272,-1.192,1.957,0
-1.171,-1.074,0.844,0
-1.085,-0.944,-0.543,0
-1.022,-0.923,-1.375,0
-0.858,-0.991,-1.756,0
-0.896,-1.193,-1.56,0
-1.034,-1.532,-0.837,0
-1.004,-1.611,-0.693,0
-1.075,-1.718,-0.839,0
-1.145,-1.775,-1.007,0
-0.937,-1.589,-1.034,0
-0.589,-1.391,-0.942,0
-0.239,-1.078,-1.15,0
-0.247,-0.951,-1.339,0
-0.42,-0.783,-1.505,0
-0.478,-0.71,-1.423,0
-0.604,-0.644,-1.157,0
-0.679,-0.507,-1.447,0
-0.668,-0.335,-1.897,0
-0.745,-0.211,-2.051,0
-0.851,-0.1,-2.215,0
-0.77,0.004,-2.313,0
-0.678,0.147,-2.229,0
-0.63,0.096,-2.204,0
-0.591,-0.007,-1.911,0
-0.637,-0.093,-1.348,0
-0.659,-0.084,-1.35,0
-0.534,-0.233,-0.478,0
-0.721,-0.317,0.14,0
-0.858,-0.327,0.285,0
-0.79,-0.11,0.004,0
-0.68,0.061,-0.477,0
-0.635,0.345,-0.84,0
-0.456,0.433,-1.039,0
-0.349,0.515,-0.488,0
-0.437,0.482,-0.214,0
-0.451,0.467,-0.209,0
0.156,0.452,0.878,0
0.199,0.477,1.897,0
0.222,0.409,2.545,0
0.221,0.393,3.183,0
0.087,0.502,3.313,0
-0.26,1.211,2.201,0
-0.482,1.658,0.709,0
-0.565,1.786,-0.614,1
-0.387,1.775,-1.448,0
-0.109,1.571,-0.755,0
-0.09,0.866,0.978,0
-0.575,-0.492,3.951,0
-0.88,-1.443,6.464,0
-0.798,-2.11,7.882,0
-0.613,-2.274,6.857,0
-0.045,-1.709,3.821,0
0.3,-1.344,1.746,0
0.176,-0.877,-0.901,0
-0.212,-0.855,-1.932,0
-0.728,-0.947,-2.063,0
-0.964,-1.05,-1.507,0
-0.889,-1.036,-0.739,0
-1.045,-1.157,-0.311,0
-1.212,-1.217,-0.299,0
-1.036,-1.173,-0.694,0
-0.748,-1.256,-0.832,0
-0.563,-1.217,-0.728,0
-0.388,-1.224,-0.66,0
-0.298,-1.198,-0.736,0
-0.292,-1.165,-0.816,0
-0.269,-1.114,-1.102,0
-0.316,-1.056,-1.559,0
-0.362,-1.023,-1.389,0
-0.428,-0.935,-1.038,0
-0.494,-0.82,-1.05,0
-0.628,-0.704,-1.167,0
-0.632,-0.572,-1.394,0
-0.483,-0.261,-1.726,0
-0.362,-0.098,-1.771,0
-0.242,0.141,-1.787,0
-0.161,0.259,-2.016,0
-0.148,0.292,-1.957,0
-0.299,0.208,-1.499,0
-0.452,0.168,-0.86,0
-0.294,0.228,-0.372,0
-0.348,0.352,-0.039,0
-0.431,0.463,0.066,0
-0.512,0.442,0.09,0
-0.67,0.436,0.334,0
-0.685,0.423,0.659,0
-0.635,0.472,0.73,0
-0.56,0.458,0.832,0
-0.527,0.417,1.28,0
-0.367,0.269,1.86,0
-0.213,0.125,2.429,0
-0.067,-0.01,3.236,0
0.043,0.036,3.348,0
-0.133,0.371,2.637,0
-0.504,1.032,1.764,0
-0.37,1.301,0.573,0
0.042,1.576,-0.053,0
0.71,1.592,0.249,1
0.946,1.217,1.475,0
0.632,0.64,2.595,0
0.32,0.131,3.296,0
-0.084,-0.453,4.007,0
-0.034,-0.761,3.824,0
-0.016,-0.827,3.152,0
0.021,-0.79,2.816,0
-0.09,-0.807,2.015,0
-0.126,-0.911,1.237,0
-0.158,-0.986,0.343,0
-0.304,-1.247,0.22,0
-0.678,-1.851,0.904,0
-0.926,-2.04,1.16,0
-0.855,-2.184,0.822,0
-0.56,-2.038,0.294,0
0.168,-1.612,-0.2,0
0.577,-1.314,-0.844,0
0.949,-0.86,-2.008,0
0.905,-0.771,-2.644,0
0.619,-0.75,-2.871,0
0.666,-0.654,-2.908,0
0.835,-0.429,-2.843,0
0.743,-0.343,-2.646,0
0.296,-0.436,-2.261,0
-0.004,-0.497,-1.906,0
0.036,-0.269,-2.125,0
0.082,-0.102,-2.456,0
0.176,0.039,-2.875,0
0.32,0.219,-3.015,0
0.256,0.278,-2.702,0
0.255,0.271,-2.7,0
0.093,0.129,-2.252,0
-0.01,0.113,-1.867,0
-0.03,0.056,-1.263,0
-0.14,0.013,-1.136,0
-0.146,0.018,-1.138,0
-0.378,-0.368,-0.369,0
-0.126,-0.221,0.194,0
-0.012,-0.09,0.333,0
-0.26,-0.068,0.001,0
-0.272,-0.13,-0.624,0
-0.071,0.126,-0.351,0
-0.003,0.198,0.281,0
-0.01,0.324,1.142,0
0.019,0.422,1.418,0
0.156,0.638,1.673,0
0.227,0.693,2.269,0
0.234,0.661,2.428,0
0.267,0.549,2.055,0
0.09,0.584,2.267,0
0.26,1.245,1.921,1
0.741,1.446,0.52,0
0.55,1.526,-0.38,0
0.292,0.977,-0.835,0
0.019,0.934,0.621,0
-0.003,0.368,3.019,0
0.07,-0.191,4.243,0
0.13,-1.083,5.841,0
-0.026,-1.619,6.33,0
-0.101,-2.115,5.925,0
-0.245,-1.818,4.364,0
-0.097,-1.237,1.653,0
-0.144,-0.797,-0.742,0
-0.472,-0.553,-3.249,0
-0.56,-0.379,-4.331,0
-0.442,-0.273,-3.547,0
-0.264,-0.233,-2.125,0
-0.412,-0.514,-1.154,0
-0.613,-0.863,-0.534,0
-0.569,-1.221,0.44,0
-0.314,-1.211,0.639,0
0.092,-1.174,0.361,0
0.217,-1.073,-0.13,0
0.315,-0.926,-0.678,0
0.338,-0.829,-1.032,0
0.328,-0.817,-1.036,0
0.119,-0.675,-2.051,0
0.013,-0.583,-2.28,0
-0.051,-0.587,-2.132,0
-0.261,-0.601,-1.628,0
-0.434,-0.525,-1.468,0
-0.253,-0.211,-1.86,0
-0.116,0.14,-2.088,0
-0.075,0.404,-2.403,0
-0.191,0.508,-2.339,0
-0.272,0.465,-2.074,0
-0.475,0.404,-1.577,0
-0.664,0.175,-0.495,0
-0.706,0.018,0.26,0
-0.771,-0.058,0.954,0
-0.807,-0.144,1.132,0
-0.639,-0.054,1.037,0
-0.544,0.01,1.055,0
-0.493,0.064,1.025,0
-0.325,0.241,0.872,0
-0.232,0.484,0.791,0
-0.212,0.542,0.713,0
-0.008,0.501,0.935,0
-0.012,0.482,0.94,0
0.329,0.457,1.294,0
0.481,0.382,1.571,0
0.26,0.221,1.887,0
0.116,0.609,1.94,0
0.12,0.586,1.946,0
-0.244,0.992,0.318,0
0.182,1.147,0.167,1
0.561,1.186,0.573,0
1.026,0.791,1.914,0
0.931,0.471,2.317,0
0.269,-0.165,2.929,0
-0.064,-0.711,3.792,0
-0.266,-1.177,4.663,0
-0.24,-1.346,4.563,0
-0.324,-1.275,3.47,0
-0.202,-1.135,2.572,0
0.173,-0.75,1.137,0
0.524,-0.49,0.158,0
0.709,-0.354,-0.691,0
0.722,-0.367,-1.101,0
0.663,-0.55,-1.008,0
0.533,-0.868,-0.267,0
0.565,-1.083,0.031,0
0.776,-1.075,-0.044,0
0.529,-1.287,-0.565,0
0.598,-1.241,-0.541,0
0.618,-1.251,-0.537,0
0.915,-0.928,-1.337,0
0.881,-0.75,-1.956,0
1.066,-0.523,-2.685,0
1.142,-0.295,-3.247,0
0.924,-0.324,-3.231,0
0.518,-0.421,-3.124,0
0.367,-0.545,-2.774,0
0.134,-0.484,-2.027,0
0.038,-0.4,-1.949,0
0.011,-0.222,-2.146,0
0.258,0.007,-2.42,0
0.384,0.251,-2.614,0
0.369,0.282,-2.469,0
0.425,0.275,-2.093,0
0.686,0.35,-1.795,0
0.53,0.211,-0.643,0
0.351,0.11,0.102,0
0.229,0.093,0.523,0
0.22,0.132,0.483,0
0.115,0.078,0.363,0
0.105,0.095,0.168,0
0.221,0.218,0.275,0
0.284,0.287,0.427,0
0.373,0.364,0.78,0
0.298,0.294,1.038,0
0.117,0.189,1.715,0
0.07,0.152,1.961,0
0.24,0.279,2.151,0
0.238,0.29,2.464,0
0.161,0.43,2.625,0
-0.021,0.828,2.239,0
0.033,1.235,0.86,0
0.148,1.28,0.106,0
0.166,1.256,0.115,1
-0.219,0.845,-0.003,0
-0.099,0.381,1.223,0
0.245,-0.095,2.359,0
0.347,-0.871,4.344,0
0.351,-1.354,5.736,0
0.497,-1.858,6.028,0
0.592,-1.756,5.021,0
0.749,-1.074,2.659,0
0.846,-0.977,1.358,0
0.449,-0.636,-1.09,0
0.127,-0.649,-2.228,0
-0.345,-0.71,-2.562,0
-0.433,-0.697,-2.18,0
-0.192,-0.498,-1.496,0
0.037,-0.497,-1.245,0
0.15,-0.563,-0.906,0
0.151,-0.768,-0.529,0
0.39,-0.836,-0.212,0
0.501,-0.918,-0.145,0
0.505,-0.953,-0.396,0
0.492,-0.919,-0.728,0
0.372,-0.834,-1.3,0
0.316,-0.752,-1.627,0
0.217,-0.616,-2.012,0
0.187,-0.462,-2.221,0
0.166,-0.335,-2.272,0
0.123,-0.282,-2.132,0
0.149,-0.131,-1.945,0
0.152,-0.053,-1.919,0
0.129,0.072,-1.724,0
0.155,0.171,-1.611,0
-0.029,0.224,-1.527,0
-0.11,0.287,-1.581,0
-0.002,0.356,-1.582,0
0.005,0.328,-1.426,0
-0.048,0.309,-0.824,0
-0.051,0.276,-0.564,0
-0.069,0.248,-0.25,0
0.023,0.186,0.234,0
0.093,0.034,0.323,0
0.139,0.06,0.954,0
0.13,0.147,1.781,0
0.102,0.272,2.055,0
-0.174,0.314,1.915,0
-0.122,0.267,1.519,0
0.157,0.246,1.837,0
0.47,0.208,2.071,0
0.536,0.112,1.926,0
0.512,0.527,2.041,0
0.508,0.497,2.05,0
0.733,1.211,0.423,1
0.924,1.332,-0.1,0
0.947,1.095,0.011,0
0.982,0.552,1.424,0
0.819,0.162,2.527,0
0.811,0.198,2.516,0
0.151,-0.842,3.914,0
0.095,-1.109,4.034,0
0.188,-1.194,3.72,0
0.191,-1.032,2.963,0
0.08,-0.897,2.192,0
-0.113,-0.763,1.063,0
-0.255,-0.803,0.454,0
-0.369,-0.901,0.055,0
-0.266,-0.92,0.159,0
-0.068,-0.883,0.257,0
0.116,-0.888,0.161,0
0.375,-0.868,-0.442,0
0.731,-0.761,-1.201,0
0.746,-0.768,-1.199,0
1.473,-0.499,-1.37,0
1.262,-0.769,-0.982,0
1.154,-0.743,-0.923,0
0.573,-0.979,-1.364,0
0.342,-0.978,-1.235,0
0.233,-0.925,-1.263,0
0.34,-0.742,-1.402,0
0.395,-0.502,-1.702,0
0.427,-0.329,-1.881,0
0.562,-0.082,-1.982,0
0.582,0.021,-2.02,0
0.46,0.092,-2.34,0
0.28,0.066,-2.502,0
-0.014,-0.059,-2.197,0
-0.076,-0.079,-1.953,0
-0.032,-0.053,-1.724,0
0.08,0.036,-1.59,0
0.083,0.029,-1.588,0
0.529,0.248,-1.183,0
0.525,0.241,-1.182,0
0.838,0.313,-0.386,0
0.749,0.152,0.148,0
0.632,-0.032,0.636,0
0.405,-0.111,1.013,0
0.318,-0.082,0.755,0
0.057,0.079,0.576,0
-0.003,0.142,0.577,0
-0.119,0.167,1.165,0
-0.221,0.035,1.571,0
0.218,0.051,2.123,0
0.742,0.22,2.315,0
1.366,0.378,1.928,0
1.285,0.404,1.56,0
0.499,0.507,0.955,0
0.035,0.822,0.658,1
0.06,0.799,0.668,0
-0.156,0.745,-0.57,0
0.06,0.524,-0.329,0
0.273,0.364,0.718,0
0.332,0.002,2.238,0
0.134,-0.24,3.113,0
0.114,-0.2,3.099,0
0.029,-0.848,3.857,0
0.008,-0.783,3.205,0
-0.16,-0.594,2.126,0
-0.147,-0.302,0.534,0
-0.241,-0.173,0.042,0
-0.787,-0.341,-0.625,0
-0.963,-0.394,-0.65,0
-0.82,-0.444,-0.269,0
-0.515,-0.55,0.019,0
-0.226,-0.733,0.328,0
-0.053,-0.948,0.498,0
0.055,-1.163,0.496,0
0.065,-1.29,0.079,0
0.367,-1.173,-0.71,0
0.327,-1.083,-1.279,0
0.278,-0.993,-2.162,0
0.121,-0.972,-2.407,0
-0.113,-0.982,-2.481,0
-0.296,-1.032,-2.243,0
-0.272,-0.891,-1.869,0
-0.213,-0.773,-1.304,0
-0.2,-0.571,-1.062,0
-0.129,-0.384,-1.457,0
-0.031,-0.053,-2.084,0
-0.012,0.058,-2.187,0
-0.015,0.187,-1.973,0
-0.026,0.167,-1.744,0
-0.005,0.192,-1.53,0
0.056,0.155,-1.325,0
0.139,0.18,-1.077,0
0.228,0.159,-0.903,0
0.158,0.136,-0.123,0
0.138,0.078,0.099,0
0.439,0.143,-0.061,0
0.599,0.221,-0.166,0
0.738,0.418,0.019,0
0.936,0.601,0.136,0
0.886,0.615,0.513,0
0.36,0.171,0.957,0
-0.625,-0.233,1.177,0
-0.091,-0.242,1.293,0
0.845,0.161,2.406,0
1.556,0.305,2.327,0
2.343,0.781,2.477,0
1.645,1.467,2.633,0
0.175,1.061,0.358,0
-1.391,0.453,-1.542,0
-2.008,-1.113,-4.113,0
-1.133,-0.032,-4.128,0
