accelX,accelY,accelZ,label
-0.806,1.64,0.423,1
-0.838,1.46,0.793,1
-0.302,0.906,1.232,1
0.152,0.166,2.276,1
0.259,-0.628,4.104,1
0.302,-1.437,5.961,1
0.167,-1.629,6.085,1
-0.204,-1.456,4.096,1
-0.524,-1.237,1.8,1
-0.8,-0.933,-0.952,1
-0.683,-0.547,-2.716,1
-0.275,-0.12,-3.38,1
0.012,0.206,-2.792,1
0.02,0.169,-1.256,1
-0.078,-0.017,-0.286,1
-0.011,-0.214,0.391,1
0.015,-0.421,0.597,1
0.016,-0.546,0.255,1
-0.028,-0.504,-0.455,1
-0.01,-0.447,-1.201,1
0.087,-0.306,-1.814,1
0.081,-0.311,-1.813,0
0.384,0.035,-2.253,0
0.348,0.116,-2.371,0
0.184,0.081,-2.407,0
-0.042,0.066,-2.339,0
-0.016,0.16,-2.256,0
-0.122,0.272,-1.961,0
-0.266,0.303,-1.765,0
-0.64,0.279,-1.707,0
-0.794,0.294,-1.636,0
-0.8,0.361,-1.524,0
-0.499,0.48,-1.474,0
-0.107,0.699,-0.866,0
-0.084,0.65,-0.452,0
-0.201,0.515,-0.457,0
-0.338,0.33,-0.395,0
-0.354,0.142,-0.122,0
-0.294,0.022,0.44,0
-0.351,-0.087,1.23,0
-0.488,-0.192,1.709,0
-0.514,-0.038,1.991,0
-0.412,0.093,1.94,0
-0.241,0.251,1.651,0
-0.145,0.321,1.508,0
-0.229,0.272,1.441,0
-0.506,0.195,1.608,0
-0.659,0.219,1.631,0
-0.789,0.382,1.469,0
-0.553,0.395,0.918,0
-0.272,0.348,0.676,1
-0.259,0.324,0.684,1
0.036,0.335,1.148,1
-0.19,0.245,2.002,1
-0.334,0.255,2.374,1
-0.617,0.554,2.05,1
-0.446,0.706,0.935,1
-0.182,0.665,0.341,1
0.096,0.534,-0.41,1
0.293,0.378,-0.345,1
0.139,-0.105,0.538,1
-0.034,-0.645,1.522,1
0.017,-0.831,2.2,1
0.115,-0.832,2.579,1
0.332,-0.627,2.162,1
0.369,-0.564,1.169,1
0.209,-0.542,0.232,1
0.184,-0.527,-0.858,1
0.191,-0.549,-1.651,1
0.239,-0.635,-2.038,1
0.099,-0.778,-1.687,1
-0.13,-0.894,-1.048,0
-0.104,-0.887,-1.048,0
0.015,-0.648,-1.235,0
0.185,-0.465,-1.475,0
0.266,-0.26,-1.759,0
0.248,-0.132,-2.115,0
0.253,0.107,-2.764,0
0.208,0.299,-3.104,0
0.08,0.438,-2.987,0
-0.004,0.557,-2.678,0
0.009,0.554,-2.676,0
0.018,0.642,-1.845,0
0.018,0.636,-1.843,0
0.12,0.673,-1.115,0
-0.106,0.558,-1.386,0
-0.195,0.594,-1.629,0
-0.006,0.679,-1.618,0
0.153,0.776,-1.447,0
0.353,0.78,-0.868,0
0.506,0.841,-0.195,0
0.516,0.849,-0.197,0
0.358,0.504,1.147,0
0.165,0.32,1.212,0
-0.08,0.278,1.144,0
-0.06,0.371,1.094,0
-0.022,0.441,1.366,0
-0.076,0.383,1.778,0
-0.247,0.327,2.124,0
-0.105,0.374,2.282,0
0.062,0.611,2.251,0
0.309,0.827,2.31,0
0.368,0.863,2.201,1
0.21,0.737,1.721,1
-0.067,0.686,1.533,1
-0.384,0.818,1.475,1
-0.391,0.973,1.068,1
-0.342,1.191,0.698,1
-0.296,1.138,0.523,1
0.092,0.768,0.389,1
0.577,0.28,0.968,1
0.94,-0.311,2.376,1
0.785,-0.759,3.323,1
0.305,-1,2.872,1
-0.138,-1.039,1.436,1
-0.497,-0.946,-0.357,1
-0.66,-0.833,-1.146,1
-0.842,-0.687,-1.726,1
-0.832,-0.657,-1.735,1
-0.782,-0.378,-1.554,1
-0.475,-0.305,-1.238,1
-0.507,-0.265,-1.25,1
0.003,-0.537,-0.163,1
-0.145,-0.883,0.219,0
-0.378,-1.071,0.306,0
-0.369,-1.107,0.188,0
-0.177,-0.883,-0.233,0
0.035,-0.572,-0.903,0
0.069,-0.347,-1.588,0
0.083,-0.164,-2.062,0
0.079,-0.008,-2.13,0
-0.024,-0.016,-1.82,0
-0.207,-0.078,-1.498,0
-0.325,-0.142,-0.972,0
-0.469,-0.13,-0.729,0
-0.605,-0.026,-0.982,0
-0.539,0.229,-1.463,0
-0.527,0.217,-1.46,0
-0.404,0.66,-1.916,0
-0.396,0.647,-1.912,0
-0.484,0.877,-1.108,0
-0.57,0.687,-0.59,0
-0.456,0.637,-0.38,0
-0.266,0.531,-0.082,0
-0.175,0.36,0.182,0
-0.138,0.216,0.404,0
-0.116,0.209,0.586,0
-0.126,0.158,0.627,0
-0.146,0.111,0.76,0
-0.057,0.162,1.251,0
-0.005,0.126,1.687,0
-0.016,0.128,2.416,0
-0.03,0.231,2.685,0
-0.061,0.221,2.507,0
-0.217,0.252,2.03,0
-0.603,0.512,1.39,0
-0.601,0.413,0.803,1
-0.054,0.255,0.702,1
0.303,0.291,1.155,1
0.426,0.3,2.081,1
0.248,0.287,2.691,1
0.001,0.364,2.835,1
-0.217,0.571,2.154,1
-0.007,0.671,1.109,1
0.14,0.768,0.527,1
0.194,0.591,0.1,1
0.05,0.25,0.162,1
-0.289,-0.257,0.713,1
-0.537,-0.593,1.068,1
-0.68,-0.813,1.162,1
-0.57,-0.903,0.924,1
-0.13,-0.722,0.548,1
0.316,-0.472,0.021,1
0.585,-0.284,-0.765,1
0.775,-0.203,-1.225,1
0.744,-0.175,-1.534,1
0.552,-0.27,-1.765,1
0.226,-0.486,-1.737,0
0.012,-0.601,-1.565,0
-0.161,-0.751,-1.263,0
-0.151,-0.761,-0.994,0
0.115,-0.604,-1.039,0
0.654,-0.254,-1.543,0
0.898,0.059,-1.825,0
0.848,0.116,-2.012,0
0.636,0.207,-2.41,0
0.426,0.26,-2.593,0
0.163,0.33,-2.718,0
-0.021,0.434,-2.693,0
-0.197,0.445,-2.528,0
-0.249,0.581,-2.398,0
-0.178,0.554,-2.37,0
0.07,0.607,-1.929,0
0.072,0.607,-1.929,0
0.342,0.562,-1.169,0
0.396,0.449,-1.017,0
0.278,0.298,-0.679,0
0.084,0.084,-0.059,0
-0.091,-0.116,0.19,0
-0.317,-0.036,0.357,0
-0.557,-0.023,0.5,0
-0.562,0.098,0.227,0
-0.481,0.333,0.076,0
-0.341,0.423,0.36,0
-0.267,0.506,0.681,0
-0.136,0.481,1.299,0
0.028,0.372,1.63,0
0.181,0.382,2.356,0
0.559,0.702,3.168,0
0.526,0.686,3.172,0
1.068,1.235,2.509,1
1.056,1.211,2.516,1
-0.083,1.033,1.554,1
-0.505,1.002,1.425,1
-0.494,1.146,1.241,1
-0.301,1.362,1.278,1
0.056,1.237,1.201,1
0.585,0.866,1.403,1
0.833,0.177,2.38,1
0.65,-0.515,3.344,1
0.277,-0.979,3.72,1
-0.317,-1.261,2.729,1
-0.669,-1.29,1.355,1
-1.046,-1.2,-0.097,1
-1.337,-1.123,-1.072,1
-1.517,-0.94,-2.009,1
-1.696,-0.695,-2.355,1
-1.739,-0.708,-2.544,1
-1.657,-0.733,-2.071,1
-1.31,-0.822,-0.904,1
-1.007,-0.849,-0.095,1
-0.641,-0.981,0.9,0
-0.341,-0.978,1.352,0
0.109,-0.761,0.955,0
0.401,-0.436,0.013,0
0.473,-0.256,-1.119,0
0.457,-0.117,-1.834,0
0.433,0.084,-2.244,0
0.281,0.153,-2.352,0
-0.024,0.065,-2.196,0
-0.169,0.017,-1.855,0
-0.331,-0.008,-1.502,0
-0.258,0.098,-1.402,0
-0.089,0.39,-1.478,0
0.03,0.595,-1.482,0
-0.05,0.749,-1.513,0
-0.068,0.82,-1.684,0
-0.112,0.813,-1.708,0
-0.204,0.803,-1.41,0
-0.273,0.716,-0.982,0
-0.331,0.609,-0.563,0
-0.41,0.422,0.034,0
-0.44,0.24,0.35,0
-0.45,0.265,0.656,0
-0.426,0.364,0.988,0
-0.277,0.423,1.35,0
0.134,0.589,1.57,0
0.418,0.61,2.21,0
0.371,0.475,2.718,0
0.311,0.421,2.711,0
0.365,0.375,2.284,0
0.479,0.2,1.53,0
0.23,0.192,1.313,0
-0.183,0.314,1.193,0
-0.063,0.299,1.051,1
-0.034,0.279,1.057,1
0.44,0.376,1.622,1
0.321,0.71,2.145,1
-0.076,0.954,2.083,1
-0.225,1.061,1.011,1
0.082,1.202,0.062,1
0.512,1.125,-0.565,1
0.585,0.466,-0.194,1
0.406,-0.312,1.058,1
0.064,-0.946,2.43,1
-0.486,-1.546,3.722,1
-0.765,-1.658,3.869,1
-0.69,-1.408,2.737,1
-0.44,-1.058,1.382,1
0.099,-0.445,-0.131,1
0.39,-0.095,-1.05,1
0.439,0.106,-1.648,1
0.466,0.113,-2.024,1
0.283,-0.025,-2.045,1
0.177,-0.206,-2.07,1
0,-0.451,-2.037,0
-0.043,-0.562,-1.99,0
0.18,-0.423,-1.835,0
0.365,-0.265,-1.724,0
0.577,-0.057,-1.988,0
0.703,0.171,-2.173,0
0.772,0.378,-2.183,0
0.677,0.507,-2.263,0
0.503,0.639,-2.796,0
0.362,0.734,-3.266,0
-0.026,0.713,-3.507,0
-0.272,0.587,-3.331,0
-0.225,0.473,-2.691,0
-0.175,0.294,-1.732,0
-0.091,0.23,-1.067,0
0.188,0.272,-0.48,0
0.493,0.294,0.293,0
0.599,0.289,0.533,0
0.332,0.144,0.233,0
-0.013,-0.027,0.074,0
-0.295,-0.059,-0.107,0
-0.346,0.017,-0.412,0
-0.325,0.191,-0.521,0
-0.296,0.184,-0.518,0
-0.171,0.24,0.554,0
-0.183,0.092,1.604,0
-0.291,-0.032,2.463,0
-0.169,0.013,2.597,0
0.108,0.329,2.354,0
0.162,0.636,2.075,0
0.294,1.018,1.452,0
0.494,1.107,1.285,0
0.373,1.218,1.084,0
0.097,1.241,1.336,1
-0.285,1.262,1.638,1
-0.608,1.058,1.716,1
-0.618,1.062,1.715,1
-1.004,0.745,0.981,1
-1.037,0.75,0.978,1
-0.562,-0.17,1.515,1
0.121,-0.572,3.083,1
0.332,-0.813,3.963,1
0.178,-0.917,3.581,1
-0.239,-0.962,2.136,1
-0.254,-0.927,2.126,1
-0.872,-0.848,-0.493,1
-1.176,-0.874,-1.134,1
-1.411,-0.84,-1.466,1
-1.653,-0.886,-1.831,1
-1.515,-0.847,-2.095,1
-1.224,-0.721,-1.866,1
-0.805,-0.583,-1.25,1
-0.371,-0.57,-0.49,1
-0.448,-0.755,0.144,1
-0.66,-1.031,0.572,0
-0.814,-1.087,0.241,0
-0.698,-0.988,-0.671,0
-0.493,-0.769,-1.219,0
-0.224,-0.516,-1.593,0
-0.105,-0.223,-1.856,0
0.012,0.087,-1.984,0
0.022,0.315,-2.226,0
-0.14,0.439,-2.218,0
-0.312,0.42,-1.954,0
-0.483,0.404,-1.336,0
-0.512,0.434,-0.967,0
-0.476,0.586,-1.095,0
-0.436,0.701,-1.207,0
-0.307,0.825,-1.132,0
-0.198,0.92,-0.936,0
-0.074,0.919,-0.649,0
-0.192,0.771,-0.324,0
-0.303,0.572,0.09,0
-0.25,0.411,0.377,0
-0.288,0.189,0.886,0
-0.267,0.061,1.208,0
-0.358,0.056,1.5,0
-0.338,0.077,1.479,0
-0.217,0.235,1.329,0
-0.04,0.401,1.102,0
0.199,0.565,1.107,0
0.388,0.57,1.126,0
0.498,0.486,1.463,0
0.581,0.343,1.723,0
0.297,0.46,1.941,0
0.217,0.393,1.659,1
0.333,0.337,1.288,1
0.483,0.17,1.505,1
0.286,0.021,2.381,1
0.078,0.033,2.778,1
-0.106,0.377,2.434,1
-0.134,0.76,1.449,1
0.249,1.256,-0.057,1
0.664,1.606,-1.147,1
0.898,1.539,-1.871,1
0.503,0.738,-0.972,1
-0.102,-0.378,1.016,1
-0.511,-1.137,2.64,1
-0.711,-1.664,4.057,1
-0.721,-1.789,3.893,1
-0.401,-1.503,2.098,1
0.007,-1.108,0.898,1
0.396,-0.798,-0.623,1
0.358,-0.546,-1.693,1
0.223,-0.543,-2.03,1
-0.024,-0.659,-1.703,1
-0.296,-0.855,-0.896,0
-0.381,-1.017,-0.52,0
-0.351,-0.842,-0.678,0
-0.274,-0.735,-1.095,0
-0.013,-0.393,-1.883,0
0.246,-0.022,-2.5,0
0.654,0.399,-3.19,0
0.897,0.755,-3.346,0
0.978,0.896,-2.965,0
0.717,0.833,-2.385,0
0.271,0.623,-2.067,0
-0.043,0.43,-1.707,0
-0.392,0.212,-1.304,0
-0.497,0.154,-1.298,0
-0.467,0.2,-1.387,0
-0.335,0.282,-1.47,0
-0.329,0.269,-1.466,0
-0.144,0.376,-1.263,0
0.135,0.49,-0.931,0
0.202,0.553,-0.885,0
0.017,0.435,-0.588,0
-0.27,0.287,-0.316,0
-0.481,0.204,-0.251,0
-0.514,0.262,-0.398,0
-0.361,0.375,-0.332,0
-0.13,0.551,0.097,0
0.05,0.628,0.606,0
-0.003,0.657,0.868,0
0.037,0.737,1.08,0
0.064,0.583,1.436,0
0.323,0.567,2.423,0
0.404,0.548,3.054,0
0.365,0.787,3.324,0
0.269,0.975,2.804,1
0.309,0.987,1.849,1
0.123,1.145,1.237,1
-0.336,1.355,0.966,1
-0.572,1.444,0.836,1
-0.835,1.588,0.773,1
-0.861,1.521,0.647,1
-0.874,1.521,0.647,1
-0.006,0.714,0.483,1
0.223,-0.086,2.367,1
-0.002,-0.634,3.715,1
-0.484,-0.96,3.751,1
-1.059,-1.166,2.481,1
-1.529,-1.231,0.885,1
-1.776,-1.214,-0.266,1
-2.211,-1.113,-1.435,1
-2.447,-1.063,-1.764,1
-2.141,-0.905,-1.89,1
-1.403,-0.676,-1.323,1
-0.663,-0.69,-0.45,1
-0.352,-0.862,0.374,1
-0.459,-1.245,1.017,0
-0.461,-1.369,0.998,0
-0.237,-1.243,0.447,0
0.035,-0.943,-0.234,0
0.356,-0.445,-1.023,0
0.443,-0.13,-1.85,0
0.451,0.24,-3.01,0
0.505,0.448,-3.484,0
0.485,0.505,-3.262,0
0.329,0.406,-2.445,0
0.148,0.284,-1.191,0
-0.006,0.282,-0.507,0
-0.138,0.274,-0.306,0
-0.39,0.279,-0.447,0
-0.501,0.337,-0.98,0
-0.487,0.487,-1.385,0
-0.475,0.469,-1.381,0
-0.162,0.721,-1.535,0
0.162,0.785,-1.513,0
0.256,0.755,-1.141,0
0.186,0.511,-0.417,0
0.022,0.322,0.463,0
-0.213,0.198,1.48,0
-0.269,0.179,1.826,0
-0.24,0.27,1.787,0
-0.125,0.387,1.574,0
0.09,0.441,1.425,0
0.221,0.445,1.51,0
0.147,0.354,1.673,0
0.226,0.279,1.665,0
0.138,0.302,1.489,0
0.011,0.302,1.331,0
0.109,0.041,1.023,0
0.371,-0.112,1.192,1
0.448,-0.178,1.834,1
0.288,-0.069,2.013,1
0.224,0.346,1.994,1
0.099,0.896,1.376,1
0.131,1.302,-0.348,1
0.505,1.342,-1.303,1
0.944,1.099,-1.953,1
0.868,0.432,-1.136,1
0.422,-0.665,1.211,1
-0.13,-1.391,3.245,1
-0.432,-1.849,4.283,1
-0.522,-1.961,4.137,1
-0.277,-1.729,2.488,1
-0.007,-1.386,1.112,1
0.35,-0.971,0.123,1
0.527,-0.754,-0.72,1
0.605,-0.57,-1.605,1
0.424,-0.641,-1.824,1
0.205,-0.757,-1.839,1
0.09,-0.83,-1.668,1
0.124,-0.794,-1.205,0
0.207,-0.679,-0.991,0
0.272,-0.478,-1.41,0
0.298,-0.269,-2.004,0
0.261,0.007,-2.534,0
0.336,0.24,-2.827,0
0.599,0.623,-3.209,0
0.497,0.784,-2.986,0
0.194,0.734,-2.59,0
-0.069,0.626,-2.147,0
-0.359,0.442,-1.478,0
-0.56,0.308,-1.07,0
-0.582,0.231,-0.813,0
-0.469,0.261,-0.539,0
-0.197,0.342,-0.308,0
0.035,0.454,-0.487,0
0.561,0.73,-0.291,0
0.808,0.792,-0.114,0
0.782,0.682,-0.149,0
0.635,0.522,-0.136,0
0.305,0.3,0.285,0
0.116,0.155,0.53,0
-0.079,0.121,0.53,0
-0.1,0.165,0.256,0
-0.076,0.319,0.144,0
0.031,0.434,0.477,0
0.084,0.492,0.853,0
0.184,0.543,1.058,0
0.339,0.513,1.584,0
0.313,0.474,2.253,0
0.341,0.567,2.805,0
0.304,0.453,2.608,1
0.169,0.348,2.049,1
0.014,0.491,1.625,1
-0.229,0.677,1.234,1
-0.298,0.849,0.786,1
-0.3,0.837,0.79,1
-0.295,1.027,0.408,1
-0.309,1.041,0.404,1
0.789,0.317,1.732,1
0.891,-0.67,3.573,1
0.568,-1.256,4.756,1
0.129,-1.632,4.873,1
-0.115,-1.444,2.993,1
-0.128,-1.024,0.743,1
-0.182,-0.747,-1.009,1
-0.189,-0.251,-2.694,1
-0.118,-0.007,-3.184,1
-0.25,0.108,-2.441,1
-0.262,0.053,-1.297,1
-0.09,-0.139,-0.308,1
-0.066,-0.333,-0.062,1
-0.142,-0.653,0.26,0
-0.284,-0.981,0.317,0
-0.218,-1.021,-0.056,0
-0.076,-0.981,-0.49,0
0.157,-0.696,-0.951,0
0.366,-0.388,-1.449,0
0.481,-0.026,-1.999,0
0.401,0.138,-2.269,0
0.241,0.242,-2.333,0
0.041,0.264,-1.99,0
-0.053,0.202,-1.522,0
-0.171,0.197,-0.808,0
-0.288,0.127,-0.607,0
-0.329,0.184,-0.938,0
-0.302,0.331,-1.392,0
-0.159,0.518,-1.589,0
0.097,0.756,-1.581,0
0.176,0.841,-1.364,0
0.231,0.768,-0.972,0
0.028,0.525,-0.268,0
0.031,0.526,-0.268,0
-0.107,0.117,0.848,0
-0.17,0.039,1.255,0
-0.259,-0.047,1.352,0
-0.324,0.034,1.004,0
-0.302,0.154,0.602,0
-0.292,0.121,0.611,0
0.272,0.483,0.65,0
0.505,0.564,0.903,0
0.471,0.57,0.943,0
0.497,0.554,1.01,0
0.372,0.508,0.964,0
-0.041,0.497,0.876,0
-0.131,0.247,0.529,0
0.023,-0.102,0.547,0
0.004,-0.272,1.439,1
-0.147,-0.373,2.29,1
-0.424,-0.339,2.354,1
-0.589,0.124,1.754,1
-0.553,0.488,1.02,1
-0.293,0.663,0.23,1
0.008,0.511,0.035,1
0.352,0.145,0.336,1
0.545,-0.357,1.199,1
0.433,-0.787,2.163,1
0.311,-1.025,2.666,1
0.186,-1.101,2.604,1
0.158,-1.055,1.754,1
0.153,-0.99,0.874,1
0.31,-0.906,0.468,1
0.431,-0.777,0.17,1
0.544,-0.722,-0.135,1
0.684,-0.596,-0.667,1
0.858,-0.525,-1.18,1
0.772,-0.601,-1.279,1
0.713,-0.646,-1.199,1
0.658,-0.612,-1.124,0
0.564,-0.614,-1.309,0
0.531,-0.501,-1.701,0
0.655,-0.344,-1.883,0
0.706,-0.181,-2.102,0
0.735,-0.09,-2.306,0
0.758,0.114,-2.484,0
0.602,0.2,-2.324,0
0.435,0.261,-2.101,0
0.292,0.362,-1.943,0
0.044,0.306,-1.854,0
-0.151,0.337,-1.789,0
-0.056,0.489,-1.839,0
0.107,0.543,-1.928,0
0.112,0.533,-1.925,0
0.469,0.684,-1.449,0
0.465,0.678,-1.447,0
0.828,0.676,-0.14,0
0.832,0.6,0.618,0
0.606,0.393,1.043,0
0.388,0.31,1.287,0
0.284,0.265,1.057,0
0.204,0.434,0.561,0
0.188,0.526,0.292,0
0.21,0.504,0.298,0
0.149,0.465,0.91,0
0.208,0.342,1.436,0
0.296,0.263,1.831,0
0.551,0.339,1.89,0
0.597,0.421,2.017,0
0.767,0.706,1.71,0
0.944,0.919,1.352,1
1.087,0.917,1.039,1
0.861,0.927,1.203,1
0.207,0.888,1.321,1
-0.338,0.907,1.089,1
-0.585,1.099,0.684,1
-0.513,1.095,0.589,1
0.144,0.813,0.702,1
0.733,0.404,1.307,1
1.146,-0.549,3.251,1
0.866,-1.257,4.869,1
0.218,-1.896,6.172,1
-0.239,-1.942,5.296,1
-0.424,-1.644,2.713,1
-0.372,-1.142,0.491,1
-0.397,-0.792,-1.108,1
-0.455,-0.476,-2.184,1
-0.513,-0.292,-2.55,1
-0.482,-0.278,-2.302,1
-0.262,-0.282,-1.798,1
-0.066,-0.363,-1.598,1
0.182,-0.426,-1.391,0
0.335,-0.485,-1.155,0
0.48,-0.359,-1.357,0
0.61,-0.185,-1.671,0
0.7,-0.091,-1.9,0
0.64,-0.079,-2.06,0
0.579,-0.087,-2.136,0
0.526,-0.128,-2.002,0
0.39,-0.236,-1.659,0
0.283,-0.281,-1.321,0
0.283,-0.238,-1.062,0
0.356,-0.067,-0.704,0
0.357,-0.065,-0.705,0
0.252,0.268,-0.982,0
0.174,0.41,-1.308,0
0.143,0.46,-1.383,0
0.152,0.456,-1.381,0
0.151,0.397,-1.122,0
0.141,0.266,-0.938,0
0.152,0.191,-0.734,0
0.111,0.002,-0.373,0
0.013,-0.103,-0.064,0
0.063,-0.148,0.186,0
0.049,-0.132,0.26,0
0.181,0.027,-0.055,0
0.36,0.263,-0.318,0
0.442,0.462,-0.492,0
0.494,0.452,-0.513,0
0.527,0.408,0.176,0
0.466,0.26,0.824,0
0.484,0.162,1.349,0
0.441,-0.034,2.047,0
0.17,-0.137,2.21,0
0.143,-0.125,1.472,0
0.269,-0.287,0.683,0
0.345,-0.445,0.861,0
0.347,-0.232,1.441,0
0.297,0.036,1.508,1
-0.028,0.613,1.062,1
-0.143,1.024,0.411,1
0.274,1.161,-0.357,1
0.854,0.887,-0.659,1
1.368,0.21,0.552,1
1.394,-0.812,2.569,1
1.373,-0.728,2.546,1
0.252,-2.347,6.613,1
0.182,-2.391,6.292,1
0.376,-2.014,4.437,1
0.772,-1.323,1.769,1
0.924,-0.867,0.512,1
0.838,-0.499,-0.647,1
0.707,-0.373,-1.21,1
0.547,-0.403,-1.407,1
0.535,-0.463,-1.27,1
0.631,-0.589,-0.93,1
0.717,-0.723,-0.654,1
0.87,-0.638,-0.634,1
1.124,-0.431,-1.044,1
1.416,-0.15,-1.526,0
1.503,0.054,-2.052,0
1.38,0.295,-2.732,0
1.19,0.314,-2.946,0
0.962,0.262,-2.581,0
0.752,0.191,-2.017,0
0.584,0.081,-1.694,0
0.298,0.12,-1.775,0
0.132,0.143,-2.059,0
0.099,0.263,-2.181,0
0.154,0.453,-2.399,0
0.216,0.543,-2.459,0
0.236,0.538,-2.457,0
0.83,0.84,-1.737,0
0.835,0.844,-1.738,0
0.369,0.212,-0.269,0
0.227,-0.013,0.335,0
0.193,-0.113,0.801,0
0.173,-0.012,1.005,0
0.256,0.157,0.846,0
0.445,0.451,0.425,0
0.555,0.642,0.08,0
0.726,0.804,0.129,0
0.784,0.779,0.787,0
0.84,0.762,1.342,0
0.954,0.756,2.053,0
1.246,0.701,2.353,0
1.23,1.009,2.961,0
1.592,1.332,2.01,0
1.553,1.616,0.903,0
1.58,1.478,0.339,0
1.377,1.583,0.391,0
0.821,1.515,0.804,0
0.261,1.217,1.264,1
0.249,1.217,1.263,1
0.129,0.91,1.652,1
0.187,0.276,2.069,1
0.432,-0.562,2.596,1
0.483,-1.708,4.441,1
0.268,-2.257,5.877,1
-0.003,-2.311,5.909,1
-0.132,-2.013,3.842,1
-0.192,-1.505,1.462,1
-0.266,-1.103,-0.353,1
-0.456,-0.872,-1.672,1
-0.748,-0.763,-1.999,1
-0.965,-0.815,-1.61,1
-0.709,-0.803,-0.953,1
-0.135,-0.7,-0.365,1
0.265,-0.69,-0.337,1
0.694,-0.731,-0.394,1
0.902,-0.692,-0.643,1
0.807,-0.737,-0.999,1
0.716,-0.76,-1.33,1
0.616,-0.604,-1.724,0
0.61,-0.45,-2.237,0
0.576,-0.215,-2.864,0
0.48,-0.006,-2.905,0
0.468,0.207,-2.851,0
0.332,0.298,-2.29,0
0.327,0.297,-2.29,0
0.12,0.386,-1.806,0
0.038,0.312,-1.585,0
0.025,0.281,-1.26,0
0.028,0.284,-1.26,0
-0.12,0.14,-0.624,0
-0.22,0.11,-0.636,0
-0.16,0.106,-0.8,0
-0.072,0.162,-0.827,0
-0.003,0.164,-0.794,0
0.053,0.159,-0.825,0
0.097,0.133,-0.93,0
0.08,0.082,-0.843,0
0.095,0.1,-0.654,0
0.089,0.156,0.055,0
0.089,0.193,0.622,0
0.413,0.413,0.675,0
0.618,0.596,0.664,0
0.758,0.696,0.917,0
0.873,0.715,1.14,0
1.053,0.704,1.148,0
1.025,0.695,1.142,0
0.932,0.612,0.977,0
0.786,0.445,0.99,0
0.803,0.428,0.996,0
0.103,0.003,1.346,1
-0.115,0.189,1.443,1
-0.457,0.531,1.395,1
-0.457,0.519,1.398,1
-0.569,1.406,0.146,1
0.606,1.211,-1.381,1
1.478,0.546,-1.033,1
1.646,-1.14,2.638,1
1.36,-2.239,5.566,1
0.62,-3.119,8.644,1
0.361,-3.09,8.653,1
0.338,-2.506,5.419,1
0.752,-1.445,1.781,1
1.133,-0.624,-0.666,1
1.156,0.031,-2.306,1
0.98,0.301,-2.617,1
0.863,0.268,-2.336,1
0.805,0.088,-1.709,1
0.83,-0.173,-1.249,1
0.859,-0.47,-0.885,1
0.709,-0.651,-0.659,1
0.879,-0.62,-0.728,0
1.162,-0.413,-0.921,0
1.166,-0.406,-0.922,0
1.437,0.008,-1.164,0
1.525,0.244,-1.608,0
1.483,0.369,-1.821,0
1.191,0.333,-1.789,0
0.9,0.254,-1.606,0
0.908,0.244,-1.603,0
0.418,0.23,-1.44,0
0.266,0.278,-1.486,0
0.294,0.372,-1.601,0
0.312,0.356,-1.596,0
0.756,0.723,-1.765,0
0.905,0.702,-1.434,0
0.886,0.552,-0.79,0
0.884,0.551,-0.79,0
0.773,-0.005,0.761,0
0.646,-0.3,1.351,0
0.454,-0.465,1.271,0
0.313,-0.431,0.691,0
0.349,-0.253,0.116,0
0.4,-0.013,-0.383,0
0.51,0.154,-0.494,0
0.691,0.4,-0.398,0
0.836,0.448,0.195,0
0.928,0.346,0.926,0
0.987,0.259,1.626,0
1.267,0.137,2.207,0
1.577,0.127,2.978,0
1.589,0.306,2.924,0
1.217,0.604,2.352,0
0.925,0.679,0.738,0
0.835,0.598,-0.043,0
0.441,0.444,0.163,0
-0.176,0.621,0.802,1
-0.426,0.863,0.789,1
-0.34,1.183,0.699,1
0.014,1.622,0.313,1
0.382,1.576,0.19,1
0.352,1.579,0.187,1
1.335,0.272,1.384,1
1.253,-0.504,2.725,1
0.768,-0.95,3.128,1
0.063,-1.327,2.856,1
-0.52,-1.37,1.939,1
-1.028,-1.439,0.815,1
-1.298,-1.351,0.356,1
-1.07,-1.112,0.259,1
-0.626,-0.869,0.371,1
-0.082,-0.682,0.478,1
0.189,-0.707,0.526,1
0.34,-0.82,0.299,1
0.457,-0.927,0.133,1
0.677,-0.961,-0.478,1
0.82,-0.864,-1.069,1
0.894,-0.782,-1.83,0
0.939,-0.608,-2.504,0
0.99,-0.399,-3.017,0
1.059,-0.208,-3.104,0
1.043,-0.088,-2.638,0
0.756,-0.194,-1.993,0
0.349,-0.398,-1.332,0
-0.01,-0.511,-0.796,0
-0.21,-0.474,-0.797,0
-0.221,-0.374,-1.157,0
-0.136,-0.132,-1.79,0
0.143,0.15,-2.336,0
0.315,0.383,-2.589,0
0.295,0.426,-2.442,0
0.254,0.372,-2.113,0
0.167,0.301,-1.759,0
0.159,0.314,-1.763,0
0.173,0.031,-0.295,0
-0.087,-0.203,0.497,0
-0.333,-0.316,0.749,0
-0.312,-0.19,0.433,0
-0.12,0.061,0.115,0
0.248,0.444,-0.162,0
0.453,0.692,-0.399,0
0.592,0.854,-0.433,0
0.952,0.961,-0.239,0
1.011,1.002,0.155,0
0.819,0.968,0.637,0
0.683,0.91,1.011,0
0.677,0.856,1.262,0
0.557,0.652,1.289,0
0.328,0.578,1.249,0
0.342,0.585,1.247,0
-0.766,0.552,2.227,1
-1.056,1.054,2.145,1
-0.999,1.227,1.993,1
-0.576,0.604,1.712,1
-0.096,-0.408,2.646,1
0.04,-1.994,6.042,1
0.052,-2.861,8.803,1
0.076,-3.264,10.037,1
0.255,-2.948,8.759,1
0.262,-2.92,8.753,1
0.957,-1.446,2.289,1
1.396,-0.686,-0.082,1
2.082,0.176,-2.141,1
2.667,0.982,-3.108,1
2.722,1.089,-2.887,1
2.63,0.906,-2.278,1
2.648,0.642,-1.915,1
2.472,0.161,-1.157,1
2.298,-0.199,-0.544,1
2.166,-0.393,-0.699,1
2.086,-0.451,-0.93,1
1.923,-0.464,-1.146,0
1.821,-0.517,-1.373,0
1.766,-0.405,-1.848,0
1.789,-0.3,-2.169,0
1.727,-0.216,-2.28,0
1.59,-0.215,-2.104,0
1.394,-0.221,-2.049,0
1.066,-0.253,-2.033,0
0.686,-0.361,-2.139,0
0.45,-0.398,-2.273,0
0.452,-0.336,-2.338,0
0.536,-0.269,-2.356,0
0.829,-0.158,-2.12,0
1.018,-0.086,-1.636,0
0.98,-0.174,-1.085,0
0.923,-0.146,-0.658,0
1.028,-0.131,-0.186,0
0.97,-0.138,-0.139,0
0.821,-0.138,-0.652,0
0.745,-0.109,-0.997,0
0.637,0.047,-0.875,0
0.594,0.149,-0.684,0
0.506,0.216,-0.336,0
0.326,0.173,0.206,0
0.387,0.177,0.621,0
0.485,0.179,1.403,0
0.805,0.245,1.777,0
1.145,0.427,1.873,0
1.21,0.718,1.77,0
1.103,0.911,1.518,0
1.102,0.869,1.531,0
0.187,1.198,0.552,0
-0.565,1.324,0.799,0
-1.114,1.407,0.819,1
-1.39,1.613,0.781,1
-0.945,1.478,0.575,1
0.095,0.8,0.247,1
1.23,-0.065,2.267,1
1.15,-0.006,2.242,1
1.411,-2.057,8.379,1
0.829,-2.569,8.799,1
0.292,-2.329,6.65,1
-0.085,-1.939,2.875,1
-0.263,-1.475,0.647,1
-0.245,-1.05,-0.753,1
-0.192,-0.707,-1.532,1
-0.017,-0.349,-1.93,1
0.146,-0.376,-1.082,1
0.243,-0.682,0.424,1
0.287,-0.877,0.87,1
0.443,-1.04,0.674,1
0.676,-0.939,-0.101,1
0.887,-0.7,-1.035,1
1.129,-0.471,-1.807,1
1.122,-0.16,-2.61,0
0.963,0.005,-3.441,0
0.81,0.019,-4.008,0
0.7,0.068,-3.732,0
0.693,0.072,-3.733,0
0.384,-0.236,-1.646,0
0.155,-0.3,-0.937,0
0.056,-0.271,-0.55,0
0.02,-0.178,-0.649,0
-0.129,-0.133,-0.927,0
-0.265,-0.122,-1.21,0
-0.293,-0.177,-1.109,0
-0.072,-0.092,-0.93,0
0.174,-0.004,-0.922,0
0.181,-0.003,-0.922,0
0.274,-0.159,-0.559,0
0.374,-0.179,0.085,0
0.373,-0.216,0.358,0
0.39,-0.175,0.249,0
0.329,-0.059,0.164,0
0.238,0.072,0.086,0
0.203,0.233,-0.193,0
0.226,0.365,-0.56,0
0.366,0.351,-0.502,0
0.829,0.449,0.054,0
1.241,0.486,0.669,0
1.416,0.358,1.452,0
1.372,0.024,2.144,0
0.958,-0.401,3.043,0
0.82,-0.784,3.254,0
0.494,-0.756,3.217,0
0.297,-0.314,2.677,0
0.493,0.156,1.891,0
1.037,0.026,1.231,1
1.064,-0.02,1.247,1
1.637,0.4,2.21,1
1.594,0.531,2.351,1
1.288,0.857,1.622,1
0.802,1.362,0.14,1
0.608,1.434,-1.264,1
0.788,1.265,-3.04,1
1.108,0.91,-3.642,1
1.17,0.164,-2.442,1
1.094,-0.819,0.038,1
0.634,-1.551,2.679,1
0.046,-2.104,4.446,1
-0.498,-2.347,4.427,1
-0.779,-2.204,2.604,1
-0.634,-1.846,0.592,1
-0.482,-1.691,-0.577,1
-0.428,-1.524,-1.027,1
-0.628,-1.588,-0.587,1
-0.789,-1.578,-0.23,1
-0.928,-1.411,-0.514,1
-0.966,-1.171,-1.35,0
-0.819,-0.822,-2.207,0
-0.37,-0.335,-2.771,0
-0.001,-0.055,-3.108,0
0.356,0.265,-2.975,0
0.546,0.435,-2.529,0
0.693,0.604,-2.151,0
0.711,0.718,-1.961,0
0.71,0.74,-1.724,0
0.72,0.756,-1.274,0
0.818,0.775,-0.906,0
0.866,0.765,-0.991,0
0.816,0.76,-1.067,0
0.754,0.669,-1.011,0
0.724,0.542,-0.942,0
0.65,0.427,-0.633,0
0.478,0.162,-0.257,0
0.301,0.102,-0.029,0
0.382,0.164,0.277,0
0.428,0.241,0.132,0
0.254,0.351,-0.355,0
0.207,0.463,-0.789,0
0.243,0.452,-0.783,0
0.335,0.554,-0.431,0
0.379,0.436,0.562,0
0.348,0.146,1.228,0
0.345,0.097,1.597,0
0.683,0.14,1.974,0
1,0.186,2.815,0
1.119,0.09,3.357,1
1.109,0.055,3.367,1
0.645,0.102,3.63,1
0.194,0.526,2.235,1
0.396,0.616,0.591,1
0.49,0.74,-0.256,1
0.031,1.004,-0.317,1
-0.493,1.114,-0.501,1
-1.033,1.382,-0.465,1
-1.482,1.407,-0.593,1
-1.28,1.188,-0.748,1
-0.653,0.461,-0.299,1
-0.034,-0.263,0.602,1
0.684,-0.985,2.294,1
0.872,-1.478,3.393,1
0.565,-1.751,3.807,1
0.102,-1.719,3.255,1
-0.109,-1.322,1.433,1
-0.101,-1.024,0.693,1
0.003,-0.918,0.507,1
0.123,-0.926,0.635,1
0.107,-0.889,0.624,0
0.677,-0.958,0.603,0
0.948,-0.974,0.156,0
1.253,-0.911,-0.354,0
1.515,-0.781,-0.509,0
1.642,-0.65,-0.612,0
1.709,-0.517,-0.802,0
1.695,-0.467,-0.709,0
1.555,-0.43,-0.935,0
1.306,-0.334,-1.693,0
1.055,-0.283,-2.522,0
0.86,-0.204,-2.968,0
0.826,0,-3.23,0
0.787,0.194,-3.031,0
0.492,0.203,-2.266,0
0.371,0.245,-1.74,0
0.295,0.202,-1.113,0
0.348,0.188,-0.227,0
0.244,0.006,0.178,0
-0.116,-0.177,0.056,0
-0.253,-0.258,0.028,0
-0.235,-0.202,0.132,0
-0.18,-0.075,0.038,0
-0.163,0.149,0.008,0
-0.526,0.089,-0.134,0
-0.389,0.256,0.063,0
-0.019,0.306,0.703,0
0.261,0.276,1.19,0
0.392,0.284,1.927,0
0.351,0.31,2.47,0
0.33,0.302,2.589,0
0.407,0.384,2.088,0
0.63,0.744,1.364,0
0.615,0.662,1.131,0
0.253,0.521,0.823,0
0.034,0.658,0.607,0
-0.096,0.439,0.576,0
-0.38,-0.088,0.692,1
-0.385,-1.012,1.608,1
-0.388,-1.878,3.386,1
-1.024,-2.801,5.546,1
-1.414,-3.46,7.488,1
-1.105,-3.451,8.372,1
-0.209,-2.956,7.413,1
1.104,-1.958,4.264,1
1.843,-1.27,1.81,1
1.819,-1.318,1.818,1
3.098,-0.306,-1.903,1
3.171,-0.263,-2.248,1
2.896,-0.504,-1.73,1
2.455,-0.93,-0.972,1
2.046,-1.27,-0.082,1
1.718,-1.569,0.347,1
1.605,-1.37,-0.098,1
1.627,-1.222,-1.26,1
1.494,-0.965,-2.027,1
1.34,-0.797,-2.319,1
1.088,-0.74,-2.294,1
0.957,-0.685,-2.23,0
1.043,-0.538,-2.114,0
1.21,-0.338,-2.205,0
1.234,-0.24,-2.314,0
1.175,-0.247,-2.403,0
1.006,-0.309,-2.214,0
0.874,-0.234,-2.226,0
0.72,-0.24,-2.249,0
0.614,-0.165,-2.086,0
0.617,0.065,-1.914,0
0.836,0.379,-2.017,0
1.042,0.622,-1.898,0
1.125,0.753,-1.577,0
1.105,0.683,-1.082,0
1.033,0.533,-0.086,0
0.822,0.28,0.489,0
0.843,0.198,0.847,0
1.057,0.23,0.944,0
1.131,0.234,1.06,0
1.003,0.184,1.309,0
0.83,0.141,1.406,0
0.766,0.175,1.425,0
0.5,0.207,1.438,0
0.337,0.147,1.365,0
0.161,0.094,1.682,0
0.123,0.088,2.014,0
0.08,0.159,2.238,0
0.05,0.18,2.131,0
0.025,0.352,1.541,0
0.08,0.376,0.893,0
-0.014,0.501,0.55,0
-0.381,0.514,0.366,1
-0.408,0.48,0.373,1
-0.367,0.671,0.484,1
-0.409,0.661,0.483,1
0.231,0.301,0.826,1
0.4,-0.328,0.958,1
0.406,-1.021,2.121,1
0.392,-1.603,3.576,1
0.3,-1.732,3.759,1
-0.016,-1.673,2.621,1
-0.21,-1.388,1.305,1
-0.223,-1.354,1.295,1
-0.683,-1.007,-0.496,1
-0.898,-0.831,-1.2,1
-0.857,-0.695,-1.267,1
-0.571,-0.713,-0.237,1
-0.319,-0.765,0.744,1
-0.008,-0.841,1.046,1
0.092,-0.819,0.753,1
0.258,-0.772,0.221,1
0.396,-0.623,-0.306,1
0.632,-0.393,-0.9,0
0.756,-0.181,-1.533,0
0.731,-0.04,-2.023,0
0.66,-0.033,-2.316,0
0.522,-0.056,-2.051,0
0.362,-0.148,-1.798,0
0.138,-0.228,-1.322,0
0.03,-0.18,-1.402,0
-0.083,0.018,-1.616,0
-0.1,0.132,-1.756,0
-0.091,0.264,-1.856,0
-0.069,0.304,-1.731,0
-0.115,0.234,-1.5,0
-0.159,0.218,-1.545,0
-0.242,0.159,-1.448,0
-0.458,-0.008,-1.18,0
-0.623,-0.09,-0.796,0
-0.588,-0.174,-0.524,0
-0.397,-0.191,-0.066,0
-0.31,-0.268,0.678,0
-0.287,-0.34,1.079,0
-0.246,-0.206,1.366,0
-0.11,0.013,1.444,0
0.058,0.266,1.298,0
0.339,0.525,0.667,0
0.554,0.615,0.611,0
0.693,0.597,1.059,0
0.65,0.527,1.58,0
0.639,0.495,1.851,0
0.566,0.52,1.673,0
0.383,0.702,1.079,0
0.443,0.629,0.881,0
0.541,0.434,1.038,0
0.408,0.295,1.482,1
-0.023,0.034,2.088,1
-0.339,-0.129,2.345,1
-0.345,-0.143,2.348,1
-0.294,0.617,1.817,1
-0.003,0.95,0.819,1
0.171,1.04,0.008,1
0.648,0.978,-0.403,1
0.472,0.365,0.139,1
-0.016,-0.759,2.013,1
-0.337,-1.317,3.239,1
-0.538,-1.703,4.16,1
-0.479,-1.627,3.861,1
-0.174,-1.214,2.289,1
0.185,-0.692,0.489,1
0.588,-0.457,-0.293,1
0.561,-0.535,-0.36,1
0.124,-0.895,-0.759,1
-0.215,-1.156,-0.925,1
-0.38,-1.457,-0.927,1
-0.487,-1.602,-0.751,1
-0.541,-1.64,-0.628,0
-0.515,-1.6,-0.817,0
-0.506,-1.609,-0.815,0
0.035,-0.893,-2.231,0
0.31,-0.52,-3.032,0
0.463,-0.296,-3.154,0
0.375,-0.209,-3.095,0
0.19,-0.247,-3.015,0
0.177,-0.276,-3.006,0
-0.365,-0.298,-2.502,0
-0.312,-0.259,-2.259,0
-0.234,-0.165,-2.135,0
-0.021,-0.03,-1.963,0
0.225,0.071,-1.644,0
0.223,0.048,-1.637,0
0.361,0.134,-1.024,0
0.356,0.11,-1.016,0
0.568,0.237,-0.82,0
0.493,0.138,-0.516,0
0.315,-0.002,-0.321,0
0.146,-0.039,-0.554,0
0.038,0.029,-0.93,0
0,0.057,-0.778,0
-0.166,0.069,-0.15,0
-0.14,0.056,-0.145,0
-0.41,-0.043,0.773,0
-0.403,-0.064,0.781,0
-0.465,-0.214,2.242,0
-0.391,-0.156,2.401,0
-0.349,-0.042,2.173,0
-0.681,0.448,1.65,0
-0.779,0.726,0.723,0
-0.75,1.009,0.259,0
-0.642,1.225,0.279,1
-0.572,1.44,0.701,1
-0.674,1.545,1.166,1
-0.706,1.554,1.161,1
0.63,0.658,1.811,1
1.226,-0.47,4.02,1
1.171,-1.544,6.688,1
0.602,-1.963,8.271,1
0.339,-1.834,7.331,1
-0.025,-1.417,3.544,1
-0.115,-0.951,1.095,1
-0.301,-0.675,-0.988,1
-0.42,-0.523,-1.93,1
-0.479,-0.517,-1.871,1
-0.396,-0.673,-0.956,1
-0.083,-0.858,0.135,1
0.043,-0.94,0.471,1
0.014,-1.029,-0.044,1
0.045,-0.993,-0.882,1
0.269,-0.777,-1.777,1
0.273,-0.781,-1.775,1
0.414,-0.554,-2.477,0
0.43,-0.44,-2.883,0
0.471,-0.35,-3.23,0
0.462,-0.259,-3.147,0
0.441,-0.194,-2.401,0
0.207,-0.204,-1.867,0
0.19,-0.208,-1.866,0
-0.442,-0.306,-1.33,0
-0.568,-0.12,-1.703,0
-0.605,-0.035,-1.873,0
-0.653,0.056,-1.826,0
-0.614,0.093,-1.715,0
-0.617,0.085,-1.713,0
-0.295,0.175,-1.62,0
-0.303,0.172,-1.619,0
-0.167,-0.11,-0.484,0
-0.074,-0.298,0.094,0
-0.072,-0.499,0.747,0
0.063,-0.506,0.991,0
0.288,-0.356,0.939,0
0.189,-0.319,1.175,0
0.079,-0.378,1.159,0
0.137,-0.342,1.154,0
0.241,-0.314,1.452,0
0.286,-0.348,1.792,0
0.186,-0.354,1.892,0
-0.091,-0.171,1.949,0
-0.346,0.157,1.311,0
-0.288,0.276,0.311,0
0.08,0.365,0.145,0
0.405,0.502,0.603,0
0.413,0.526,1.693,1
0.068,0.258,2.924,1
-0.528,0.293,2.955,1
-0.791,0.44,1.871,1
-0.496,0.489,0.983,1
-0.052,0.247,0.434,1
0.198,-0.345,1.147,1
0.09,-1.072,3.035,1
-0.629,-1.91,4.968,1
-1.441,-2.601,6.133,1
-1.649,-2.819,5.76,1
-1.638,-2.672,4.067,1
-1.403,-2.529,2.859,1
-0.989,-2.14,1.491,1
-0.489,-1.618,0.364,1
0.085,-1.005,-0.849,1
0.38,-0.565,-2.027,1
-0.002,-0.625,-2.738,1
-0.426,-0.753,-2.957,1
-0.678,-0.902,-2.847,1
-0.606,-0.965,-2.487,1
-0.24,-0.784,-1.901,0
0.42,-0.47,-1.985,0
1.197,0.223,-2.417,0
1.464,0.585,-2.888,0
1.512,0.944,-3.18,0
1.253,1.091,-3.114,0
0.725,0.951,-2.89,0
0.442,0.856,-2.734,0
0.203,0.696,-2.253,0
-0.028,0.512,-1.989,0
-0.018,0.5,-1.985,0
-0.391,0.111,-1.544,0
-0.108,0.141,-1.182,0
0.232,0.298,-0.952,0
0.424,0.337,-0.961,0
0.325,0.226,-1.078,0
0.1,-0.012,-1.074,0
0.037,-0.195,-0.75,0
0.065,-0.194,-0.749,0
-0.006,-0.415,-0.174,0
-0.18,-0.452,0.03,0
-0.317,-0.409,0.106,0
-0.195,-0.292,0.003,0
-0.012,-0.014,0.404,0
-0.067,0.011,1.032,0
-0.072,0.026,1.437,0
0.001,0.067,1.792,0
0.188,0.138,1.958,0
0.301,0.42,1.778,0
0.473,0.766,1.426,0
0.455,0.732,1.437,0
1.491,1.295,0.927,0
1.264,1.313,1.605,0
0.54,1.01,1.8,1
0.521,1.016,1.797,1
-0.519,0.253,2.185,1
-0.417,-0.007,2.378,1
-0.085,-0.314,2.683,1
0.348,-0.828,3.581,1
0.431,-1.224,4.384,1
0.277,-1.461,4.655,1
0.075,-1.424,3.356,1
-0.424,-1.198,1.048,1
-0.815,-1.212,-0.075,1
-1.06,-1.171,-1.225,1
-1.113,-1.086,-1.613,1
-1.065,-0.963,-1.888,1
-0.682,-0.803,-1.623,1
-0.274,-0.676,-0.735,1
0.055,-0.716,-0.217,1
0.055,-0.828,-0.157,1
-0.039,-0.923,-0.373,1
0.035,-0.789,-0.904,1
0.266,-0.55,-1.153,1
0.252,-0.538,-1.156,0
0.289,-0.25,-1.668,0
0.262,-0.256,-1.773,0
0.255,-0.127,-1.68,0
0.317,-0.084,-1.256,0
0.277,-0.106,-1.187,0
0.072,-0.11,-1.305,0
-0.099,-0.111,-1.342,0
-0.193,-0.074,-1.441,0
-0.18,0.021,-1.539,0
-0.237,0.03,-1.772,0
-0.111,0.046,-1.703,0
-0.122,0.117,-0.925,0
-0.251,-0.003,-0.377,0
-0.366,-0.046,-0.199,0
-0.328,-0.077,0.154,0
-0.081,-0.027,0.338,0
0.056,0.012,0.318,0
0.06,-0.005,0.323,0
0.177,0.035,-0.356,0
0.1,0.02,-0.014,0
0.17,-0.048,0.187,0
0.264,-0.027,0.461,0
0.366,0.04,0.885,0
0.428,0.051,1.308,0
0.385,0.04,1.683,0
0.372,0.119,1.992,0
0.085,0.277,1.656,0
0.097,0.248,1.665,0
-0.111,0.111,0.663,0
0.03,0.055,0.95,0
0.114,0.155,1.604,1
0.039,0.213,2.246,1
-0.25,0.34,2.385,1
-0.364,0.501,1.728,1
-0.057,0.364,1.167,1
0.412,-0.114,0.852,1
0.529,-0.724,1.315,1
0.413,-1.508,2.97,1
0.047,-1.959,4.193,1
-0.183,-2.074,4.337,1
-0.225,-2.074,3.469,1
-0.076,-1.67,2.004,1
0.127,-1.406,1.399,1
0.148,-1.118,0.569,1
0.253,-0.803,-0.433,1
0.22,-0.552,-1.429,1
0.255,-0.351,-2.063,1
0.349,-0.202,-2.307,1
0.287,-0.274,-1.878,1
0.162,-0.453,-0.878,1
-0.04,-0.604,-0.086,1
-0.229,-0.707,0.367,0
-0.283,-0.603,0.037,0
-0.207,-0.39,-0.948,0
-0.192,-0.209,-1.559,0
-0.171,-0.095,-2.206,0
-0.106,0.086,-2.768,0
-0.133,0.196,-2.862,0
0.146,0.371,-2.57,0
0.25,0.487,-2.066,0
0.232,0.453,-1.774,0
0.162,0.351,-1.277,0
0.105,0.182,-0.868,0
0.059,0.078,-0.424,0
0.065,0.055,-0.417,0
0.157,0.173,-0.881,0
0.303,0.197,-1.261,0
0.306,0.161,-1.25,0
0.487,0.156,-1.412,0
0.376,0.125,-1.035,0
0.3,0.041,-0.606,0
0.32,0.031,-0.602,0
-0.053,-0.176,0.244,0
-0.227,-0.225,0.196,0
-0.236,-0.196,-0.037,0
-0.229,-0.227,-0.027,0
-0.31,-0.18,0.243,0
-0.338,-0.214,0.684,0
-0.204,-0.263,1.224,0
-0.105,-0.109,2.101,0
0.028,0.071,2.132,0
-0.05,0.202,1.952,0
0.074,0.346,1.19,0
0.161,0.533,1.112,0
0.182,0.861,1.344,1
0.083,0.995,1.413,1
-0.237,0.868,1.514,1
-0.248,0.883,1.508,1
-0.595,-0.029,1.677,1
-0.203,-0.786,2.998,1
-0.007,-1.258,4.2,1
0.165,-1.59,5.349,1
0.232,-1.485,4.957,1
0.157,-1.295,3.12,1
-0.105,-1.034,1.07,1
-0.141,-0.806,-0.201,1
-0.26,-0.667,-1.188,1
-0.449,-0.578,-1.77,1
-0.549,-0.624,-1.836,1
-0.586,-0.76,-1.611,1
-0.405,-0.878,-1.172,1
-0.2,-0.923,-0.425,1
-0.116,-0.966,-0.273,1
0.067,-0.895,-0.496,1
0.21,-0.73,-1.038,1
0.207,-0.63,-1.583,0
0.118,-0.588,-1.803,0
-0.108,-0.511,-2.378,0
-0.196,-0.411,-2.753,0
-0.207,-0.335,-2.762,0
-0.17,-0.384,-2.219,0
-0.088,-0.322,-1.579,0
-0.07,-0.252,-1.241,0
-0.178,-0.206,-1.15,0
-0.25,-0.147,-1.153,0
-0.336,-0.012,-1.461,0
-0.433,0.082,-1.408,0
-0.478,0.126,-1.181,0
-0.349,0.191,-1.095,0
-0.35,0.191,-1.095,0
0.028,0.309,-0.716,0
0.024,0.309,-0.716,0
0.075,-0.029,0.351,0
0.182,-0.178,0.87,0
0.187,-0.183,0.872,0
0.21,-0.289,0.229,0
0.115,-0.307,0.045,0
0.035,-0.227,0.127,0
0.245,-0.015,0.339,0
0.616,0.089,0.717,0
0.711,0.103,1.264,0
0.74,0.119,1.618,0
0.503,0.204,1.535,0
0.092,0.408,1.062,0
0.155,0.492,0.577,0
0.345,0.347,0.548,0
0.283,0.303,1.141,1
0.229,0.223,2.066,1
0.009,0.215,2.68,1
-0.374,0.447,2.42,1
-0.252,0.688,1.655,1
0.332,0.818,0.598,1
0.959,0.562,0.341,1
1.1,-0.207,1.788,1
0.677,-0.999,3.215,1
0.062,-1.62,4.751,1
-0.274,-2.017,5.42,1
-0.386,-2.022,4.436,1
-0.164,-1.861,2.82,1
0.074,-1.694,1.547,1
0.21,-1.513,0.382,1
0.379,-1.326,-0.237,1
0.388,-1.257,-0.188,1
0.328,-1.195,-0.11,1
0.206,-1.265,-0.34,1
0.193,-1.245,-0.506,1
0.356,-1.15,-0.888,1
0.258,-0.975,-1.246,0
0.433,-0.882,-1.709,0
0.551,-0.573,-2.222,0
0.516,-0.405,-2.631,0
0.464,-0.158,-3.316,0
0.478,-0.18,-3.31,0
0.454,0.192,-3.949,0
0.423,0.229,-3.491,0
0.361,0.163,-3.078,0
0.131,0.011,-2.24,0
-0.067,-0.196,-1.466,0
-0.316,-0.29,-1.103,0
-0.457,-0.363,-1.206,0
-0.406,-0.243,-1.154,0
-0.373,-0.212,-0.772,0
-0.195,-0.075,-0.545,0
-0.065,-0.037,-0.384,0
0.093,0,-0.534,0
0.126,0.028,-0.585,0
0.252,0.083,-0.591,0
0.318,0.186,-0.289,0
0.256,0.179,0.302,0
0.017,0.095,0.844,0
-0.241,0.122,1.223,0
-0.342,0.23,1.378,0
-0.291,0.367,1.343,0
-0.255,0.478,1.444,0
-0.05,0.518,1.788,0
0.269,0.522,1.988,0
0.684,0.521,2.156,0
0.655,0.552,2.885,0
0.662,0.666,3.118,1
0.655,0.638,3.126,1
0.706,0.759,2.496,1
0.087,0.748,1.524,1
-0.443,0.743,0.673,1
-0.787,0.923,-0.25,1
-1.085,0.952,-0.428,1
-0.926,1.034,-1.604,1
-0.648,0.722,-1.348,1
-0.274,-0.129,0.397,1
-0.256,-0.915,2.067,1
-0.436,-1.601,3.919,1
-0.682,-1.977,4.518,1
-0.874,-1.943,3.09,1
-0.922,-1.553,0.868,1
-0.781,-1.17,-0.229,1
-0.726,-0.858,-0.972,1
-0.814,-0.586,-1.419,1
-0.869,-0.574,-1.564,1
-0.766,-0.659,-1.445,1
-0.574,-0.733,-0.846,1
-0.542,-0.994,-0.054,0
-0.683,-1.246,-0.03,0
-0.439,-1.223,-0.577,0
-0.07,-1.011,-0.99,0
0.291,-0.868,-1.387,0
0.319,-0.796,-1.624,0
0.36,-0.649,-1.926,0
0.44,-0.452,-2.086,0
0.297,-0.399,-2.01,0
0.08,-0.294,-1.756,0
-0.079,-0.374,-1.464,0
-0.091,-0.365,-1.466,0
-0.568,-0.448,-0.525,0
-0.858,-0.525,-0.433,0
-0.959,-0.421,-0.794,0
-0.801,-0.199,-1.151,0
-0.862,-0.133,-1.4,0
-0.581,0.098,-1.172,0
-0.411,0.24,-1.088,0
-0.175,0.407,-0.96,0
-0.143,0.394,-0.72,0
-0.226,0.204,-0.644,0
-0.339,-0.079,-0.037,0
-0.384,-0.254,0.634,0
-0.427,-0.376,1.188,0
-0.418,-0.344,1.422,0
-0.412,-0.295,1.418,0
-0.413,-0.279,1.481,0
-0.19,-0.151,1.43,0
0.142,0.017,1.437,0
0.28,-0.008,1.414,0
0.392,0.108,1.465,0
0.267,0.365,1.47,0
0.252,0.441,0.91,0
0.186,0.454,0.402,0
0.024,0.424,0.827,1
-0.078,0.387,1.518,1
-0.041,0.47,2.279,1
0.154,0.832,2.622,1
0.448,0.98,2.179,1
0.863,0.954,0.749,1
0.849,0.525,0.337,1
0.254,-0.613,1.693,1
-0.297,-1.358,3.114,1
-0.693,-1.734,4.716,1
-0.851,-1.859,4.833,1
-0.9,-1.793,4.063,1
-0.862,-1.62,2.554,1
-0.763,-1.481,1.17,1
-0.582,-1.452,0.309,1
-0.467,-1.367,-0.479,1
-0.274,-1.238,-1.289,1
-0.11,-1.091,-1.874,1
-0.04,-1.063,-1.785,1
-0.029,-1.054,-1.609,1
-0.253,-1.121,-1.708,1
-0.537,-1.212,-1.948,0
-0.483,-1.137,-2.278,0
-0.166,-0.831,-2.48,0
0.25,-0.567,-2.594,0
0.468,-0.221,-2.834,0
0.501,-0.038,-3.007,0
0.517,0.164,-2.944,0
0.518,0.155,-2.941,0
0.684,0.515,-2.622,0
0.285,0.346,-2.358,0
-0.222,-0.098,-1.488,0
-0.455,-0.287,-0.726,0
-0.285,-0.351,-0.162,0
-0.08,-0.321,0.213,0
0.153,-0.265,0.384,0
0.276,-0.274,0.226,0
0.443,-0.238,-0.19,0
0.488,-0.243,-0.359,0
0.411,-0.271,-0.083,0
0.355,-0.254,0.103,0
0.247,-0.16,0.24,0
0.187,-0.12,0.297,0
0.118,0.029,0.182,0
0.132,0.087,-0.088,0
-0.085,0.166,0.058,0
-0.064,0.246,0.339,0
0.223,0.317,0.538,0
0.523,0.243,0.854,0
0.722,0.004,1.67,0
0.815,0.041,2.446,0
0.804,0.238,2.905,0
0.928,0.236,2.507,1
0.919,0.2,2.518,1
0.596,0.54,1.195,1
0.323,0.71,1.111,1
0.198,0.953,0.492,1
-0.024,1.306,0.145,1
0.228,1.261,-0.207,1
0.843,0.834,-0.284,1
1.197,0.104,1.163,1
1.261,-1.083,3.702,1
1.006,-1.675,4.936,1
0.689,-2.098,5.844,1
0.282,-2.119,4.539,1
0.086,-1.75,2.352,1
0.054,-1.518,0.798,1
-0.132,-1.266,-0.51,1
-0.097,-1.053,-1.069,1
0.046,-0.858,-1.29,1
0.31,-0.774,-0.94,1
0.582,-0.784,-0.252,1
0.653,-0.874,0.122,1
0.54,-1.066,0.301,0
0.44,-1.131,-0.06,0
0.564,-0.939,-0.824,0
0.805,-0.706,-1.321,0
1.05,-0.408,-2.212,0
1.061,-0.251,-2.913,0
0.805,-0.122,-3,0
0.648,-0.194,-2.791,0
0.337,-0.304,-2.093,0
0.206,-0.38,-1.676,0
0.046,-0.392,-1.279,0
-0.132,-0.481,-0.998,0
-0.128,-0.403,-0.974,0
-0.032,-0.292,-1.27,0
0.086,-0.152,-1.669,0
0.328,-0.033,-1.856,0
0.565,0.131,-2.014,0
0.567,0.125,-1.792,0
0.572,0.043,-1.31,0
0.609,0.002,-0.778,0
0.65,-0.136,-0.348,0
0.68,-0.244,0.157,0
0.683,-0.247,0.159,0
0.67,-0.382,1.152,0
0.833,-0.259,0.82,0
0.901,-0.096,0.434,0
0.959,-0.033,0.184,0
1.105,-0.042,0.046,0
1.174,-0.116,0.348,0
1.128,-0.205,0.919,0
1.016,-0.177,1.217,0
0.741,0,1.189,0
0.52,0.166,1.087,0
0.548,0.152,1.093,0
0.463,0.208,0.867,0
-0.042,0.54,1.072,0
-0.343,0.831,1.244,0
-0.121,0.859,1.117,1
0.708,0.508,0.498,1
0.712,0.547,0.485,1
1.829,-1.298,4.08,1
1.485,-2.029,6.553,1
1.028,-2.475,8.581,1
0.886,-2.295,7.917,1
0.763,-1.762,4.47,1
0.837,-1.147,1.662,1
1.055,-0.892,-0.157,1
1.143,-0.66,-1.247,1
1.067,-0.664,-0.862,1
1.156,-0.738,-0.296,1
1.277,-0.777,0.008,1
1.347,-0.875,0.022,1
1.337,-0.91,-0.224,1
1.271,-0.903,-0.957,1
1.344,-0.737,-1.607,1
1.32,-0.618,-1.817,1
1.331,-0.636,-1.811,1
1.271,-0.438,-2.561,1
1.374,-0.256,-2.823,0
1.4,-0.158,-2.711,0
1.294,-0.093,-2.407,0
1.123,-0.085,-2.144,0
0.912,-0.211,-1.817,0
0.758,-0.306,-1.577,0
0.854,-0.277,-1.431,0
1.131,-0.058,-1.373,0
1.131,-0.073,-1.369,0
1.512,0.188,-0.959,0
1.559,0.104,-0.806,0
1.45,-0.023,-0.423,0
1.46,-0.017,-0.424,0
1.295,-0.308,0.494,0
1.08,-0.453,0.982,0
0.917,-0.424,0.808,0
1.054,-0.116,0.372,0
1.107,0.099,0.146,0
1.004,0.294,0.131,0
0.953,0.29,0.267,0
0.764,0.238,0.869,0
0.702,0.128,1.523,0
0.611,-0.031,2.33,0
0.657,-0.107,2.755,0
0.709,-0.042,2.888,0
0.874,0.214,2.561,0
1.222,0.567,1.72,0
1.402,0.686,1.095,0
1.417,0.613,0.995,0
1.273,0.502,1.277,1
1.285,0.487,1.283,1
1.027,0.321,1.53,1
0.998,0.419,1.513,1
0.911,0.519,1.18,1
0.905,0.302,0.645,1
1.094,-0.109,0.448,1
1.377,-0.761,1.344,1
1.376,-1.316,2.517,1
0.94,-1.757,3.177,1
0.545,-1.916,2.815,1
-0.002,-1.952,1.283,1
0.086,-1.612,-0.097,1
0.512,-1.241,-0.878,1
0.748,-0.864,-1.528,1
0.924,-0.62,-2.064,1
0.823,-0.692,-1.866,1
0.734,-0.94,-1.222,1
0.797,-1.037,-0.659,1
1.027,-1.087,-0.263,1
1.119,-1.086,-0.13,1
1.111,-0.989,-0.454,0
1.054,-0.851,-1.046,0
0.927,-0.669,-1.742,0
0.772,-0.52,-2.011,0
0.675,-0.41,-2.254,0
0.692,-0.274,-2.484,0
0.782,-0.234,-2.123,0
0.795,-0.319,-1.244,0
0.669,-0.464,-0.018,0
0.552,-0.447,0.432,0
0.395,-0.432,0.428,0
0.367,-0.297,-0.261,0
0.406,-0.088,-0.965,0
0.551,0.072,-1.303,0
0.728,0.286,-1.21,0
0.738,0.243,-1.033,0
1.008,0.315,-0.795,0
1.175,0.37,-0.745,0
1.114,0.246,-0.865,0
1.069,0.201,-0.783,0
0.966,0.174,-0.575,0
0.788,0.178,-0.597,0
0.539,0.218,-0.77,0
0.486,0.203,-0.782,0
0.626,0.197,-0.414,0
0.811,0.203,0.123,0
1.109,0.253,0.852,0
1.413,0.139,1.559,0
1.517,-0.028,2.296,0
1.417,-0.288,2.976,0
1.073,-0.419,3.182,0
0.565,-0.287,2.577,1
0.563,-0.316,2.585,1
0.721,0.096,0.994,1
0.805,0.308,1.464,1
0.557,0.661,1.445,1
0.608,1.195,0.978,1
0.865,1.767,0.513,1
1.483,1.874,-0.182,1
2.049,1.413,-0.843,1
2.2,0.203,0.394,1
1.827,-1.066,2.467,1
0.848,-2.058,5.256,1
0.273,-2.48,6.477,1
-0.234,-2.316,5.297,1
-0.261,-2.057,2.915,1
0.09,-1.612,1.114,1
0.556,-1.263,0.279,1
0.901,-0.908,-0.29,1
1.276,-0.757,-0.488,1
1.385,-0.69,-0.392,1
1.33,-0.731,-0.382,1
1.172,-0.72,-0.694,0
1.04,-0.71,-1.121,0
1.038,-0.709,-1.122,0
0.91,-0.526,-1.78,0
0.875,-0.322,-2.314,0
0.963,-0.158,-2.902,0
0.974,0.063,-3.58,0
1.035,0.172,-3.51,0
1.149,0.199,-2.847,0
1.097,0.226,-2.313,0
0.879,0.195,-1.752,0
0.738,0.119,-1.103,0
0.376,-0.054,-0.586,0
0.058,-0.1,-0.793,0
-0.049,-0.023,-1.247,0
0.024,0.06,-1.485,0
0.258,0.16,-1.512,0
0.61,0.267,-1.122,0
1.297,0.502,-0.7,0
1.528,0.549,-0.342,0
1.472,0.501,0.154,0
1.247,0.49,0.557,0
0.784,0.405,0.81,0
0.524,0.471,0.504,0
0.344,0.687,0.25,0
0.332,0.805,0.251,0
0.493,0.899,0.415,0
0.556,0.864,0.786,0
0.643,0.741,1.415,0
0.778,0.589,1.898,0
0.795,0.492,2.244,0
0.794,0.294,3.022,0
0.703,0.122,4,0
0.353,0.506,3.938,1
-0.248,1.034,2.167,1
-0.23,1.276,0.686,1
0.097,1.067,-0.283,1
0.007,1.161,-0.097,1
-0.089,1.361,0.909,1
0.036,1.226,1.414,1
0.167,0.74,1.463,1
0.531,0.066,1.785,1
1.172,-0.783,3.165,1
1.023,-1.324,4.365,1
0.385,-1.712,4.474,1
-0.166,-1.597,2.617,1
-0.561,-1.288,0.098,1
-0.751,-1.169,-1.315,1
-0.717,-1.157,-1.316,1
-1.065,-0.896,-2.208,1
-0.932,-0.855,-1.543,1
-0.689,-0.82,-0.716,1
-0.353,-0.891,0.109,1
-0.233,-0.968,0.441,1
-0.03,-0.911,0.028,0
0.226,-0.698,-0.449,0
0.472,-0.473,-1.045,0
0.514,-0.339,-1.447,0
0.442,-0.23,-1.852,0
0.278,-0.241,-2.076,0
0.141,-0.327,-2.337,0
0.174,-0.303,-2.059,0
0.41,-0.312,-1.294,0
0.429,-0.375,-0.733,0
0.218,-0.407,-0.437,0
0.086,-0.286,-0.591,0
0.141,-0.035,-0.824,0
0.092,0.232,-1.057,0
0.109,0.226,-1.055,0
0.17,0.471,-1.488,0
0.272,0.468,-1.169,0
0.362,0.341,-0.73,0
0.366,0.342,-0.73,0
0.468,-0.006,0.388,0
0.257,-0.175,0.559,0
0.116,-0.241,0.511,0
0.046,-0.075,0.475,0
0.142,0.216,0.389,0
0.286,0.484,0.351,0
0.384,0.606,0.384,0
0.378,0.673,0.638,0
0.241,0.596,1.007,0
0.243,0.486,1.558,0
0.381,0.248,1.885,0
0.359,-0.122,2.134,0
-0.118,-0.119,2.747,0
-0.426,0.166,2.607,0
0.225,0.382,1.697,1
0.212,0.365,1.702,1
1.346,0.236,1.824,1
1.222,0.267,2.185,1
0.982,0.086,1.97,1
0.41,0.156,1.43,1
0.28,0.42,0.558,1
0.443,0.439,-0.13,1
0.523,0.258,-0.609,1
0.414,-0.233,0.043,1
0.106,-0.787,1.399,1
-0.14,-1.271,2.446,1
-0.153,-1.425,2.896,1
-0.096,-1.564,2.368,1
0.07,-1.391,1.23,1
0.344,-1.21,0.082,1
0.584,-1.055,-0.579,1
0.651,-0.98,-1.092,1
0.556,-0.87,-1.386,1
0.346,-0.827,-1.579,1
0.275,-0.711,-1.857,1
0.004,-0.628,-1.9,0
-0.345,-0.779,-1.622,0
-0.459,-0.717,-1.703,0
-0.085,-0.414,-2.186,0
0.38,-0.01,-2.776,0
0.577,0.241,-3.116,0
0.899,0.668,-2.844,0
1.111,0.891,-2.508,0
0.934,0.93,-2.162,0
0.507,0.722,-1.797,0
0.015,0.432,-1.184,0
-0.225,0.286,-0.804,0
-0.255,0.311,-0.707,0
-0.138,0.33,-0.981,0
-0.068,0.343,-1.156,0
-0.102,0.259,-0.943,0
0.016,0.147,-0.562,0
0.059,0.13,-0.387,0
0.009,0.066,-0.143,0
-0.109,0.032,-0.15,0
-0.249,0.094,0.05,0
-0.379,0.045,-0.192,0
-0.41,0.278,-0.701,0
-0.249,0.493,-0.712,0
-0.234,0.468,-0.705,0
0.199,0.861,-0.42,0
0.306,0.893,0.094,0
0.422,0.732,0.896,0
0.532,0.417,1.924,0
0.572,0.209,2.81,0
0.417,0.206,3.379,0
0.014,0.575,2.966,1
0.021,1.018,1.246,1
0.299,1.313,0.241,1
0.32,1.303,0.244,1
1.032,1.826,1.016,1
0.982,1.577,2.017,1
0.819,1.018,2.851,1
0.837,0.333,3.404,1
0.88,-0.389,4.189,1
0.791,-1.256,4.409,1
0.835,-1.682,4.075,1
0.661,-1.992,3.066,1
0.342,-2.013,1.873,1
-0.07,-1.77,0.464,1
-0.041,-1.765,0.463,1
-0.314,-1.264,-1.926,1
-0.553,-1.269,-2.342,1
-0.724,-1.192,-1.978,1
-0.652,-1.117,-1.175,1
-0.586,-1.026,-0.417,1
-0.784,-1.185,0.002,1
-0.925,-1.344,0.159,0
-0.794,-1.293,0.235,0
-0.339,-1.129,0.121,0
0.024,-0.87,-0.269,0
0.38,-0.593,-0.92,0
0.469,-0.424,-1.394,0
0.39,-0.325,-1.68,0
0.416,-0.296,-1.759,0
0.414,-0.289,-1.314,0
0.3,-0.327,-0.89,0
0.152,-0.376,-0.595,0
0.129,-0.277,-0.499,0
0.194,-0.157,-0.725,0
0.244,0.183,-1.214,0
0.303,0.431,-1.731,0
0.329,0.557,-1.914,0
0.509,0.586,-1.677,0
0.567,0.517,-1.174,0
0.535,0.344,-0.657,0
0.467,0.198,-0.09,0
0.467,0.187,-0.087,0
0.143,0.01,0.322,0
0.001,0.064,-0.069,0
-0.103,0.216,-0.568,0
-0.143,0.493,-0.958,0
-0.055,0.59,-1.054,0
0.163,0.712,-0.948,0
0.659,0.897,-0.27,0
0.68,0.725,0.777,0
0.315,0.536,1.278,0
-0.21,0.535,1.803,0
-0.633,0.738,1.485,0
-0.689,1.16,0.709,0
-0.579,1.513,0.144,0
-0.563,1.59,0.061,0
-0.622,1.462,0.243,0
-0.721,1.03,0.85,0
-0.941,0.402,1.457,1
-0.945,0.463,1.439,1
-0.858,-1.87,4.447,1
-0.864,-1.774,4.42,1
-1.425,-3.323,8.038,1
-1.45,-3.022,6.571,1
-1.198,-2.42,4.098,1
-0.435,-1.442,1.396,1
0.215,-0.871,0.221,1
0.614,-0.451,-0.723,1
0.671,-0.378,-1.004,1
0.736,-0.326,-1.031,1
0.936,-0.214,-1.049,1
1.275,-0.249,-0.75,1
1.332,-0.339,-0.698,1
1.342,-0.342,-0.697,1
1.325,-0.478,-1.278,1
1.326,-0.508,-1.687,1
1.268,-0.473,-1.992,1
1.109,-0.457,-2.111,1
0.944,-0.532,-2.034,1
0.652,-0.564,-1.867,0
0.372,-0.603,-1.752,0
0.073,-0.594,-1.78,0
-0.102,-0.574,-1.919,0
-0.201,-0.477,-1.983,0
-0.318,-0.445,-1.884,0
-0.561,-0.501,-1.855,0
-0.556,-0.452,-1.968,0
-0.397,-0.316,-1.911,0
-0.389,-0.235,-1.611,0
-0.244,-0.212,-1.437,0
-0.096,-0.087,-0.98,0
-0.082,-0.056,-0.761,0
-0.071,0.104,-0.811,0
0.126,0.217,-0.88,0
0.135,0.271,-0.675,0
0.131,0.266,-0.673,0
0.078,0.385,-0.376,0
-0.123,0.387,0.057,0
-0.375,0.33,0.521,0
-0.558,0.316,0.63,0
-0.69,0.291,0.299,0
-0.923,0.361,0.186,0
-0.969,0.316,0.395,0
-0.922,0.341,1.129,0
-0.902,0.312,1.647,0
-0.863,0.15,2.096,0
-0.656,0.157,2.529,0
-0.659,0.312,2.441,0
-0.643,0.646,1.823,1
-0.653,0.616,1.832,1
-0.527,0.81,0.607,1
-0.686,0.904,0.855,1
-1.092,0.875,0.946,1
-1.517,0.711,1.166,1
-1.577,0.507,1.441,1
-1.591,0.523,1.435,1
-0.714,0.058,2.07,1
-0.388,-0.545,2.958,1
-0.299,-0.978,3.484,1
-0.571,-1.22,3.526,1
-0.885,-1.252,2.654,1
-1.042,-1.016,0.692,1
-1.017,-0.707,-0.391,1
-1.237,-0.647,-1.359,1
-1.291,-0.533,-1.723,1
-1.338,-0.476,-1.554,1
-1.408,-0.593,-1.176,1
-1.261,-0.742,-0.54,1
-1.075,-0.88,0.079,1
-0.781,-1.037,0.624,0
-0.608,-1.087,0.824,0
-0.483,-1.154,0.781,0
-0.505,-1.146,0.779,0
-0.521,-1.116,-0.466,0
-0.512,-0.948,-1.316,0
-0.367,-0.736,-2.222,0
-0.352,-0.574,-2.595,0
-0.342,-0.577,-2.594,0
-0.278,-0.367,-2.481,0
-0.321,-0.303,-2.059,0
-0.486,-0.257,-2.029,0
-0.781,-0.225,-1.948,0
-0.953,-0.184,-1.862,0
-1.116,-0.093,-1.769,0
-1.185,-0.044,-1.62,0
-1.215,-0.074,-1.39,0
-1.041,0.037,-1.07,0
-0.638,0.241,-0.769,0
-0.55,0.251,-0.46,0
-0.516,0.173,-0.145,0
-0.482,0.1,-0.068,0
-0.501,0.112,0.181,0
-0.481,0.247,0.182,0
-0.491,0.301,0.086,0
-0.555,0.328,0.179,0
-0.615,0.241,0.576,0
-0.713,0.103,1.172,0
-0.577,0.092,2.014,0
-0.333,0.237,2.33,0
-0.505,0.27,1.873,0
-0.739,0.442,1.245,0
-0.522,0.688,0.625,0
-0.186,0.804,0.575,0
0.006,0.698,0.996,0
-0.116,0.515,1.55,1
-0.121,0.54,1.542,1
-0.964,0.028,2.497,1
-1.086,-0.027,2.373,1
-0.893,-0.191,2.101,1
-0.592,-0.507,2.446,1
-0.566,-0.881,3.157,1
-0.836,-1.39,3.616,1
-1.176,-1.517,3.443,1
-1.237,-1.533,2.98,1
-1.149,-1.372,1.913,1
-0.841,-1.081,0.604,1
-0.571,-0.898,-0.199,1
-0.368,-0.855,-0.62,1
-0.243,-0.782,-0.46,1
-0.085,-0.719,-0.148,1
0.091,-0.629,-0.374,1
0.182,-0.578,-0.474,1
0.164,-0.586,-0.409,1
0.147,-0.602,-0.456,1
0.098,-0.565,-0.807,1
-0.026,-0.554,-1.214,0
-0.208,-0.565,-1.358,0
-0.278,-0.514,-1.566,0
-0.316,-0.39,-1.788,0
-0.396,-0.285,-2.179,0
-0.351,-0.199,-2.236,0
-0.188,-0.079,-1.889,0
-0.276,-0.103,-1.344,0
-0.556,-0.135,-1.321,0
-0.753,-0.162,-1.54,0
-0.904,-0.145,-1.819,0
-0.965,-0.081,-2.021,0
-0.913,0.011,-1.939,0
-0.718,0.103,-1.76,0
-0.49,0.243,-1.68,0
-0.234,0.34,-1.5,0
-0.074,0.363,-1.068,0
-0.13,0.262,-0.483,0
-0.292,0.131,0.033,0
-0.414,0.158,0.076,0
-0.551,0.256,-0.111,0
-0.61,0.438,-0.364,0
-0.599,0.422,-0.36,0
-0.463,0.861,-0.989,0
-0.459,0.836,-0.982,0
-0.184,1.087,-1.102,0
-0.096,0.968,-0.251,0
-0.297,0.619,1.1,0
-0.739,0.127,2.653,0
-0.838,-0.054,3.452,0
-0.816,-0.062,4.088,0
-0.733,0.096,3.575,0
-0.619,0.376,2.496,0
-0.502,0.611,1.529,1
-0.567,0.844,0.92,1
-0.698,0.989,0.554,1
-0.908,1.149,0.463,1
-1.08,1.088,0.624,1
-1.027,0.767,0.983,1
-0.781,0.086,1.557,1
-0.564,-0.902,3.309,1
-0.7,-1.695,4.725,1
-0.628,-2.331,5.563,1
-0.874,-2.474,4.959,1
-1.096,-2.153,2.62,1
-0.983,-1.618,0.839,1
-0.685,-0.97,-1.264,1
-0.551,-0.526,-2.466,1
-0.547,-0.32,-2.788,1
-0.521,-0.257,-2.104,1
-0.516,-0.342,-1.189,1
-0.647,-0.511,-0.385,1
-0.763,-0.676,-0.129,1
-0.87,-0.779,-0.258,1
-0.721,-0.814,-0.577,0
-0.542,-0.713,-0.772,0
-0.347,-0.607,-0.883,0
-0.242,-0.462,-1.042,0
-0.294,-0.357,-1.379,0
-0.334,-0.215,-1.631,0
-0.402,-0.151,-1.824,0
-0.514,-0.202,-1.861,0
-0.715,-0.295,-1.613,0
-0.944,-0.396,-1.297,0
-1.134,-0.453,-1.088,0
-1.295,-0.43,-0.98,0
-1.301,-0.365,-1.08,0
-0.919,-0.064,-1.318,0
-0.908,-0.069,-1.317,0
0.032,0.704,-1.419,0
-0.178,0.566,-1.326,0
-0.509,0.305,-1.136,0
-0.516,0.298,-1.134,0
-0.642,-0.042,-0.419,0
-0.726,-0.14,0.001,0
-0.762,-0.188,0.078,0
-0.709,-0.009,-0.122,0
-0.511,0.199,-0.169,0
-0.508,0.182,-0.164,0
-0.177,0.822,-0.202,0
-0.188,0.799,-0.195,0
0.702,1.275,0.53,0
0.523,0.995,1.63,0
0.087,0.638,2.36,0
-0.177,0.347,3.19,0
-0.494,0.305,3.443,0
-0.677,0.529,2.382,0
-0.402,0.621,1.217,1
-0.383,0.603,1.221,1
0.053,0.477,1.461,1
0.343,0.639,1.729,1
0.348,0.664,1.707,1
0.173,0.688,1.536,1
0.208,0.784,1.085,1
0.403,0.622,0.698,1
0.27,0.152,0.785,1
-0.28,-0.629,1.487,1
-0.913,-1.289,2.413,1
-1.533,-1.819,2.748,1
-1.73,-1.996,2.318,1
-1.677,-1.936,1.208,1
-1.35,-1.744,0.296,1
-0.925,-1.486,-0.33,1
-0.847,-1.504,-0.542,1
-0.715,-1.43,-0.595,1
-0.649,-1.434,-0.92,1
-0.804,-1.51,-1.123,1
-0.881,-1.517,-0.906,1
-0.732,-1.404,-0.702,0
-0.6,-1.271,-0.692,0
-0.525,-1.075,-0.93,0
-0.499,-0.82,-1.409,0
-0.489,-0.817,-1.41,0
-0.232,-0.347,-1.852,0
-0.103,-0.094,-1.71,0
-0.044,0.024,-1.743,0
0.06,0.233,-1.673,0
0.046,0.284,-1.718,0
-0.108,0.24,-1.608,0
-0.238,0.115,-1.257,0
-0.402,0.053,-1.109,0
-0.398,0.063,-1.358,0
-0.298,0.133,-1.557,0
-0.104,0.231,-1.619,0
-0.101,0.227,-1.617,0
0.628,0.636,-1.607,0
0.512,0.501,-1.29,0
0.22,0.272,-0.906,0
0.238,0.281,-0.908,0
-0.178,-0.044,0.09,0
-0.256,-0.038,0.118,0
-0.34,0.033,-0.094,0
-0.41,0.112,-0.354,0
-0.341,0.32,-0.484,0
-0.201,0.442,-0.343,0
-0.197,0.523,0.057,0
-0.249,0.444,0.616,0
-0.239,0.368,0.968,0
-0.298,0.313,1.609,0
-0.281,0.277,1.76,0
-0.246,0.503,1.725,0
-0.157,0.706,1.482,0
-0.161,0.863,0.886,0
0.239,1.188,0.745,1
0.239,1.354,0.823,1
-0.07,1.079,0.965,1
-0.381,0.568,1.344,1
-0.213,0.201,2.163,1
0.014,-0.289,3.222,1
0.296,-0.905,4.634,1
0.274,-1.502,5.552,1
0.226,-1.733,5.209,1
0.205,-1.694,5.199,1
-0.091,-1.526,2.471,1
-0.353,-1.213,0.432,1
-0.502,-1.096,-0.625,1
-0.632,-0.877,-1.836,1
-0.756,-0.87,-1.995,1
-0.747,-0.761,-1.143,1
-0.616,-0.693,-0.087,1
-0.533,-0.748,0.105,1
-0.758,-0.939,0.199,1
-0.731,-1.073,0.065,1
-0.463,-1.05,-0.123,1
-0.123,-0.894,-0.561,0
0.054,-0.714,-1.011,0
-0.051,-0.668,-1.625,0
-0.207,-0.631,-2.112,0
-0.243,-0.584,-2.175,0
-0.186,-0.522,-2.066,0
-0.232,-0.521,-1.783,0
-0.374,-0.467,-1.528,0
-0.454,-0.363,-1.635,0
-0.514,-0.147,-1.739,0
-0.588,0.058,-1.769,0
-0.618,0.182,-1.742,0
-0.603,0.304,-1.687,0
-0.436,0.366,-1.745,0
-0.376,0.389,-1.317,0
-0.365,0.315,-0.919,0
-0.34,0.172,-0.556,0
-0.312,0.108,-0.24,0
-0.29,0.049,0.143,0
-0.334,0.023,0.303,0
-0.304,0.034,0.283,0
-0.278,0.088,0.187,0
-0.09,0.251,0.199,0
-0.01,0.445,0.535,0
0.05,0.488,0.601,0
0.02,0.471,0.89,0
0.016,0.457,1.409,0
0.038,0.43,1.457,0
-0.007,0.51,1.598,0
-0.158,0.549,1.562,0
-0.408,0.674,1.02,0
-0.46,0.655,0.448,0
-0.094,0.542,0.452,0
0.251,0.414,0.94,1
0.254,0.414,0.94,1
0.45,-0.02,2.697,1
0.074,-0.245,3.025,1
-0.207,-0.097,2.84,1
0.13,0.232,1.859,1
0.688,0.614,1.099,1
0.697,0.604,1.102,1
1.004,0.443,0.353,1
0.478,-0.224,1.128,1
0.091,-0.763,1.935,1
-0.141,-1.245,2.46,1
-0.252,-1.491,2.48,1
-0.147,-1.585,1.854,1
-0.002,-1.399,0.896,1
0.328,-1.093,-0.091,1
0.601,-0.835,-1.102,1
0.594,-0.757,-1.496,1
0.533,-0.792,-1.468,1
0.324,-1.022,-1.041,1
0.309,-1.076,-0.824,1
-0.015,-1.177,-0.472,0
-0.148,-1.225,-0.566,0
-0.107,-1.035,-0.724,0
0.076,-0.737,-1.501,0
0.314,-0.362,-2.332,0
0.672,-0.033,-2.884,0
1.105,0.435,-3.283,0
1.08,0.525,-3.036,0
0.771,0.494,-2.244,0
0.414,0.372,-1.714,0
0.426,0.371,-1.713,0
-0.306,0.15,-1.078,0
-0.303,0.235,-1.466,0
-0.104,0.382,-1.96,0
-0.108,0.351,-1.952,0
0.514,0.601,-1.746,0
0.899,0.782,-1.397,0
0.844,0.647,-0.976,0
0.768,0.512,-0.189,0
0.578,0.303,0.659,0
0.066,0.006,1.339,0
-0.26,-0.099,1.282,0
-0.322,-0.04,0.578,0
-0.325,0.176,0.114,0
-0.349,0.366,-0.249,0
-0.186,0.466,-0.328,0
-0.092,0.517,0.286,0
-0.12,0.416,0.774,0
-0.413,0.249,1.697,0
-0.654,0.159,2.146,0
-0.659,0.24,1.91,0
-0.383,0.33,1.553,0
-0.116,0.442,1.627,0
-0.042,0.6,1.713,1
-0.175,0.73,1.374,1
-0.318,0.975,1.007,1
-0.331,0.974,1.007,1
-0.481,0.475,1.477,1
-0.515,0.498,1.469,1
-0.631,-1.181,4.196,1
-0.813,-1.935,5.017,1
-0.772,-2.433,5.355,1
-0.961,-2.337,4.056,1
-1.078,-2.097,2.621,1
-1.021,-1.682,0.77,1
-1,-1.345,-0.775,1
-0.96,-0.991,-2.276,1
-1.103,-0.834,-2.652,1
-1.253,-0.83,-2.377,1
-1.217,-0.867,-1.86,1
-1.016,-0.86,-1.085,1
-0.854,-0.923,-0.67,1
-0.886,-0.896,-0.677,1
-0.414,-0.957,-0.148,1
0.029,-0.842,-0.262,0
0.197,-0.766,-0.452,0
0.194,-0.744,-0.458,0
-0.202,-0.816,-0.95,0
-0.345,-0.771,-1.424,0
-0.254,-0.645,-1.763,0
-0.208,-0.525,-1.893,0
-0.135,-0.401,-1.978,0
-0.185,-0.277,-1.927,0
-0.243,-0.205,-1.774,0
-0.289,-0.054,-1.93,0
-0.46,0.037,-1.844,0
-0.67,0.08,-1.762,0
-0.702,0.209,-1.978,0
-0.694,0.209,-1.978,0
-0.589,0.335,-1.461,0
-0.597,0.336,-1.461,0
-0.45,0.238,-0.384,0
-0.247,0.243,-0.045,0
0,0.234,0.109,0
-0.005,0.181,0.564,0
-0.137,0.089,0.63,0
-0.198,0.126,0.657,0
-0.248,0.224,0.694,0
-0.115,0.449,0.735,0
-0.03,0.509,0.822,0
0.101,0.513,1.125,0
0.469,0.594,1.649,0
0.783,0.71,2.013,0
0.698,0.762,1.898,0
0.291,0.953,1.32,0
-0.064,0.961,0.316,0
0.028,0.809,-0.117,0
0.1,0.554,0.516,1
-0.002,0.283,2.066,1
-0.207,0.166,2.8,1
-0.346,-0.021,3.036,1
-0.471,0.058,2.839,1
-0.345,0.191,1.925,1
0.17,0.18,1.211,1
0.518,0.037,1.217,1
0.333,-0.431,2.227,1
-0.22,-1.039,3.255,1
-0.53,-1.283,3.258,1
-0.749,-1.455,2.871,1
-0.671,-1.453,2.231,1
-0.534,-1.348,1.133,1
-0.169,-1.187,0.46,1
0.166,-1.053,0.298,1
0.453,-0.855,-0.151,1
0.423,-0.914,-0.849,1
0.464,-0.933,-1.322,1
0.455,-1.026,-1.434,1
0.319,-1.119,-1.104,1
0.086,-1.231,-0.793,0
-0.015,-1.278,-0.794,0
0.102,-1.107,-0.845,0
0.35,-0.89,-1.091,0
0.461,-0.572,-1.537,0
0.524,-0.326,-2.352,0
0.569,-0.004,-3.008,0
0.7,0.298,-3.287,0
0.78,0.559,-3.377,0
0.78,0.676,-3.223,0
0.545,0.638,-2.996,0
0.303,0.475,-2.556,0
0.174,0.245,-1.633,0
-0.022,0.032,-0.685,0
-0.013,0.006,-0.421,0
0.091,0.078,-0.579,0
0.252,0.145,-0.896,0
0.758,0.382,-1.043,0
0.77,0.374,-1.04,0
0.73,0.188,-0.525,0
0.379,-0.055,-0.254,0
0.191,-0.182,0.259,0
0.221,-0.172,0.257,0
-0.411,-0.249,0.864,0
-0.626,-0.161,0.337,0
-0.627,-0.031,-0.044,0
-0.541,0.099,0.118,0
-0.367,0.127,0.523,0
-0.079,0.194,1.238,0
0.026,0.204,1.765,0
0.171,0.422,1.748,0
0.432,0.724,1.484,0
0.601,0.861,1.084,0
0.605,0.834,0.793,1
0.59,0.815,0.798,1
0.231,0.833,1.009,1
0.207,0.827,1.01,1
-0.134,0.607,0.809,1
-0.157,0.386,1.548,1
-0.173,-0.113,2.684,1
-0.293,-0.793,3.841,1
-0.474,-1.472,4.634,1
-0.701,-1.957,4.71,1
-0.967,-2.086,3.845,1
-0.965,-1.804,2.098,1
-0.797,-1.448,0.805,1
-0.693,-1.081,-0.674,1
-0.674,-0.79,-1.649,1
-0.738,-0.686,-1.848,1
-0.944,-0.643,-1.937,1
-0.804,-0.765,-0.945,1
-0.622,-0.735,-0.401,1
-0.465,-0.892,-0.075,1
-0.39,-1.014,0.111,1
-0.105,-1.069,0.394,0
0.246,-0.996,0.514,0
0.498,-0.888,0.511,0
0.481,-0.877,0.508,0
0.553,-0.637,-0.38,0
0.389,-0.547,-1.012,0
0.275,-0.338,-1.83,0
0.284,-0.233,-2.349,0
0.136,-0.196,-2.525,0
0.043,-0.219,-2.504,0
-0.069,-0.222,-2.152,0
-0.153,-0.159,-1.765,0
-0.083,-0.042,-1.47,0
-0.129,0.071,-1.508,0
-0.28,0.108,-1.782,0
-0.396,0.102,-1.88,0
-0.373,0.149,-1.818,0
-0.361,0.171,-1.64,0
-0.395,0.118,-1.338,0
-0.279,0.1,-1.203,0
-0.149,0.001,-0.775,0
-0.176,-0.146,-0.203,0
-0.145,-0.304,0.496,0
-0.101,-0.237,0.985,0
-0.134,-0.147,0.994,0
-0.153,-0.083,0.812,0
0.03,0.075,0.432,0
0.242,0.184,0.355,0
0.501,0.411,0.772,0
0.617,0.477,1.129,0
0.463,0.446,1.324,0
0.193,0.222,1.208,0
-0.376,0.074,1.324,0
-0.606,0.136,1.357,0
-0.382,0.149,1.487,0
-0.025,0.137,1.541,1
0.24,0.224,1.848,1
0.164,0.34,2.08,1
0.069,0.475,1.974,1
-0.029,0.732,1.525,1
0.167,0.835,0.695,1
0.417,0.85,0.07,1
0.501,0.488,-0.101,1
0.493,0.505,-0.106,1
0.206,-0.578,1.391,1
0.033,-0.93,2.22,1
-0.066,-1.078,2.815,1
-0.044,-1.083,2.879,1
-0.005,-0.903,2.171,1
0.106,-0.632,1.195,1
0.209,-0.5,0.308,1
0.221,-0.443,-0.209,1
0.224,-0.429,-0.212,1
0.12,-0.701,-0.528,1
0.055,-0.886,-0.171,1
0.02,-0.962,-0.04,1
0.09,-0.944,-0.145,0
0.063,-0.923,-0.273,0
0.077,-0.785,-0.54,0
0.253,-0.554,-0.962,0
0.368,-0.273,-1.332,0
0.445,-0.013,-1.727,0
0.526,0.263,-2.257,0
0.504,0.415,-2.582,0
0.558,0.643,-2.607,0
0.483,0.604,-2.317,0
0.381,0.527,-1.956,0
0.316,0.394,-1.474,0
0.239,0.269,-0.935,0
0.178,0.104,-0.231,0
0.184,0.022,0.019,0
0.218,-0.007,-0.175,0
0.366,0.084,-0.477,0
0.475,0.149,-0.676,0
0.751,0.253,-0.699,0
0.883,0.296,-0.58,0
0.734,0.251,-0.414,0
0.504,0.176,-0.425,0
0.099,0.105,-0.228,0
-0.112,0.067,0.056,0
-0.311,0.075,0.432,0
-0.27,0.104,0.4,0
-0.41,0.073,0.69,0
-0.511,-0.109,1.03,0
-0.257,-0.157,1.335,0
0.024,-0.014,1.722,0
0.197,0.216,1.993,0
0.356,0.248,2.064,0
0.352,0.216,2.073,0
0.16,0.244,1.37,0
-0.029,0.481,1.161,0
-0.128,0.652,1.011,1
-0.15,0.622,1.02,1
-0.348,0.876,-0.039,1
-0.018,0.697,-0.352,1
0.06,0.124,0.764,1
0.194,-0.863,2.961,1
0.154,-0.805,2.943,1
-0.139,-2.056,5.555,1
-0.39,-2.031,4.684,1
-0.322,-1.549,2.158,1
-0.17,-1.033,0.711,1
-0.235,-0.672,-0.562,1
-0.433,-0.433,-1.477,1
-0.729,-0.361,-1.62,1
-0.971,-0.459,-1.497,1
-1.03,-0.591,-1.221,1
-0.974,-0.755,-0.785,1
-0.864,-0.93,-0.345,1
-0.722,-1.078,0.079,1
-0.477,-1.098,0.185,1
-0.249,-0.953,-0.205,1
-0.266,-0.941,-0.208,0
0.133,-0.579,-1.593,0
0.132,-0.438,-2.145,0
0.101,-0.368,-2.484,0
-0.02,-0.313,-2.479,0
-0.187,-0.341,-2.187,0
-0.368,-0.402,-1.556,0
-0.532,-0.461,-1.011,0
-0.619,-0.393,-0.794,0
-0.599,-0.24,-1.181,0
-0.482,0.003,-1.772,0
-0.386,0.18,-1.993,0
-0.313,0.346,-2.074,0
-0.091,0.561,-1.871,0
-0.029,0.682,-1.624,0
-0.022,0.679,-1.624,0
-0.533,0.324,-1.39,0
-0.535,0.166,-0.91,0
-0.528,0.169,-0.911,0
-0.549,-0.178,0.384,0
-0.551,-0.264,0.884,0
-0.438,-0.217,1.021,0
-0.352,-0.023,0.781,0
-0.341,0.054,0.442,0
-0.207,0.131,0.484,0
0.012,0.161,0.776,0
-0.033,0.193,1.215,0
-0.195,0.209,1.368,0
-0.526,0.529,1.1,0
-0.725,0.738,0.548,0
-0.707,0.712,0.556,0
-0.373,0.91,0.544,0
-0.294,0.779,1.908,0
-0.451,0.607,2.865,0
-0.579,0.439,3.288,1
-0.63,0.496,3.191,1
-0.628,0.498,3.191,1
0.02,0.542,2.282,1
0.031,0.558,2.277,1
-0.107,-0.683,3.032,1
-0.456,-1.332,3.504,1
-0.589,-1.493,3.44,1
-0.757,-1.563,2.883,1
-0.781,-1.472,1.866,1
-0.711,-1.316,0.679,1
-0.562,-1.197,0.506,1
-0.616,-1.189,0.562,1
-0.496,-1.102,0.302,1
-0.264,-0.93,-0.273,1
-0.136,-0.842,-0.664,1
-0.033,-0.804,-1.006,1
0.029,-0.791,-1.083,1
0.033,-0.785,-1.085,1
0.229,-0.644,-1.467,1
0.303,-0.612,-1.672,1
0.439,-0.385,-1.72,0
0.663,-0.146,-1.891,0
0.615,-0.041,-2.106,0
0.467,0.015,-2.513,0
0.274,0,-2.572,0
0.158,0.02,-2.493,0
0.056,0.054,-2.281,0
-0.093,0.041,-2.175,0
-0.203,0.063,-2.078,0
-0.281,-0.008,-1.725,0
-0.472,-0.194,-1.312,0
-0.585,-0.362,-1.018,0
-0.528,-0.415,-0.911,0
-0.308,-0.39,-0.975,0
-0.114,-0.297,-0.921,0
-0.018,-0.389,-0.824,0
0,-0.436,-0.31,0
-0.039,-0.573,0.214,0
-0.125,-0.583,0.658,0
-0.237,-0.582,0.971,0
-0.334,-0.499,0.66,0
-0.472,-0.367,0.539,0
-0.487,-0.265,0.587,0
-0.345,-0.166,0.379,0
-0.18,-0.011,0.474,0
-0.114,0.033,0.855,0
0.128,0.212,1.291,0
0.2,0.526,1.016,0
0.175,0.678,0.659,0
-0.061,0.785,0.715,0
-0.385,0.8,0.749,0
-0.775,0.943,0.833,0
-0.977,1.01,0.971,0
-0.985,1.017,0.968,1
-1.008,0.747,1.687,1
-0.773,0.069,3.058,1
-0.673,-0.829,4.631,1
-0.704,-1.745,6.52,1
-0.884,-2.111,6.822,1
-1.584,-2.26,5.04,1
-1.925,-1.943,2.585,1
-1.917,-1.282,0.098,1
-1.791,-0.882,-1.761,1
-1.513,-0.3,-3.236,1
-1.339,-0.133,-3.418,1
-1.23,-0.063,-2.68,1
-1.307,-0.146,-1.861,1
-1.589,-0.485,-1.253,1
-1.659,-0.653,-0.973,1
-1.575,-0.879,-0.4,1
-1.355,-1.032,-0.095,1
-1.048,-1.085,-0.097,1
-0.942,-1.053,-0.212,1
-0.871,-0.975,-0.346,1
-0.838,-0.839,-0.753,0
-0.844,-0.824,-0.757,0
-0.704,-0.432,-1.87,0
-0.777,-0.39,-2.072,0
-0.943,-0.393,-2.03,0
-1.121,-0.391,-1.656,0
-1.168,-0.338,-1.248,0
-1.119,-0.134,-1.114,0
-1.128,-0.001,-1.265,0
-1.017,0.178,-1.673,0
-0.93,0.317,-1.821,0
-0.934,0.309,-1.819,0
-0.893,0.374,-1.672,0
-0.965,0.333,-1.654,0
-0.976,0.264,-1.67,0
-1.033,0.144,-1.177,0
-1.036,0.051,-0.65,0
-0.962,0.041,-0.217,0
-0.91,0.06,0.42,0
-0.985,0.167,0.757,0
-0.871,0.314,0.574,0
-0.705,0.473,0.517,0
-0.678,0.484,0.784,0
-0.537,0.427,1.219,0
-0.331,0.431,1.706,0
-0.459,0.201,2.208,0
-0.65,0.196,2.236,0
-0.838,0.569,1.475,0
-0.754,0.8,0.576,0
-0.445,0.935,0.249,0
-0.173,1.027,0.607,0
-0.179,1.015,0.611,1
-0.383,0.842,2.121,1
-0.892,0.669,2.413,1
-1.072,0.655,2.053,1
-0.828,0.406,1.575,1
-0.447,-0.167,1.92,1
-0.489,-1.154,3.648,1
-0.914,-1.651,4.567,1
-1.123,-1.857,5.117,1
-0.903,-1.527,4.619,1
-0.467,-0.875,2.594,1
0.006,-0.634,1.649,1
0.268,-0.29,0.531,1
0.043,-0.45,0.077,1
-0.078,-0.596,-0.299,1
-0.207,-0.631,-0.452,1
-0.355,-0.792,-0.71,1
-0.368,-0.843,-0.934,1
-0.388,-0.882,-1.296,1
-0.383,-0.823,-1.643,1
-0.217,-0.608,-2.213,1
-0.08,-0.34,-2.516,0
-0.126,-0.287,-2.433,0
-0.259,-0.219,-2.4,0
-0.377,-0.218,-2.419,0
-0.556,-0.271,-2.174,0
-0.687,-0.358,-1.923,0
-0.754,-0.335,-1.834,0
-0.769,-0.303,-1.879,0
-0.658,-0.143,-1.958,0
-0.384,0.114,-2.299,0
-0.265,0.241,-2.429,0
-0.277,0.198,-2.093,0
-0.328,0.103,-1.701,0
-0.331,0.062,-1.316,0
-0.292,-0.045,-1.041,0
-0.364,-0.175,-0.605,0
-0.299,-0.211,-0.398,0
-0.2,-0.275,-0.411,0
-0.152,-0.247,-0.306,0
-0.103,-0.243,-0.424,0
-0.274,-0.185,-0.312,0
-0.586,-0.219,0.017,0
-0.761,-0.137,0.221,0
-0.897,-0.141,0.504,0
-0.938,-0.086,0.779,0
-0.8,-0.016,1.006,0
-0.662,-0.072,1.474,0
-0.497,-0.044,2.051,0
-0.425,0.04,1.963,0
-0.445,0.231,1.906,0
-0.557,0.379,1.685,0
-0.861,0.711,1.157,0
-1.062,0.921,1.007,0
-1.06,0.892,1.015,1
-1.441,1.049,1.257,1
-1.451,0.917,1.072,1
-1.171,0.682,0.963,1
-0.666,0.006,2.056,1
-0.646,-0.732,4.078,1
-0.651,-1.694,5.853,1
-0.876,-1.962,6.241,1
-1.131,-1.888,4.823,1
-1.454,-1.574,2.615,1
-1.418,-1.114,0.443,1
-1.392,-0.821,-0.87,1
-1.584,-0.698,-1.806,1
-1.587,-0.722,-1.433,1
-1.502,-0.8,-0.426,1
-1.177,-0.809,0.085,1
-0.933,-0.995,0.378,1
-0.757,-1.101,0.284,1
-0.512,-1.18,0.063,1
-0.297,-1.204,-0.14,1
-0.305,-1.178,-0.146,1
-0.089,-0.986,-1.152,0
-0.204,-0.952,-1.812,0
-0.36,-0.886,-2.213,0
-0.419,-0.863,-2.303,0
-0.461,-0.803,-2.476,0
-0.525,-0.694,-2.609,0
-0.603,-0.645,-2.411,0
-0.692,-0.406,-2.226,0
-0.645,-0.216,-2.282,0
-0.641,0.076,-2.3,0
-0.722,0.259,-2.268,0
-0.936,0.307,-1.951,0
-0.99,0.24,-1.786,0
-0.948,0.239,-1.517,0
-0.84,0.251,-1.274,0
-0.824,0.233,-1.012,0
-0.783,0.191,-1.054,0
-0.743,0.18,-0.864,0
-0.75,0.155,-0.548,0
-0.846,0.128,0.074,0
-0.957,0.15,0.563,0
-0.872,0.288,0.89,0
-0.785,0.375,0.895,0
-0.685,0.328,0.882,0
-0.69,0.193,1.079,0
-0.596,0.09,1.363,0
-0.463,0.055,1.614,0
-0.62,0.197,2.059,0
-1.047,0.537,1.847,0
-1.263,0.834,0.773,0
-1.139,1.006,0.214,0
-0.986,1.295,0.515,0
-1.186,1.176,0.969,0
-1.179,1.179,0.968,1
-2.288,0.511,2.336,1
-2.248,0.128,2.489,1
-1.507,-0.395,2.915,1
-0.801,-1.142,4.182,1
-0.724,-1.921,6.117,1
-0.974,-2.307,7.261,1
-1.024,-2.194,6.603,1
-0.876,-1.616,4.35,1
-0.641,-1.126,2.223,1
-0.328,-0.548,0.359,1
-0.266,-0.249,-0.327,1
-0.423,-0.084,-1.124,1
-0.41,0.047,-1.784,1
-0.221,0.151,-2.121,1
-0.081,0.12,-1.891,1
-0.059,-0.186,-1.249,1
-0.141,-0.429,-0.968,1
-0.148,-0.512,-0.966,1
-0.208,-0.627,-0.994,1
-0.458,-0.73,-0.913,1
-0.686,-0.786,-0.946,0
-0.678,-0.798,-0.943,0
-0.918,-0.696,-1.719,0
-0.743,-0.523,-1.963,0
-0.622,-0.341,-2.094,0
-0.555,-0.253,-2.351,0
-0.492,-0.172,-2.566,0
-0.541,-0.168,-2.528,0
-0.564,-0.227,-2.457,0
-0.594,-0.357,-1.968,0
-0.657,-0.45,-1.678,0
-0.73,-0.527,-1.629,0
-0.714,-0.571,-1.574,0
-0.585,-0.56,-1.4,0
-0.3,-0.46,-1.502,0
-0.013,-0.298,-1.477,0
0.323,-0.133,-1.369,0
0.316,0.048,-0.913,0
0.561,0.116,-0.721,0
0.431,0.476,-0.799,0
0.247,0.136,-0.752,0
-0.006,0.458,-0.683,0
-0.092,0.372,-0.805,0
-0.226,0.439,-0.971,0
-0.175,0.442,-0.938,0
-0.084,0.411,-0.311,0
-0.088,0.264,0.347,0
-0.097,-0.03,1.216,0
-0.069,-0.191,2.203,0
-0.317,-0.276,3.032,0
-0.542,-0.153,2.921,0
-0.542,-0.188,2.932,0
-0.976,0.592,0.881,1
-1.43,0.961,0.441,1
-1.631,1.165,0.061,1
-1.779,1.33,-0.342,1
-1.93,1.244,-0.327,1
-1.956,1.239,-0.326,1
-0.472,0.246,1.383,1
-0.072,-0.844,4.256,1
-0.228,-1.52,6.398,1
-0.799,-2.139,7.534,1
-1.269,-2.213,6.228,1
-1.449,-1.778,3.359,1
-1.302,-1.539,1.971,1
-1.203,-1.314,0.854,1
-1.158,-1.242,0.743,1
-1.124,-1.383,1.209,1
-1.105,-1.4,1.511,1
-0.947,-1.55,1.577,1
-0.798,-1.559,1.219,1
-0.439,-1.446,0.309,1
-0.172,-1.242,-0.396,1
-0.031,-1.125,-1.103,0
-0.061,-1.023,-1.572,0
-0.1,-0.878,-2.212,0
-0.087,-0.678,-2.877,0
-0.062,-0.657,-2.883,0
-0.186,-0.533,-2.815,0
-0.34,-0.525,-2.467,0
-0.364,-0.357,-2.398,0
-0.341,-0.092,-2.594,0
-0.338,0.079,-2.634,0
-0.348,0.275,-2.312,0
-0.469,0.395,-2.014,0
-0.634,0.427,-1.836,0
-0.726,0.441,-1.712,0
-0.834,0.416,-1.523,0
-0.89,0.382,-1.302,0
-0.875,0.372,-1.167,0
-0.802,0.353,-0.932,0
-0.551,0.402,-0.771,0
-0.402,0.49,-0.379,0
-0.315,0.413,0.023,0
-0.483,0.299,0.524,0
-0.401,0.288,0.936,0
-0.368,0.352,0.934,0
-0.495,0.264,1.072,0
-0.557,0.151,0.972,0
-0.431,0.197,0.917,0
-0.428,0.061,1.118,0
-0.259,0.016,1.226,0
-0.024,0.173,1.092,0
-0.021,0.13,1.103,0
-0.098,0.626,0.742,0
-0.281,1.218,0.042,0
-0.46,0.897,0.241,0
-0.686,0.648,1.357,0
-0.791,0.5,2.268,0
-0.516,0.427,2.706,1
-0.633,0.83,2.632,1
-0.833,1.527,1.074,1
-0.69,1.76,0.12,1
-0.7,1.296,-0.801,1
-0.802,0.601,-0.404,1
-0.876,-0.729,2.25,1
-1.257,-1.632,5.058,1
-1.776,-2.62,7.385,1
-1.928,-2.827,7.212,1
-1.809,-2.619,4.909,1
-1.154,-1.99,2.615,1
-0.373,-1.256,0.898,1
-0.108,-0.893,-0.277,1
-0.272,-0.765,-0.972,1
-0.549,-0.749,-1.334,1
-0.601,-0.647,-1.557,1
-0.561,-0.534,-1.548,1
-0.477,-0.388,-1.57,1
-0.477,-0.251,-1.653,1
-0.381,-0.042,-1.749,1
-0.223,0.2,-1.869,0
-0.069,0.461,-2.057,0
0.138,0.701,-2.225,0
0.188,0.84,-2.288,0
-0.004,0.686,-2.248,0
-0.266,0.453,-1.991,0
-0.42,0.292,-1.773,0
-0.615,0.1,-1.576,0
-0.768,-0.11,-1.533,0
-0.786,-0.218,-1.587,0
-0.638,-0.167,-1.561,0
-0.433,-0.141,-1.764,0
-0.219,-0.076,-1.835,0
-0.275,-0.188,-1.39,0
-0.379,-0.296,-1.176,0
-0.419,-0.257,-1.103,0
-0.513,-0.226,-1.181,0
-0.499,-0.243,-1.177,0
-0.792,-0.153,-1.098,0
-0.629,0.086,-1.194,0
-0.387,0.251,-1.524,0
-0.247,0.288,-1.273,0
-0.369,0.136,-0.701,0
-0.421,-0.096,0.091,0
-0.427,-0.271,0.652,0
-0.192,-0.36,1.348,0
0.189,-0.448,2.073,0
0.117,-0.222,2.374,0
-0.097,0.12,1.654,0
-0.283,0.595,0.564,0
-0.56,0.935,0.131,0
-0.655,1.631,0.262,0
-0.955,1.964,0.071,0
-1.266,1.883,0.311,0
-1.629,1.573,1.016,1
-1.365,0.691,1.886,1
-0.731,-0.31,3.384,1
-0.522,-1.368,6.24,1
-0.684,-1.845,8.05,1
-0.921,-1.776,7.795,1
-1.416,-1.541,5.475,1
-1.547,-1.091,2.409,1
-1.344,-0.724,1.395,1
-0.859,-0.393,0.671,1
-0.72,-0.34,0.557,1
-0.741,-0.677,0.508,1
-0.631,-0.924,0.223,1
-0.592,-1.282,0.468,1
-0.608,-1.639,0.995,1
-0.694,-1.853,0.902,1
-0.607,-1.752,0.442,1
-0.491,-1.494,-0.724,1
-0.517,-1.306,-1.374,1
-0.666,-1.138,-2.437,1
-0.727,-0.965,-3.251,1
-0.824,-0.858,-3.497,0
-0.792,-0.852,-3.5,0
-0.669,-0.428,-3.471,0
-0.706,-0.271,-3.048,0
-0.807,0.009,-2.735,0
-0.978,0.098,-2.75,0
-1.192,0.322,-2.674,0
-1.266,0.446,-2.641,0
-1.142,0.561,-2.666,0
-0.896,0.732,-2.602,0
-0.672,0.813,-2.227,0
-0.68,0.667,-1.47,0
-0.827,0.438,-1.049,0
-0.881,0.251,0.216,0
-0.768,0.058,1.386,0
-0.626,0.145,1.26,0
-0.553,0.277,0.652,0
-0.556,0.374,0.487,0
-0.566,0.355,0.492,0
-0.518,0.403,1.432,0
-0.039,0.451,1.562,0
0.208,0.554,1.789,0
0.086,0.343,2.533,0
-0.086,0.18,2.76,0
-0.208,0.144,2.474,0
-0.486,0.335,1.871,0
-0.681,0.809,1.241,0
-0.246,1.152,0.528,0
0.346,1.366,0.472,0
0.69,1.638,1.13,0
0.497,1.488,1.843,1
0.176,1.176,1.831,1
0.173,1.164,1.835,1
-0.646,0.588,1.594,1
-0.575,0.296,1.481,1
-0.58,-0.068,1.675,1
-0.635,-0.538,2.287,1
-0.68,-0.809,2.813,1
-0.891,-1.184,3.378,1
-1.133,-1.439,3.677,1
-1.346,-1.686,3.049,1
-1.333,-1.687,2.18,1
-1.089,-1.467,1.016,1
-0.761,-1.284,0.202,1
-0.635,-1.135,-0.583,1
-0.52,-0.995,-1.251,1
-0.348,-0.856,-1.825,1
-0.196,-0.765,-1.889,1
-0.274,-0.768,-1.664,1
-0.439,-0.825,-1.528,1
-0.53,-0.815,-1.242,1
-0.586,-0.833,-0.897,0
-0.672,-0.761,-0.717,0
-0.677,-0.593,-0.952,0
-0.632,-0.36,-1.592,0
-0.543,-0.177,-2.125,0
-0.481,0.05,-2.353,0
-0.485,0.037,-2.31,0
-0.554,0.071,-2.412,0
-0.571,0.09,-2.314,0
-0.437,0.015,-1.948,0
-0.401,-0.037,-1.427,0
-0.422,-0.081,-1.145,0
-0.473,-0.1,-1.028,0
-0.568,-0.137,-1.037,0
-0.584,-0.108,-1.086,0
-0.462,-0.042,-1.171,0
-0.409,0.036,-1.067,0
-0.283,0.121,-0.76,0
-0.317,0.119,-0.529,0
-0.535,0.004,-0.258,0
-0.672,-0.004,-0.103,0
-0.72,0.075,0.002,0
-0.672,0.128,0.247,0
-0.625,0.112,0.74,0
-0.503,0.097,1.122,0
-0.217,0.19,1.29,0
0.077,0.264,1.207,0
0.246,0.315,1.304,0
0.308,0.352,1.47,0
0.409,0.487,1.674,0
0.344,0.679,1.553,0
0.35,0.706,1.501,0
0.325,0.702,1.352,0
0,0.822,1.106,1
-0.327,0.891,0.965,1
-0.312,0.89,0.965,1
-0.313,0.821,0.731,1
-0.195,0.528,1.26,1
-0.002,0.138,1.904,1
0.021,-0.437,2.922,1
-0.23,-0.857,3.22,1
-0.776,-1.09,2.97,1
-1.142,-1.177,2.138,1
-1.425,-1.039,0.69,1
-1.433,-0.848,0.095,1
-1.48,-0.675,-0.194,1
-1.434,-0.535,-0.427,1
-1.307,-0.413,-0.343,1
-1.28,-0.451,-0.22,1
-1.196,-0.577,-0.151,1
-1.019,-0.779,-0.091,1
-0.864,-0.981,0.308,1
-0.781,-1.057,0.452,1
-0.716,-1.185,0.406,1
-0.565,-1.071,0.157,0
-0.384,-0.8,-0.657,0
-0.307,-0.553,-1.51,0
-0.278,-0.322,-2.279,0
-0.32,-0.228,-2.506,0
-0.496,-0.183,-2.564,0
-0.643,-0.205,-2.391,0
-0.692,-0.197,-1.963,0
-0.841,-0.153,-1.673,0
-0.984,-0.131,-1.686,0
-1.105,-0.044,-1.648,0
-1.106,-0.044,-1.648,0
-0.86,0.29,-1.722,0
-0.753,0.406,-1.714,0
-0.66,0.418,-1.555,0
-0.675,0.415,-1.554,0
-0.487,0.345,-1.026,0
-0.491,0.215,-0.506,0
-0.411,0.096,0.092,0
-0.447,-0.026,0.799,0
-0.566,-0.062,1.14,0
-0.662,-0.016,1.182,0
-0.728,0.055,0.949,0
-0.59,0.276,0.624,0
-0.403,0.43,0.596,0
-0.24,0.431,0.899,0
-0.181,0.437,1.283,0
0.205,0.707,1.702,0
0.173,1.02,1.466,0
0.179,0.997,1.472,0
-0.504,1.242,0.376,0
-0.704,1.086,0.288,0
-0.877,0.978,0.25,0
-1.242,0.752,0.355,0
-1.551,0.476,0.671,0
-1.296,-0.034,1.257,1
-0.941,-0.609,2.372,1
-0.93,-0.523,2.35,1
-1.252,-2.091,5.789,1
-1.762,-2.274,6.335,1
-1.869,-2.058,5.318,1
-1.281,-1.594,3.486,1
-0.556,-1.081,2.303,1
0.094,-0.61,1.214,1
0.303,-0.499,0.534,1
0.243,-0.528,0.251,1
0.221,-0.595,0.275,1
0.533,-0.505,0.23,1
0.804,-0.36,-0.083,1
0.899,-0.307,-0.364,1
0.894,-0.347,-0.438,1
0.74,-0.37,-0.505,1
0.645,-0.354,-0.801,1
0.459,-0.253,-1.35,1
0.336,-0.135,-1.84,1
-0.017,-0.161,-2.222,1
-0.332,-0.228,-2.173,0
-0.563,-0.373,-1.955,0
-0.701,-0.419,-1.778,0
-0.762,-0.419,-1.647,0
-0.671,-0.299,-1.697,0
-0.432,-0.127,-1.958,0
-0.366,-0.086,-2.084,0
-0.428,-0.146,-2.012,0
-0.558,-0.286,-1.736,0
-0.718,-0.409,-1.475,0
-0.68,-0.452,-1.483,0
-0.538,-0.294,-1.531,0
-0.288,-0.099,-1.386,0
-0.238,-0.033,-1.182,0
-0.378,-0.069,-0.98,0
-0.53,-0.147,-0.812,0
-0.537,-0.134,-0.619,0
-0.492,-0.034,-0.487,0
-0.434,0.081,-0.386,0
-0.278,0.212,-0.458,0
-0.09,0.31,-0.276,0
-0.1,0.281,-0.269,0
-0.111,0.262,0.856,0
-0.129,0.26,1.014,0
-0.079,0.296,1.278,0
0.118,0.319,1.622,0
0.168,0.447,1.747,0
0.051,0.608,1.683,0
0.148,0.731,1.566,0
0.132,0.928,0.781,0
-0.053,0.855,0.555,0
-0.433,0.933,0.377,0
-0.738,1.034,0.442,0
-0.924,1.187,-0.176,1
-1.032,1.179,-0.869,1
-0.966,0.77,-0.469,1
-0.803,-0.11,1.764,1
-0.728,-1.161,4.097,1
-0.656,-1.953,5.737,1
-0.781,-2.518,5.555,1
-0.862,-2.472,4.03,1
-0.896,-1.97,1.478,1
-0.605,-1.363,0.094,1
-0.435,-0.821,-1.124,1
-0.668,-0.539,-1.883,1
-1.093,-0.51,-2.099,1
-1.312,-0.439,-1.499,1
-1.321,-0.373,-0.7,1
-1.311,-0.346,-0.394,1
-1.244,-0.332,-0.623,1
-0.996,-0.288,-0.813,1
-0.471,-0.197,-0.764,1
-0.512,-0.186,-0.766,1
-0.231,-0.186,-0.443,1
-0.075,-0.401,-0.275,0
-0.064,-0.367,-0.47,0
-0.106,-0.293,-0.572,0
-0.341,-0.284,-0.799,0
-0.411,-0.227,-1.066,0
-0.468,-0.154,-1.044,0
-0.482,-0.044,-1.128,0
-0.594,0.091,-1.339,0
-0.709,0.13,-1.644,0
-0.456,0.438,-2.126,0
-0.143,0.739,-1.932,0
-0.16,0.718,-1.532,0
-0.404,0.569,-1.315,0
-0.419,0.555,-1.311,0
-0.47,0.422,-1.102,0
-0.446,0.194,-0.326,0
-0.464,0.073,-0.049,0
-0.41,-0.084,0.116,0
-0.383,-0.115,0.561,0
-0.35,-0.05,0.573,0
-0.258,0.137,0.372,0
-0.384,0.27,0.256,0
-0.569,0.337,0.407,0
-0.353,0.537,0.467,0
-0.113,0.585,0.455,0
0.057,0.76,0.835,0
0.092,0.793,1.038,0
-0.054,0.71,1.212,0
-0.314,0.628,1.388,0
-0.711,0.695,1.455,0
-0.657,0.565,1.187,0
-0.189,0.433,1.131,0
0.062,0.285,1.524,0
0.119,0.255,1.768,1
-0.006,0.229,1.708,1
-0.185,0.424,1.337,1
-0.309,0.693,0.762,1
-0.166,0.74,-0.012,1
-0.113,0.534,-0.464,1
-0.117,0.024,0.538,1
-0.486,-0.587,1.965,1
-1.002,-1.152,3.316,1
-1.206,-1.478,3.765,1
-1.272,-1.455,3.05,1
-0.994,-1.218,2.167,1
-0.379,-0.839,1.325,1
-0.148,-0.517,0.598,1
-0.138,-0.407,-0.078,1
-0.139,-0.255,-0.641,1
-0.09,-0.348,-1.112,1
-0.148,-0.437,-1.093,1
-0.099,-0.603,-0.694,1
-0.3,-0.843,-0.213,1
-0.498,-1.007,-0.034,1
-0.271,-0.887,-0.577,0
-0.26,-0.891,-0.576,0
0.323,-0.207,-1.469,0
0.306,0.041,-2.127,0
0.286,0.228,-2.485,0
0.202,0.348,-2.79,0
0.126,0.392,-2.96,0
-0.027,0.283,-2.652,0
-0.169,0.082,-2.029,0
-0.159,0.081,-2.029,0
-0.549,-0.392,-0.202,0
-0.437,-0.3,-0.065,0
-0.207,-0.104,-0.578,0
-0.049,0.149,-1.02,0
-0.09,0.196,-1.214,0
-0.033,0.259,-1.462,0
0.388,0.462,-1.632,0
0.732,0.6,-1.707,0
0.397,0.375,-1.361,0
-0.064,0.054,-1.06,0
-0.314,-0.106,-0.396,0
-0.406,-0.073,0.198,0
-0.408,0.036,0.441,0
-0.538,0.093,0.489,0
-0.613,0.175,0.228,0
-0.522,0.276,0.139,0
-0.353,0.284,0.453,0
-0.203,0.192,1.123,0
-0.138,0,1.718,0
-0.131,0.02,1.889,0
-0.016,0.232,2.44,0
0.219,0.455,2.14,0
0.433,0.695,1.351,0
0.429,0.661,1.362,0
-0.08,1.014,0.908,1
-0.077,0.998,0.913,1
-0.686,1.098,0.845,1
-0.29,1.047,0.768,1
-0.296,1.064,0.763,1
0.228,0.711,1.481,1
0.415,-0.801,4.411,1
0.228,-1.221,4.504,1
-0.073,-1.222,3.194,1
-0.511,-1.026,0.628,1
-0.765,-0.938,-0.917,1
-0.992,-0.921,-2.081,1
-1.017,-0.94,-2.1,1
-0.872,-0.866,-1.328,1
-0.676,-0.802,-0.915,1
-0.321,-0.867,0.533,1
-0.729,-1.248,1.371,1
-0.707,-1.27,1.433,1
-0.838,-1.352,0.611,1
-0.83,-1.301,-0.32,1
-0.433,-1.043,-0.734,1
-0.026,-0.731,-1.277,0
0.136,-0.572,-1.681,0
0.143,-0.382,-2.022,0
0.138,-0.337,-2.268,0
0.003,-0.335,-2.203,0
-0.222,-0.392,-1.928,0
-0.38,-0.338,-1.895,0
-0.384,-0.278,-1.933,0
-0.437,-0.143,-1.85,0
-0.372,0.068,-2.053,0
-0.315,0.271,-2.104,0
-0.308,0.366,-1.834,0
-0.315,0.363,-1.834,0
-0.202,0.38,-0.961,0
-0.22,0.324,-0.711,0
-0.148,0.284,-0.839,0
-0.184,0.147,-0.448,0
-0.185,0.07,0.19,0
-0.176,-0.092,0.589,0
-0.211,-0.218,0.919,0
-0.255,-0.145,1.225,0
-0.203,-0.129,1.504,0
-0.146,-0.085,1.679,0
-0.052,-0.038,1.772,0
-0.053,-0.062,1.778,0
0.197,0.082,1.351,0
0.504,0.235,1.056,0
0.574,0.32,1.236,0
0.579,0.291,1.244,0
0.114,0.594,0.818,0
0.527,0.537,0.798,0
0.77,0.491,0.974,0
0.607,0.339,1.565,1
0.244,0.189,1.919,1
-0.04,0.173,1.799,1
0.073,0.552,1.402,1
0.466,0.89,0.901,1
0.78,1.048,0.141,1
0.838,0.795,-0.481,1
0.629,0.159,0.314,1
0.019,-0.835,2.325,1
-0.441,-1.385,3.352,1
-0.88,-1.884,3.839,1
-0.943,-1.902,3.198,1
-0.44,-1.514,1.67,1
0.336,-0.884,0.434,1
0.836,-0.476,-0.538,1
0.8,-0.48,-1.027,1
0.487,-0.662,-0.565,1
0.324,-0.837,-0.021,1
0.535,-0.751,0.446,1
0.131,-1.053,0.683,1
-0.26,-1.294,0.797,1
-0.321,-1.181,0.127,0
-0.023,-0.825,-0.808,0
0.313,-0.338,-1.694,0
0.576,0.085,-2.648,0
0.701,0.291,-3.328,0
0.702,0.27,-3.323,0
0.82,0.603,-3.439,0
0.384,0.372,-2.605,0
-0.065,0.037,-1.897,0
-0.494,-0.304,-1.17,0
-0.644,-0.397,-0.896,0
-0.561,-0.298,-0.907,0
-0.38,-0.101,-1.113,0
-0.199,0.1,-1.503,0
-0.028,0.302,-1.799,0
0.216,0.433,-2.097,0
0.306,0.464,-1.952,0
0.312,0.467,-1.953,0
0.352,0.136,-0.957,0
0.135,-0.16,0.055,0
-0.057,-0.416,0.943,0
-0.076,-0.351,0.814,0
0.15,-0.122,0.278,0
0.301,0.226,-0.077,0
0.309,0.379,-0.331,0
0.559,0.645,-0.323,0
0.527,0.679,0.232,0
0.691,0.667,1.174,0
0.723,0.61,1.965,0
0.661,0.563,2.385,0
0.583,0.714,2.501,0
0.662,0.795,2.107,0
0.955,0.905,1.677,0
1.054,1.069,1.863,0
0.52,0.957,1.98,0
-0.23,0.906,1.499,1
-0.599,0.909,1.114,1
-0.836,0.812,1.062,1
-0.492,0.602,0.766,1
-0.016,0.001,1.733,1
0.313,-0.656,3.527,1
0.27,-1.431,5.352,1
-0.002,-1.924,5.96,1
-0.667,-2.132,4.874,1
-1.121,-1.973,2.779,1
-1.239,-1.525,0.52,1
-1.197,-1.114,-0.924,1
-1.13,-0.744,-2.085,1
-1.196,-0.525,-2.341,1
-0.955,-0.36,-1.834,1
-0.651,-0.318,-1.331,1
-0.604,-0.445,-0.823,1
-0.589,-0.663,-0.407,1
-0.548,-0.838,-0.07,1
-0.385,-0.871,-0.095,1
-0.326,-0.869,-0.547,1
-0.294,-0.875,-0.973,0
-0.34,-0.867,-1.31,0
-0.442,-0.844,-1.549,0
-0.496,-0.784,-1.786,0
-0.506,-0.685,-1.953,0
-0.401,-0.51,-2.119,0
-0.356,-0.367,-1.983,0
-0.553,-0.363,-1.649,0
-0.712,-0.313,-1.578,0
-0.722,-0.32,-1.576,0
-0.778,-0.185,-1.418,0
-0.801,-0.107,-1.241,0
-0.794,-0.021,-1.292,0
-0.692,0.063,-1.346,0
-0.623,0.134,-1.342,0
-0.498,0.116,-1.142,0
-0.396,0.112,-0.868,0
-0.252,0.069,-0.435,0
-0.264,-0.003,-0.162,0
-0.273,-0.018,-0.158,0
-0.235,-0.023,0.313,0
-0.234,-0.041,0.318,0
-0.253,0.201,0.337,0
-0.183,0.351,0.146,0
-0.103,0.347,0.278,0
-0.203,0.294,0.929,0
-0.36,0.191,1.224,0
-0.504,0.094,1.161,0
-0.426,0.344,1.167,0
-0.418,0.811,1.134,0
-0.356,1.075,0.586,0
-0.189,1.078,0.137,0
-0.36,0.875,0.289,1
-0.785,0.638,0.624,1
-0.98,0.489,1,1
-0.967,0.433,1.415,1
-0.826,0.506,1.503,1
-0.56,0.357,1.441,1
-0.461,0.11,1.539,1
-0.462,0.144,1.529,1
-0.395,-0.667,2.844,1
-0.667,-1.005,3.494,1
-0.816,-1.128,3.551,1
-0.926,-1.129,2.862,1
-0.891,-0.987,1.781,1
-0.657,-0.775,0.776,1
-0.302,-0.584,0.163,1
-0.057,-0.514,0.092,1
0.043,-0.539,0.108,1
0.123,-0.656,-0.15,1
0.084,-0.75,-0.163,1
0.079,-0.837,-0.147,1
-0.015,-0.902,-0.208,1
-0.18,-1.013,-0.101,0
-0.145,-0.936,-0.304,0
-0.053,-0.769,-0.939,0
-0.039,-0.662,-1.425,0
-0.047,-0.483,-2.004,0
0.063,-0.297,-2.414,0
0.134,-0.108,-2.626,0
0.067,-0.061,-2.638,0
-0.071,-0.008,-2.38,0
-0.193,-0.005,-2.029,0
-0.29,0.059,-1.676,0
-0.418,0.019,-1.445,0
-0.518,-0.012,-1.414,0
-0.498,0.028,-1.611,0
-0.513,0.114,-1.754,0
-0.511,0.115,-1.665,0
-0.313,0.165,-1.649,0
-0.201,0.236,-1.543,0
-0.161,0.216,-0.895,0
-0.292,0.137,-0.572,0
-0.41,0.168,-0.857,0
-0.421,0.235,-1.079,0
-0.381,0.263,-0.949,0
-0.465,0.256,-0.532,0
-0.436,0.242,0.005,0
-0.414,0.239,0.74,0
-0.412,0.256,1.38,0
-0.436,0.3,1.527,0
-0.543,0.273,1.585,0
-0.405,0.269,1.705,0
-0.1,0.286,1.985,0
-0.132,0.287,2.529,0
-0.538,0.381,2.589,0
-0.712,0.467,2.027,0
-0.633,0.72,1.376,0
-0.519,0.865,1.379,0
-0.519,0.83,1.39,1
-1.442,1.123,0.938,1
-1.866,1.2,0.238,1
-2.058,1.269,0.009,1
-1.767,0.913,-0.352,1
-1.173,0.417,0.604,1
-0.579,-0.629,3.855,1
-0.53,-1.339,5.886,1
-0.73,-1.812,6.576,1
-1.058,-1.703,4.232,1
-1.215,-1.19,0.998,1
-1.203,-0.86,-0.845,1
-1.429,-0.554,-1.848,1
-1.616,-0.456,-2.16,1
-1.857,-0.624,-1.559,1
-1.78,-0.652,-0.812,1
-1.339,-0.699,-0.158,1
-1.164,-0.792,0.007,1
-1.094,-1.015,0.162,1
-0.986,-1.189,0.086,1
-0.853,-1.208,-0.103,1
-0.864,-1.179,-0.255,0
-0.877,-1.121,-0.841,0
-0.8,-0.912,-1.612,0
-0.643,-0.651,-2.392,0
-0.702,-0.598,-2.419,0
-0.753,-0.44,-2.38,0
-0.747,-0.316,-2.431,0
-0.806,-0.211,-2.145,0
-0.896,-0.084,-1.692,0
-0.982,-0.008,-1.395,0
-1.169,0.043,-1.191,0
-1.204,0.116,-1.112,0
-1.13,0.203,-1.231,0
-0.959,0.346,-1.415,0
-0.828,0.337,-1.28,0
-0.831,0.254,-0.97,0
-0.852,0.095,-0.553,0
-0.758,0.048,-0.056,0
-0.715,-0.006,0.184,0
-0.707,-0.126,0.674,0
-0.812,-0.195,1.181,0
-0.782,-0.097,1.275,0
-0.715,0.108,1.017,0
-0.64,0.393,0.625,0
-0.604,0.593,0.198,0
-0.371,0.757,-0.047,0
0.152,0.992,0.212,0
0.411,1.083,0.704,0
0.275,0.832,1.121,0
-0.107,0.424,1.529,0
-0.682,0.35,1.846,0
-1.124,0.645,1.385,0
-0.822,0.833,0.755,1
-0.605,0.603,0.597,1
-0.51,0.685,0.365,1
-0.462,0.689,0.536,1
-0.509,0.425,0.858,1
-0.537,-0.032,1.235,1
-0.771,-0.007,1.752,1
-0.805,0.166,1.209,1
-0.784,0.254,0.425,1
-0.943,0.064,-0.931,1
-0.974,-0.178,-1.478,1
-1.078,-0.705,0.041,1
-1.171,-1.285,2.375,1
-1.326,-1.7,3.932,1
-1.417,-1.918,4.821,1
-1.562,-1.93,4.124,1
-1.457,-1.699,2.986,1
-1.099,-1.403,1.999,1
-0.82,-1.147,1.718,1
-0.711,-0.955,1.258,1
-0.792,-0.917,0.621,1
-0.816,-0.87,0.003,0
-0.704,-0.79,-0.219,0
-0.489,-0.544,-0.569,0
-0.29,-0.356,-1.145,0
-0.177,-0.134,-1.658,0
-0.112,0.006,-2.072,0
0.205,0.338,-2.367,0
0.359,0.555,-2.495,0
0.284,0.617,-2.69,0
0.031,0.572,-2.71,0
-0.261,0.48,-2.574,0
-0.541,0.403,-2.368,0
-0.886,0.244,-2.083,0
-1.182,0.035,-1.844,0
-1.176,0.045,-1.847,0
-1.351,-0.317,-0.706,0
-1.128,-0.265,-0.438,0
-0.796,-0.118,-0.724,0
-0.459,0.142,-1.048,0
-0.308,0.185,-0.924,0
-0.332,0.15,-0.629,0
-0.384,0.061,-0.427,0
-0.553,0.077,-0.397,0
-0.562,0.135,-0.583,0
-0.51,0.314,-0.798,0
-0.498,0.443,-0.7,0
-0.69,0.417,-0.464,0
-0.673,0.45,-0.024,0
-0.355,0.538,0.599,0
-0.181,0.612,1.02,0
-0.263,0.577,1.591,0
-0.28,0.514,1.91,0
-0.109,0.657,1.695,0
0.072,0.908,1.071,0
0.068,0.875,1.081,0
0.555,1.344,0.551,0
0.42,1.343,1.141,0
-0.069,1.141,1.361,0
-0.079,1.142,1.362,0
-0.778,0.747,1.548,0
-0.611,0.288,2.473,1
-0.566,-0.366,3.681,1
-0.575,-0.307,3.665,1
-0.601,-1.756,5.829,1
-0.309,-1.97,5.322,1
0.011,-1.555,4.016,1
-0.196,-1.148,1.948,1
-0.573,-0.764,-0.354,1
-0.801,-0.596,-1.615,1
-0.988,-0.566,-1.909,1
-1.458,-0.654,-1.826,1
-1.728,-0.747,-1.647,1
-1.736,-0.65,-1.489,1
-1.459,-0.477,-1.581,1
-1.254,-0.425,-1.388,1
-0.994,-0.501,-1.113,1
-0.684,-0.542,-0.897,1
-0.421,-0.624,-0.679,1
-0.393,-0.848,-0.446,1
-0.405,-0.927,-0.538,1
-0.45,-0.864,-0.821,1
-0.61,-0.859,-1.065,0
-0.872,-0.834,-1.391,0
-0.881,-0.646,-1.512,0
-0.71,-0.408,-1.584,0
-0.542,-0.159,-1.531,0
-0.431,0.136,-1.489,0
-0.348,0.334,-1.532,0
-0.283,0.52,-1.442,0
-0.273,0.546,-1.22,0
-0.338,0.523,-1.007,0
-0.327,0.416,-0.86,0
-0.394,0.205,-0.266,0
-0.424,0.119,0.243,0
-0.35,0.117,0.367,0
-0.346,0.198,0.412,0
-0.383,0.342,0.613,0
-0.515,0.448,0.599,0
-0.508,0.802,0.221,0
-0.369,1.106,-0.277,0
-0.438,1.164,-0.4,0
-0.478,0.94,0.194,0
-0.501,0.925,0.199,0
-0.487,0.573,1.824,0
-0.23,0.442,2.394,0
-0.032,0.263,2.762,0
0.286,0.137,3.093,0
0.479,0.065,3.135,0
0.699,-0.029,3.116,0
0.735,-0.122,3.087,1
0.63,0.115,2.912,1
0.375,0.577,2.216,1
0.769,0.67,1.003,1
1.451,0.661,0.877,1
1.646,0.815,1.605,1
1.116,0.81,1.692,1
1.108,0.781,1.7,1
-0.151,1.025,-1.078,1
-0.156,1.252,-2.187,1
0.194,1.34,-2.409,1
0.424,1.142,-1.704,1
0.077,0.333,-0.263,1
-0.503,-0.611,0.777,1
-0.679,-1.089,1.562,1
-0.783,-1.559,1.93,1
-0.952,-1.736,1.557,1
-0.938,-1.636,0.726,1
-0.721,-1.576,0.029,1
-0.587,-1.408,-0.108,1
-0.658,-1.339,-0.262,1
-0.631,-1.32,-0.268,0
-0.753,-1.275,-0.72,0
-0.789,-1.232,-0.934,0
-0.649,-1.11,-1.237,0
-0.358,-0.836,-1.809,0
-0.066,-0.524,-1.951,0
0.277,-0.18,-2.367,0
0.421,0.134,-2.631,0
0.561,0.364,-2.625,0
0.505,0.5,-2.412,0
0.318,0.495,-2,0
0.187,0.484,-1.946,0
0.066,0.475,-2.052,0
0.097,0.535,-2.113,0
0.376,0.633,-2.001,0
0.565,0.571,-1.671,0
0.569,0.563,-1.669,0
0.497,0.272,-0.558,0
0.408,0.183,-0.462,0
0.259,0.112,-0.294,0
0.022,0.013,-0.249,0
-0.153,0.016,-0.329,0
-0.294,0.097,-0.385,0
-0.301,0.268,-0.628,0
-0.11,0.603,-0.982,0
-0.088,0.58,-0.976,0
0.163,0.754,-0.325,0
0.212,0.632,0.79,0
0.162,0.375,1.774,0
0.21,0.276,2.122,0
0.336,0.083,2.75,0
0.5,0,2.856,0
0.55,0.257,2.449,0
0.276,0.494,1.572,0
0.637,0.939,0.975,1
1.03,1.047,0.833,1
0.778,0.937,1.116,1
0.012,0.571,1.77,1
-0.589,0.184,2.338,1
-0.566,0.113,2.383,1
-0.213,0.24,2.247,1
0.252,0.337,1.808,1
0.245,0.339,1.807,1
1.005,-0.271,1.672,1
0.967,-0.853,2.753,1
0.507,-1.287,3.286,1
-0.14,-1.428,2.58,1
-0.421,-1.403,1.397,1
-0.584,-1.177,0.451,1
-0.601,-1.062,0.065,1
-0.448,-0.827,-0.356,1
-0.21,-0.598,-0.783,1
-0.008,-0.528,-0.924,1
0.126,-0.559,-0.828,1
0.159,-0.705,-0.737,1
0.174,-0.907,-0.473,0
0.231,-1.124,-0.17,0
0.271,-1.176,-0.218,0
-0.048,-1.444,-0.462,0
-0.258,-1.498,-0.689,0
-0.125,-1.344,-1.151,0
0.087,-0.992,-1.365,0
0.312,-0.689,-1.632,0
0.327,-0.473,-2.066,0
0.415,-0.218,-2.374,0
0.338,-0.111,-2.159,0
0.075,-0.151,-1.87,0
-0.007,-0.11,-1.682,0
-0.079,-0.077,-1.48,0
-0.082,0.053,-1.692,0
-0.076,0.04,-1.688,0
0.195,0.285,-2.087,0
0.208,0.238,-1.862,0
0.251,0.094,-1.408,0
0.257,0.087,-1.406,0
0.095,-0.059,-0.211,0
0.225,-0.018,0.302,0
0.183,-0.012,0.65,0
0.018,-0.003,0.744,0
0.034,0.202,0.462,0
0.039,0.174,0.471,0
0.059,0.586,-0.075,0
0.022,0.506,0.211,0
0.381,0.598,0.751,0
0.666,0.528,1.563,0
0.713,0.428,1.862,0
0.435,0.357,1.718,0
0.452,0.35,1.72,0
0.007,0.266,0.803,0
0.201,0.217,0.752,0
0.257,0.204,0.799,0
0.212,0.139,0.942,0
0.235,0.164,0.934,1
0.419,0.163,1.579,1
0.451,0.412,1.636,1
0.492,0.485,1.259,1
0.781,0.43,0.659,1
0.938,0.095,0.987,1
0.757,-0.602,2.447,1
0.396,-1.278,3.882,1
-0.121,-1.808,4.683,1
-0.416,-2.071,4.67,1
-0.346,-2.037,3.683,1
0.136,-1.694,2.56,1
0.872,-1.15,1.394,1
1.181,-0.877,0.631,1
1.107,-0.812,-0.284,1
1.014,-0.789,-1.067,1
1.076,-0.707,-1.57,1
1.241,-0.658,-1.658,1
1.144,-0.83,-1.202,1
0.986,-0.966,-0.918,1
1.004,-1.034,-0.569,1
1.09,-0.938,-0.737,0
1.296,-0.625,-1.437,0
1.624,-0.318,-2.246,0
1.717,-0.064,-2.43,0
1.646,0.077,-2.256,0
1.502,0.207,-2.388,0
1.227,0.188,-2.448,0
0.707,0.012,-2.083,0
0.478,-0.103,-1.674,0
0.38,-0.11,-1.172,0
0.432,0.017,-1.322,0
0.553,0.229,-1.798,0
0.75,0.334,-1.778,0
0.982,0.494,-1.351,0
1.177,0.54,-1.092,0
1.197,0.458,-1.009,0
1.249,0.472,-0.882,0
1.254,0.465,-0.879,0
1.097,0.208,0.355,0
0.724,0.095,0.532,0
0.423,0.093,0.23,0
0.328,0.265,-0.17,0
0.485,0.505,-0.192,0
0.661,0.66,0.266,0
0.804,0.729,0.592,0
1.056,0.69,1.101,0
1.149,0.639,1.924,0
0.959,0.432,2.402,0
0.739,0.407,2.268,0
0.565,0.544,1.765,0
0.666,0.794,1.167,0
0.992,0.949,0.852,0
1.255,1.04,0.664,0
0.999,0.966,0.751,0
0.739,0.924,0.765,0
