accelX,accelY,accelZ,label
0.574,-0.85,2.015,1
0.397,-0.587,1.327,0
0.741,-0.592,0.815,0
1.199,-0.406,0.436,0
1.547,-0.465,0.603,0
2,-0.934,1.922,0
2.174,-1.597,3.389,0
2.022,-2.598,5.417,0
1.572,-3.23,6.922,0
0.777,-3.988,8.393,0
0.16,-4.194,8.555,0
-0.197,-3.951,6.08,0
-0.027,-3.605,4.01,0
0.17,-3.119,0.627,0
0.275,-2.891,-0.992,0
0.48,-2.482,-2.685,0
0.52,-2.253,-3.193,0
0.63,-2.18,-3.072,0
0.823,-2.401,-2.256,0
1.219,-2.592,-1.027,0
1.354,-2.707,-0.23,0
1.398,-3.05,0.914,0
1.259,-3.193,1.321,0
0.794,-3.307,1.169,0
0.463,-3.41,0.55,0
0.387,-3.431,-0.256,0
0.544,-3.232,-0.807,0
0.879,-2.733,-1.27,0
1.036,-2.404,-1.227,0
1.19,-2.062,-1.195,0
1.189,-2.063,-1.195,0
1.001,-1.752,-1.647,0
0.855,-1.685,-1.824,0
0.863,-1.749,-2.321,0
0.869,-1.754,-2.37,0
0.744,-1.834,-1.99,0
0.843,-1.773,-1.354,0
1.06,-1.525,-0.183,0
1.155,-1.501,0.694,0
1.036,-1.624,1.532,0
0.813,-1.664,1.775,0
0.63,-1.674,1.991,0
0.684,-1.704,2.013,0
0.823,-1.785,1.877,0
0.871,-1.884,1.99,0
0.824,-1.888,2.41,0
0.72,-1.875,2.851,0
0.642,-1.795,3.527,0
0.625,-1.703,3.799,0
0.832,-1.675,3.549,0
0.936,-1.671,3.008,0
1.067,-1.576,2.003,0
1.062,-1.478,1.808,0
1.075,-1.515,1.832,0
0.453,-0.928,1.335,0
0.58,-0.938,0.799,1
0.9,-0.998,0.524,0
1.253,-0.914,0.747,0
1.593,-1.054,1.58,0
2.045,-1.41,3.487,0
1.828,-1.71,4.863,0
1.358,-2.11,5.519,0
1.104,-2.407,5.346,0
0.793,-2.767,4.538,0
0.66,-2.707,3.769,0
0.813,-2.389,2.684,0
0.904,-2.275,2.139,0
0.839,-2.255,1.311,0
0.768,-2.244,0.852,0
0.727,-2.193,0.281,0
0.754,-2.199,-0.108,0
0.978,-2.254,-0.229,0
1.295,-2.291,-0.179,0
1.309,-2.279,-0.184,0
1.816,-2.344,-0.293,0
1.92,-2.435,-0.333,0
1.934,-2.496,-0.168,0
1.776,-2.649,-0.027,0
1.476,-2.676,-0.003,0
1.187,-2.681,-0.094,0
1.028,-2.687,-0.308,0
0.878,-2.504,-0.749,0
0.864,-2.318,-1.158,0
0.907,-2.094,-1.734,0
0.923,-1.926,-1.865,0
1.242,-1.611,-1.792,0
1.418,-1.368,-1.664,0
1.541,-1.143,-1.418,0
1.481,-1.121,-1.185,0
1.239,-1.224,-0.736,0
1.101,-1.26,-0.434,0
0.956,-1.373,-0.054,0
0.924,-1.474,0.247,0
1.044,-1.518,0.458,0
1.044,-1.478,0.631,0
1.328,-1.344,0.798,0
1.613,-1.264,0.986,0
1.784,-1.176,1.279,0
1.744,-1.141,1.481,0
1.558,-1.025,2.001,0
1.329,-1.105,2.342,0
1.345,-1.113,2.35,0
0.279,-1.692,2.868,0
0.001,-1.802,2.871,0
0.22,-1.755,2.975,0
0.475,-1.67,3.222,0
0.198,-1.445,3.131,0
0.187,-1.492,3.158,0
-0.096,-0.747,1.702,1
0.308,-0.766,0.798,0
0.619,-0.708,0.256,0
0.903,-0.628,0.366,0
1.119,-0.917,1.083,0
1.5,-1.686,2.555,0
1.683,-2.336,3.954,0
1.418,-2.994,5.591,0
0.973,-3.318,6.618,0
0.334,-3.461,6.784,0
-0.042,-3.423,5.516,0
-0.132,-3.118,2.793,0
-0.092,-2.961,1.063,0
-0.239,-2.725,-1.468,0
-0.309,-2.553,-2.361,0
-0.394,-2.505,-2.642,0
-0.345,-2.307,-1.976,0
0.193,-2.282,-0.366,0
0.626,-2.238,0.624,0
0.905,-2.215,1.705,0
0.909,-2.345,2.154,0
0.632,-2.713,1.586,0
0.443,-2.807,0.615,0
0.477,-2.862,-0.413,0
0.595,-2.806,-0.868,0
0.621,-2.63,-1.249,0
0.57,-2.44,-1.508,0
0.547,-2.218,-1.64,0
0.615,-2.089,-1.709,0
0.89,-1.844,-2.104,0
0.978,-1.669,-2.285,0
1.161,-1.407,-2.371,0
1.302,-1.262,-2.164,0
1.212,-1.148,-1.954,0
0.865,-1.261,-1.735,0
0.32,-1.512,-1.07,0
0.163,-1.686,-0.585,0
-0.06,-1.772,-0.012,0
-0.157,-1.819,0.311,0
-0.079,-1.774,0.74,0
0.148,-1.664,1.119,0
0.473,-1.523,1.596,0
0.62,-1.579,1.85,0
0.603,-1.447,2.205,0
0.526,-1.339,2.674,0
0.555,-1.35,3.125,0
0.487,-1.324,3.394,0
0.455,-1.405,3.349,0
0.504,-1.454,3.043,0
0.696,-1.275,2.381,0
0.903,-1.185,2.208,0
0.917,-0.709,2.464,0
0.721,-0.138,2.313,0
0.998,-0.028,1.71,0
1.706,-0.174,1.374,0
2.327,-0.318,1.432,1
2.441,-0.612,2.103,0
2.169,-1.385,4.104,0
1.633,-1.925,5.418,0
0.955,-2.521,5.982,0
0.629,-2.772,5.463,0
0.413,-2.872,4.252,0
0.536,-2.644,3.265,0
0.864,-2.173,1.709,0
0.944,-1.895,0.552,0
0.987,-1.956,-0.458,0
1.167,-2.079,-0.882,0
1.484,-2.136,-1.391,0
1.672,-2.229,-1.301,0
1.803,-2.433,-0.454,0
1.667,-2.588,0.407,0
1.667,-2.537,0.38,0
1.448,-2.891,2.329,0
1.192,-2.91,2.213,0
0.917,-2.951,1.5,0
0.856,-2.91,-0.035,0
0.94,-2.756,-0.898,0
0.905,-2.549,-1.705,0
0.922,-2.42,-2.146,0
0.833,-2.184,-2.025,0
0.877,-2.021,-1.745,0
0.996,-1.789,-1.465,0
1.049,-1.647,-1.451,0
1.127,-1.452,-1.897,0
1.21,-1.322,-2.222,0
1.198,-1.26,-2.494,0
1.021,-1.301,-2.452,0
0.834,-1.31,-2.031,0
0.674,-1.414,-1.414,0
0.584,-1.545,-0.618,0
0.713,-1.569,-0.419,0
0.899,-1.533,0.05,0
1.037,-1.534,0.574,0
1.345,-1.526,1.087,0
1.531,-1.404,1.524,0
1.404,-1.338,2.258,0
1.201,-1.439,2.622,0
0.738,-1.576,2.779,0
0.531,-1.527,2.73,0
0.532,-1.449,2.566,0
0.785,-1.364,2.356,0
1.139,-1.291,1.984,0
1.217,-1.257,1.953,0
1.668,-1.221,2.647,0
1.729,-0.941,3.293,0
1.183,-0.179,3.518,0
1.228,0.036,2.726,0
1.21,-0.159,1.332,1
1.118,-0.293,0.522,0
1.093,-0.62,0.33,0
0.993,-0.953,1.076,0
1.051,-1.705,2.908,0
1.128,-2.23,4.095,0
0.995,-2.862,5.436,0
0.642,-3.22,6.258,0
0.087,-3.323,6.146,0
-0.085,-3.039,4.642,0
0.268,-2.495,1.844,0
0.506,-2.053,-0.126,0
0.755,-1.718,-2.309,0
0.81,-1.484,-3.086,0
0.709,-1.326,-3.354,0
0.554,-1.527,-2.403,0
0.672,-1.875,-0.288,0
0.826,-2.058,1.248,0
0.852,-2.467,2.854,0
0.683,-2.776,3.439,0
0.45,-3.014,3.045,0
0.286,-3.076,2.011,0
0.286,-2.972,0.595,0
0.407,-2.897,-0.396,0
0.388,-2.595,-1.61,0
0.412,-2.351,-2.289,0
0.57,-2.026,-2.814,0
0.592,-1.789,-2.679,0
0.568,-1.611,-2.343,0
0.495,-1.507,-2.109,0
0.305,-1.48,-1.669,0
0.127,-1.545,-1.598,0
0.068,-1.598,-1.697,0
0.197,-1.596,-1.578,0
0.461,-1.462,-1.364,0
0.739,-1.308,-1.159,0
0.925,-1.181,-0.635,0
0.831,-1.195,-0.051,0
0.697,-1.228,0.528,0
0.512,-1.237,0.78,0
0.213,-1.405,1.226,0
0.247,-1.619,1.445,0
0.555,-1.622,2.194,0
0.615,-1.523,2.669,0
0.606,-1.53,2.672,0
0.251,-1.449,2.338,0
0.205,-1.554,1.777,0
0.216,-1.487,1.44,0
0.487,-1.26,1.377,0
0.735,-0.984,1.619,0
0.736,-1.001,1.629,0
0.723,0.224,1.547,0
1.046,0.29,0.907,0
1.448,0.289,0.547,0
1.57,0.371,0.419,1
1.453,0.118,0.945,0
1.462,-0.581,2.401,0
1.198,-1.021,3.67,0
0.733,-1.54,4.692,0
0.827,-1.894,5.143,0
0.951,-2.167,5.553,0
0.863,-2.21,5.598,0
0.783,-2.094,4.959,0
0.837,-2.004,3.766,0
0.925,-1.927,1.856,0
1.062,-1.944,0.481,0
1.236,-2.118,-0.783,0
1.202,-2.324,-1.008,0
0.933,-2.579,-0.371,0
0.894,-2.835,0.446,0
0.858,-2.975,1.132,0
0.891,-3.019,1.199,0
0.955,-3.001,0.746,0
0.888,-2.91,0.152,0
0.892,-2.92,0.157,0
0.685,-2.703,-1.178,0
0.688,-2.459,-1.942,0
0.713,-2.354,-2.257,0
0.804,-2.205,-2.407,0
0.822,-2.1,-2.162,0
0.781,-1.958,-1.403,0
0.772,-1.953,-1.407,0
0.716,-1.766,-0.299,0
0.653,-1.74,-0.275,0
0.601,-1.654,-0.743,0
0.615,-1.583,-1.011,0
0.729,-1.469,-1.368,0
0.881,-1.315,-1.577,0
0.886,-1.33,-1.569,0
1.541,-0.939,-1.395,0
1.741,-0.765,-0.756,0
1.837,-0.753,-0.062,0
1.728,-0.892,0.794,0
1.589,-1.012,1.309,0
1.505,-1.116,2.301,0
1.361,-1.177,2.88,0
0.948,-1.385,2.79,0
0.711,-1.441,2.18,0
0.698,-1.352,1.386,0
0.992,-1.175,1.253,0
1.422,-0.889,1.585,0
1.344,-0.917,2.121,0
1.224,-1.03,3.14,0
1.261,-1.159,3.478,0
1.106,-1.1,3.514,0
0.52,-0.677,2.714,0
-0.166,-0.324,0.907,0
0.059,-0.4,-0.53,0
0.558,-0.288,-1.687,1
0.677,-0.336,-1.774,0
0.519,-0.396,-0.616,0
0.468,-0.881,0.665,0
0.733,-1.822,2.303,0
1.088,-2.361,3.446,0
1.02,-2.304,3.405,0
1.011,-2.684,6.231,0
0.956,-2.633,6.197,0
0.424,-2.378,3.835,0
0.226,-2.173,1.302,0
0.256,-1.793,-0.224,0
0.248,-1.802,-1.353,0
-0.007,-1.843,-1.422,0
-0.25,-1.86,-1.041,0
0.138,-2.104,-0.419,0
0.681,-2.259,0.6,0
0.968,-2.241,1.033,0
1.198,-2.475,0.928,0
1.256,-2.557,0.422,0
1.386,-2.482,-0.652,0
1.465,-2.416,-1.355,0
1.317,-2.333,-1.979,0
1.058,-2.315,-2.21,0
0.752,-2.296,-2.224,0
0.589,-2.311,-2.153,0
0.372,-2.318,-1.793,0
0.065,-2.314,-1.22,0
-0.237,-2.199,-0.287,0
-0.207,-2.069,0.128,0
0.005,-1.735,0.266,0
0.3,-1.5,-0.013,0
0.631,-1.268,-0.525,0
0.678,-1.149,-0.777,0
0.673,-1.01,-0.769,0
0.513,-1.003,-0.407,0
0.147,-1.138,0.297,0
-0.038,-1.152,0.746,0
-0.037,-1.138,0.739,0
-0.24,-1.115,1.107,0
0.192,-1.078,1.243,0
0.433,-1.021,1.475,0
0.426,-1.025,1.477,0
1.126,-0.714,1.837,0
1.271,-0.577,2.569,0
1.361,-0.539,3.174,0
1.132,-0.682,3.343,0
0.884,-0.865,3.388,0
0.872,-1.016,3.382,0
1.009,-0.863,3.008,0
0.734,-0.379,2.154,1
0.61,-0.01,1.418,0
0.839,-0.01,0.369,0
1.054,-0.084,-0.057,0
1.04,-0.229,0.515,0
1.203,-0.464,1.313,0
1.065,-0.776,2.129,0
0.573,-1.053,2.461,0
0.553,-1.518,2.448,0
0.837,-1.705,2.393,0
1.12,-1.751,2.545,0
1.223,-1.703,2.859,0
1.082,-1.707,2.778,0
0.968,-1.717,2.538,0
0.978,-1.694,2.527,0
0.83,-1.983,1.146,0
0.862,-2.045,0.295,0
0.947,-1.985,0.096,0
1.102,-2.025,-0.091,0
1.222,-2.092,-0.108,0
1.441,-2.082,0.063,0
1.442,-2.063,0.054,0
1.489,-2.066,0.35,0
1.379,-2.057,0.568,0
1.094,-2.162,0.538,0
0.781,-2.159,0.204,0
0.521,-2.11,-0.44,0
0.452,-2.083,-0.989,0
0.564,-1.912,-1.66,0
0.769,-1.655,-2.097,0
1.074,-1.31,-2.228,0
1.381,-1.059,-2.046,0
1.565,-0.761,-1.776,0
1.522,-0.659,-1.682,0
1.208,-0.753,-1.593,0
0.869,-0.899,-1.55,0
0.332,-1.167,-1.544,0
0.2,-1.223,-1.437,0
0.241,-1.16,-1.158,0
0.606,-1.054,-0.974,0
0.988,-0.891,-0.473,0
1.173,-0.814,-0.156,0
1.421,-0.747,0.519,0
1.533,-0.701,1.168,0
1.716,-0.652,2.082,0
1.456,-0.742,2.227,0
0.783,-0.991,1.702,0
0.408,-1.218,1.01,0
0.191,-1.38,0.468,0
0.184,-1.31,0.599,0
0.384,-1.219,1.187,0
0.526,-1.144,1.781,0
0.484,-1.114,2.741,0
0.474,-1.174,3.096,0
0.71,-0.984,3.532,0
0.431,-0.665,3.325,0
0.142,-0.362,2.106,0
0.266,-0.482,1.244,0
0.602,-0.485,0.176,1
0.851,-0.41,-0.089,0
1.049,-0.406,0.139,0
1.299,-0.609,0.658,0
1.798,-1.204,2.109,0
1.979,-1.751,3.538,0
1.751,-2.356,5.436,0
1.262,-2.693,6.646,0
0.521,-2.739,6.804,0
0.206,-2.625,5.119,0
0.256,-2.288,1.816,0
0.346,-1.919,-0.506,0
0.489,-1.708,-2.765,0
0.533,-1.565,-3.435,0
0.464,-1.321,-2.985,0
0.488,-1.311,-1.741,0
0.766,-1.492,0.004,0
0.902,-1.7,1.009,0
0.931,-2.049,1.775,0
0.852,-2.167,1.653,0
0.682,-2.3,1.116,0
0.521,-2.334,0.487,0
0.458,-2.265,-0.546,0
0.453,-2.166,-1.234,0
0.34,-2.063,-1.924,0
0.216,-1.984,-2.186,0
0.18,-1.9,-2.364,0
0.22,-1.801,-2.185,0
0.35,-1.506,-1.532,0
0.589,-1.274,-1.16,0
0.814,-0.965,-0.882,0
0.633,-0.937,-0.83,0
0.321,-1.022,-1.071,0
0.093,-1.124,-1.451,0
0.007,-1.214,-1.68,0
0.063,-1.23,-1.378,0
0.139,-1.247,-0.763,0
0.172,-1.275,-0.542,0
0.156,-1.27,-0.545,0
0.013,-1.229,0.814,0
-0.009,-1.117,1.463,0
0.046,-1.067,1.564,0
0.068,-0.971,1.651,0
0.266,-0.835,1.584,0
0.629,-0.674,1.427,0
0.944,-0.567,1.425,0
1.1,-0.575,1.647,0
0.914,-0.705,1.815,0
0.318,-1.115,1.961,0
0.034,-1.2,2.116,0
-0.207,-0.969,2.316,0
-0.437,-0.675,2.221,0
-0.591,0.067,1.731,0
-0.383,0.248,1.114,0
0.276,0.37,0.156,1
0.74,0.489,-0.106,0
1.347,0.337,0.354,0
1.748,-0.046,1.22,0
1.247,-0.726,2.96,0
0.843,-1.442,4.03,0
0.618,-2.141,4.776,0
0.35,-2.312,4.921,0
0.083,-2.398,5.055,0
0.095,-2.198,4.76,0
0.283,-1.775,3.454,0
0.449,-1.506,1.931,0
0.61,-1.331,-0.125,0
0.788,-1.308,-1.034,0
0.935,-1.398,-1.392,0
0.934,-1.459,-1.164,0
0.938,-1.679,-0.333,0
1.025,-1.84,0.334,0
0.897,-2.126,0.768,0
0.705,-2.257,0.656,0
0.477,-2.286,0.124,0
0.399,-2.27,-0.357,0
0.523,-2.067,-0.957,0
0.477,-1.926,-1.306,0
0.295,-1.824,-1.638,0
0.172,-1.721,-1.884,0
0.194,-1.562,-2.061,0
0.2,-1.416,-2.055,0
0.329,-1.285,-1.946,0
0.501,-1.156,-1.903,0
0.66,-1.042,-1.831,0
0.704,-1.037,-1.692,0
0.598,-1.107,-1.499,0
0.452,-1.127,-1.41,0
0.385,-1.135,-1.283,0
0.434,-1.074,-1.267,0
0.462,-0.978,-1.188,0
0.535,-0.965,-1.194,0
0.66,-0.914,-1.101,0
0.649,-0.858,-0.52,0
0.689,-0.868,0.435,0
0.71,-0.84,0.772,0
0.519,-0.899,0.964,0
0.353,-0.925,0.976,0
0.332,-0.74,0.823,0
0.413,-0.603,0.673,0
0.612,-0.515,0.231,0
0.611,-0.493,0.199,0
0.76,-0.54,0.895,0
1.098,-0.529,1.765,0
1.218,-0.567,2.952,0
1.191,-0.668,3.57,0
1.095,-0.782,4.555,0
0.662,-0.609,4.877,0
-0.148,0.055,3.333,1
-0.284,0.106,1.877,0
0.025,0.318,-0.165,0
0.416,0.404,-0.897,0
0.933,0.412,-0.735,0
1.016,0.249,0.653,0
0.945,-0.531,2.729,0
0.826,-1.312,4.275,0
0.218,-2.279,6.037,0
-0.592,-2.776,6.838,0
-1.306,-2.919,6.33,0
-1.202,-2.67,4.857,0
-0.748,-2.324,1.64,0
-0.51,-1.899,-0.36,0
-0.242,-1.583,-1.932,0
-0.01,-1.46,-2.29,0
0.209,-1.276,-1.683,0
0.498,-1.233,-0.922,0
0.904,-1.356,-0.095,0
1.012,-1.513,0.353,0
1.081,-1.884,0.779,0
1.021,-2.039,0.773,0
0.818,-2.08,0.307,0
0.656,-2.131,-0.297,0
0.483,-2.12,-1.03,0
0.498,-1.981,-1.621,0
0.517,-1.858,-2.344,0
0.424,-1.781,-2.598,0
0.334,-1.739,-2.422,0
0.442,-1.568,-1.882,0
0.587,-1.335,-0.793,0
0.548,-1.277,-0.328,0
0.492,-1.219,-0.31,0
0.356,-1.193,-0.769,0
0.174,-1.222,-1.522,0
0.157,-1.248,-1.932,0
0.108,-1.205,-2.215,0
0.135,-1.195,-2.081,0
0.118,-1.317,-1.393,0
0.111,-1.343,-0.692,0
0.206,-1.257,0.353,0
0.253,-1.255,0.806,0
0.258,-1.251,0.804,0
0.636,-1.031,0.891,0
0.667,-0.839,0.575,0
0.641,-0.838,0.252,0
0.509,-0.945,0.042,0
0.38,-0.938,0.4,0
0.42,-1.126,1.24,0
0.528,-1.249,1.861,0
0.451,-0.995,2.542,0
0.175,-0.432,2.948,0
-0.025,0.202,2.645,0
0.56,0.266,1.758,0
1.307,0.307,0.75,0
1.574,0.34,0.724,0
1.578,0.35,0.719,1
1.499,-0.384,2.857,0
0.763,-1.388,4.106,0
0.464,-1.98,4.362,0
0.138,-2.816,5.265,0
-0.221,-3.419,5.911,0
-0.745,-3.478,6.262,0
-0.865,-3.24,5.941,0
-0.34,-2.884,4.206,0
0.185,-2.463,2.301,0
0.743,-2.021,-0.088,0
1.042,-1.908,-1.214,0
1.26,-1.732,-1.783,0
1.395,-1.562,-1.641,0
1.662,-1.487,-0.85,0
1.832,-1.445,-0.259,0
1.866,-1.465,0.017,0
1.834,-1.483,-0.007,0
1.669,-1.497,-0.426,0
1.762,-1.414,-0.873,0
1.731,-1.311,-1.684,0
1.717,-1.284,-2.075,0
1.704,-1.175,-2.33,0
1.568,-1.13,-2.393,0
1.322,-1.161,-2.239,0
1.02,-1.231,-1.801,0
0.647,-1.347,-1.282,0
0.497,-1.368,-1.066,0
0.519,-1.26,-0.886,0
0.765,-1.101,-1.039,0
1.209,-0.774,-1.414,0
1.475,-0.558,-1.671,0
1.636,-0.506,-1.977,0
1.477,-0.603,-1.915,0
1.098,-0.684,-1.262,0
1.001,-0.766,-0.874,0
0.821,-0.84,-0.401,0
0.786,-0.785,-0.131,0
0.785,-0.777,-0.135,0
1.008,-0.712,0.841,0
0.997,-0.547,1.094,0
1.122,-0.32,1.234,0
1.429,-0.199,1.183,0
1.408,-0.176,1.126,0
1.256,-0.14,1.749,0
1.072,-0.271,2.419,0
0.791,-0.449,3.146,0
0.681,-0.416,3.532,0
0.674,-0.493,3.882,0
0.619,-0.522,3.744,0
0.176,0.02,3.034,0
-0.126,0.403,1.805,1
0.153,0.504,0.081,0
0.434,0.638,-0.702,0
0.753,0.689,-1.083,0
0.972,0.626,-0.547,0
1.365,0.089,1.152,0
1.537,-0.7,2.599,0
1.382,-1.699,4.704,0
0.787,-2.333,6.361,0
-0.168,-2.996,7.774,0
-0.808,-3.09,7.444,0
-0.863,-2.73,4.839,0
-0.651,-2.496,2.334,0
-0.509,-2.004,-1.045,0
-0.373,-1.845,-2.492,0
-0.38,-1.841,-3.251,0
-0.251,-1.676,-3.018,0
0.42,-1.431,-1.512,0
0.377,-1.408,-1.525,0
1.272,-1.557,1.11,0
1.228,-1.804,1.315,0
0.911,-2.198,0.676,0
0.66,-2.347,0.056,0
0.421,-2.452,-0.84,0
0.148,-2.523,-1.132,0
0.055,-2.376,-1.468,0
-0.106,-2.228,-1.76,0
-0.231,-2.079,-2.278,0
-0.254,-1.923,-2.669,0
0.032,-1.692,-3.099,0
0.428,-1.351,-3.318,0
1.155,-0.78,-3.301,0
1.478,-0.502,-3.005,0
1.641,-0.236,-2.423,0
1.395,-0.286,-2.06,0
0.721,-0.592,-1.588,0
0.287,-0.872,-1.118,0
-0.158,-1.089,-0.463,0
-0.215,-1.068,-0.101,0
-0.014,-0.979,0.509,0
0.174,-0.887,0.757,0
0.363,-0.858,0.945,0
0.586,-0.754,1.145,0
0.784,-0.579,1.628,0
0.692,-0.558,2.073,0
0.387,-0.454,2.393,0
0.177,-0.4,2.128,0
-0.021,-0.407,1.396,0
-0.243,-0.426,0.834,0
-0.115,-0.379,0.019,0
-0.01,-0.235,0.197,0
0.145,0.013,0.984,0
0.265,0.321,1.623,0
0.21,1.12,2.053,0
-0.038,1.469,1.795,0
0.18,1.109,1.013,1
0.34,0.823,0.841,0
0.731,0.451,1.512,0
1.163,0.187,2.536,0
1.314,-0.135,4.141,0
1.173,-0.405,4.704,0
1.254,-0.93,5.347,0
1.243,-1.438,5.76,0
0.889,-1.824,5.671,0
0.471,-1.886,4.982,0
0.249,-1.907,3.27,0
0.252,-1.886,1.907,0
0.329,-1.927,-0.152,0
0.233,-2.051,-1.324,0
0.299,-2.235,-2.086,0
0.535,-2.165,-2.082,0
0.928,-2.053,-1.368,0
1.268,-1.988,-0.66,0
1.411,-2.045,0.063,0
1.313,-2.143,0.315,0
1.069,-2.27,0.398,0
0.863,-2.237,0.109,0
0.469,-2.202,-0.609,0
0.432,-2.099,-1.212,0
0.61,-1.769,-2.051,0
0.765,-1.553,-2.572,0
0.945,-1.341,-2.9,0
1.18,-1.141,-2.851,0
1.427,-0.797,-2.302,0
1.329,-0.702,-1.867,0
0.854,-0.813,-1.306,0
0.523,-0.885,-0.997,0
0.165,-0.987,-0.934,0
-0.04,-1.076,-0.879,0
-0.115,-1.121,-0.758,0
-0.026,-1.062,-0.721,0
0.107,-0.972,-0.58,0
0.248,-0.878,-0.566,0
0.353,-0.771,-0.629,0
0.399,-0.776,-0.707,0
0.56,-0.643,-0.15,0
0.712,-0.709,0.311,0
0.402,-0.793,1.024,0
0.176,-0.868,1.702,0
-0.002,-1.024,1.682,0
-0.177,-0.952,1.39,0
-0.006,-0.648,0.866,0
0.44,-0.406,0.47,0
0.67,-0.215,0.418,0
0.68,-0.118,0.84,0
0.863,0.002,2.196,0
1.001,-0.006,3.065,0
0.679,0.108,3.589,0
0.189,0.578,3.387,0
0.095,0.672,1.282,1
0.08,0.424,0.175,0
0.22,0.418,-1.239,0
0.527,0.303,-1.49,0
0.539,0.315,-1.495,0
0.503,-0.151,-0.387,0
0.658,-1.245,2.807,0
0.462,-1.829,4.14,0
-0.134,-2.445,5.333,0
-0.68,-2.592,5.354,0
-1.127,-2.484,3.531,0
-1.247,-2.321,1.628,0
-1.233,-1.899,-1.157,0
-0.931,-1.639,-2.596,0
-0.474,-1.275,-3.407,0
-0.198,-0.994,-3.082,0
0.209,-0.82,-1.711,0
0.436,-0.935,-0.304,0
0.494,-1.481,1.686,0
0.427,-1.82,2.602,0
0.107,-2.18,3.231,0
-0.193,-2.368,3.068,0
-0.297,-2.433,1.996,0
-0.105,-2.252,0.796,0
0.232,-1.873,-0.69,0
0.338,-1.601,-1.818,0
0.398,-1.274,-2.817,0
0.396,-1.082,-3.16,0
0.307,-0.871,-3.137,0
0.222,-0.767,-2.801,0
0.217,-0.668,-2.274,0
0.2,-0.627,-2.154,0
0.007,-0.668,-2.243,0
-0.018,-0.667,-2.463,0
-0.047,-0.628,-2.401,0
-0.013,-0.58,-2.041,0
-0.007,-0.52,-1.059,0
0.12,-0.451,-0.407,0
0.199,-0.368,0.837,0
0.12,-0.31,1.36,0
-0.115,-0.358,1.715,0
-0.239,-0.387,1.503,0
-0.287,-0.352,0.939,0
-0.117,-0.202,0.567,0
0.154,0.062,0.291,0
0.418,0.242,0.211,0
0.538,0.336,0.425,0
0.608,0.201,0.807,0
0.59,0.188,0.813,0
0.464,-0.191,2.731,0
0.724,-0.303,3.264,0
0.732,-0.342,3.336,0
0.389,-0.133,2.883,0
0.113,0.016,1.825,1
0.3,-0.093,0.493,0
0.525,-0.218,0.133,0
0.619,-0.347,1.078,0
0.549,-0.69,2.303,0
0.175,-1.084,3.901,0
-0.099,-1.331,4.603,0
-0.139,-1.519,4.831,0
0.049,-1.654,4.735,0
0.365,-1.733,4.295,0
0.412,-1.574,3.7,0
0.258,-1.409,2.537,0
0.118,-1.4,1.536,0
0.047,-1.378,0.139,0
0.145,-1.379,-0.7,0
0.264,-1.426,-1.036,0
0.351,-1.482,-1.078,0
0.483,-1.564,-0.908,0
0.592,-1.7,-0.525,0
0.778,-1.808,0.007,0
0.937,-1.818,0.167,0
1.09,-1.844,0.149,0
1.205,-1.76,-0.144,0
1.39,-1.612,-0.767,0
1.36,-1.517,-1.083,0
1.145,-1.449,-1.283,0
0.956,-1.401,-1.438,0
0.918,-1.257,-1.635,0
0.734,-1.264,-1.706,0
0.425,-1.219,-1.646,0
0.292,-1.192,-1.627,0
0.269,-0.98,-1.525,0
0.352,-0.909,-1.539,0
0.611,-0.709,-1.565,0
0.727,-0.604,-1.515,0
0.844,-0.544,-1.274,0
0.938,-0.457,-0.918,0
0.882,-0.527,-0.704,0
0.679,-0.635,-0.735,0
0.237,-0.864,-0.814,0
0.152,-0.965,-0.843,0
0.237,-0.933,-0.736,0
0.531,-0.805,-0.421,0
1.012,-0.638,-0.06,0
1.027,-0.488,0.24,0
1.273,-0.285,0.802,0
1.416,-0.234,1.298,0
1.409,-0.25,1.305,0
0.735,-0.377,2.245,0
0.278,-0.518,2.369,0
0.161,-0.641,2.275,0
0.173,-0.69,1.983,0
0.428,-0.682,1.651,0
0.68,-0.663,1.473,0
0.48,-0.362,1.354,0
0.5,-0.395,1.37,0
0.031,0.329,0.266,0
0.262,0.473,-0.583,1
0.282,0.394,-0.64,0
0.208,0.18,0.096,0
0.111,-0.075,1.202,0
0.218,-0.696,2.633,0
0.233,-1.24,3.686,0
0.175,-1.849,4.754,0
-0.004,-2.096,5.632,0
-0.381,-2.135,5.96,0
-0.553,-2.009,4.909,0
-0.386,-1.636,1.904,0
-0.202,-1.325,-0.052,0
-0.032,-0.962,-1.716,0
0.06,-0.845,-2.278,0
-0.148,-0.751,-2.295,0
-0.323,-0.871,-1.652,0
-0.268,-1.22,-0.433,0
-0.178,-1.372,0.17,0
-0.032,-1.644,0.839,0
-0.03,-1.781,0.961,0
0.053,-1.784,0.608,0
0.17,-1.757,0.033,0
0.342,-1.6,-0.887,0
0.458,-1.479,-1.495,0
0.521,-1.36,-2.046,0
0.391,-1.294,-2.174,0
0.276,-1.294,-2.19,0
0.152,-1.251,-2.075,0
0.108,-1.177,-1.999,0
0.232,-1.071,-2.153,0
0.389,-0.79,-2.129,0
0.564,-0.616,-1.864,0
0.558,-0.51,-1.654,0
0.426,-0.427,-1.629,0
0.306,-0.454,-1.541,0
0.15,-0.579,-1.389,0
-0.134,-0.729,-0.907,0
-0.219,-0.755,-0.484,0
-0.148,-0.766,-0.007,0
-0.128,-0.723,0.186,0
0.05,-0.638,0.537,0
0.344,-0.581,0.623,0
0.4,-0.517,0.898,0
0.373,-0.463,1.086,0
0.34,-0.437,1.376,0
0.237,-0.385,1.564,0
0.219,-0.446,1.735,0
0.201,-0.344,1.967,0
0.319,-0.293,2.643,0
0.299,-0.231,3.053,0
0.19,-0.074,3.373,0
-0.014,0.291,3.133,0
-0.07,0.58,1.386,0
0.217,0.501,0.458,0
0.718,0.467,-0.17,1
0.938,0.376,0.488,0
1.044,-0.11,2.172,0
0.914,-0.6,3.364,0
0.442,-0.886,4.788,0
0.18,-1.093,5.493,0
-0.05,-1.362,5.094,0
-0.234,-1.629,4.001,0
-0.131,-1.489,2.644,0
0.135,-1.102,1.693,0
0.33,-0.8,0.369,0
0.475,-0.722,-0.263,0
0.683,-0.767,-0.882,0
0.788,-0.828,-1.411,0
0.755,-0.909,-1.758,0
0.734,-1.135,-1.59,0
0.777,-1.457,-1.015,0
0.803,-1.534,-0.692,0
0.806,-1.656,-0.466,0
0.845,-1.652,-0.485,0
0.863,-1.637,-0.519,0
0.844,-1.635,-0.638,0
0.785,-1.592,-0.899,0
0.637,-1.577,-0.969,0
0.439,-1.574,-0.951,0
0.276,-1.528,-1.005,0
0.095,-1.485,-1.306,0
0.118,-1.352,-1.706,0
0.285,-1.063,-2.212,0
0.448,-0.892,-2.399,0
0.659,-0.65,-2.4,0
0.729,-0.577,-2.466,0
0.57,-0.517,-2.368,0
0.431,-0.478,-1.98,0
0.222,-0.609,-1.428,0
0.088,-0.597,-1.033,0
0.024,-0.618,-0.495,0
0.062,-0.522,-0.184,0
0.346,-0.278,-0.022,0
0.655,-0.166,-0.17,0
0.859,-0.062,-0.397,0
0.864,-0.068,-0.393,0
1.248,0.194,0.281,0
1.315,0.246,0.742,0
0.858,0.139,1.306,0
0.523,-0.004,1.539,0
0.126,-0.186,1.762,0
0.095,-0.236,1.962,0
0.12,-0.352,2.2,0
0.102,-0.43,2.668,0
0.088,-0.539,3.106,0
-0.116,-0.42,3.207,0
-0.609,0.162,2.68,0
-0.599,0.381,1.8,0
-0.397,0.589,-0.051,1
0.034,0.745,-1.003,0
0.311,0.833,-0.965,0
0.438,0.609,0.057,0
0.901,-0.153,1.774,0
1.038,-0.957,3.24,0
0.911,-1.86,5.544,0
0.534,-2.415,7.2,0
-0.272,-2.829,8.002,0
-0.747,-2.792,6.908,0
-0.975,-2.47,3.444,0
-0.735,-2.087,0.863,0
-0.761,-1.675,-2.073,0
-0.712,-1.437,-3.428,0
-0.688,-1.22,-4.03,0
-0.373,-0.888,-3.577,0
0.369,-0.704,-1.904,0
0.842,-0.699,-1.009,0
1.159,-0.954,0.402,0
0.87,-1.385,1.066,0
0.477,-1.791,0.98,0
0.29,-1.923,0.446,0
0.139,-1.955,-0.516,0
0.1,-1.984,-1.107,0
0.102,-1.913,-1.765,0
0.135,-1.708,-2.012,0
0.262,-1.341,-2.016,0
0.411,-1.191,-1.987,0
0.487,-0.896,-1.854,0
0.589,-0.772,-1.93,0
0.49,-0.69,-2.067,0
0.391,-0.678,-1.985,0
0.211,-0.732,-1.917,0
0.133,-0.813,-2.011,0
-0.036,-0.874,-1.751,0
-0.012,-0.881,-1.321,0
-0.071,-0.871,-0.432,0
-0.232,-0.921,-0.03,0
-0.205,-0.83,0.189,0
-0.142,-0.573,0.473,0
-0.048,-0.411,0.725,0
0.018,-0.339,0.645,0
-0.089,-0.296,0.535,0
-0.121,-0.349,0.465,0
-0.147,-0.146,0.663,0
-0.198,0.012,0.821,0
-0.047,0.03,0.746,0
-0.021,0.097,0.809,0
0.03,0.124,1.196,0
0.181,0.235,1.699,0
0.393,0.436,2.189,0
0.44,0.663,2.049,0
0.064,1.14,1.316,0
0.224,1.144,0.581,0
1.171,0.857,-0.368,1
1.568,0.842,-0.077,0
1.386,0.603,1.402,0
0.994,0.169,2.862,0
0.06,-0.406,4.211,0
-0.492,-0.77,4.68,0
-0.531,-1.39,4.783,0
-0.342,-1.804,4.736,0
-0.148,-1.968,4.667,0
-0.071,-1.848,4.448,0
0.197,-1.467,3.208,0
0.381,-1.186,1.766,0
0.58,-1.012,0.035,0
0.772,-0.845,-1.012,0
0.851,-0.588,-1.888,0
0.926,-0.502,-2.267,0
1.04,-0.522,-2.424,0
1.022,-0.545,-2.122,0
0.988,-0.701,-1.335,0
0.843,-0.937,-0.943,0
0.583,-1.247,-0.394,0
0.503,-1.403,-0.088,0
0.43,-1.454,-0.155,0
0.334,-1.497,-0.411,0
0.334,-1.498,-0.411,0
0.41,-1.236,-1.082,0
0.741,-0.901,-1.545,0
0.917,-0.775,-1.969,0
1.011,-0.698,-2.298,0
0.83,-0.675,-2.317,0
0.679,-0.658,-1.943,0
0.618,-0.658,-1.581,0
0.459,-0.692,-1.12,0
0.304,-0.718,-0.942,0
0.196,-0.709,-0.925,0
0.243,-0.597,-0.989,0
0.498,-0.358,-1.093,0
0.637,-0.25,-1.276,0
0.755,-0.136,-1.576,0
0.751,-0.118,-1.648,0
0.952,-0.187,-1.501,0
0.943,-0.217,-0.536,0
0.867,-0.238,0.705,0
0.695,-0.34,1.173,0
0.194,-0.448,1.378,0
-0.034,-0.444,1.421,0
0.044,-0.34,0.923,0
0.082,-0.26,0.865,0
0.103,-0.284,0.876,0
0.645,0.054,1.101,0
0.826,0.279,1.712,0
1.175,0.293,2.096,0
0.874,0.702,2.744,0
0.371,0.937,2.713,1
0.373,0.909,2.725,0
-0.209,0.601,0.264,0
-0.115,0.637,-0.235,0
0.055,0.694,0.056,0
0.42,0.34,0.827,0
0.818,-0.161,1.878,0
1.226,-0.878,3.665,0
1.261,-1.445,5.111,0
0.964,-1.964,6.296,0
0.421,-2.038,6.201,0
-0.018,-2.041,3.935,0
0.076,-1.841,1.831,0
-0.038,-1.571,-0.487,0
-0.168,-1.366,-1.519,0
-0.335,-1.311,-1.927,0
-0.634,-1.223,-1.756,0
-0.791,-1.262,-0.904,0
-0.636,-1.383,-0.291,0
-0.384,-1.701,0.43,0
-0.26,-1.798,0.615,0
0.096,-1.822,0.571,0
0.366,-1.712,0.445,0
0.615,-1.621,-0.038,0
0.699,-1.487,-0.659,0
0.609,-1.417,-1.404,0
0.633,-1.371,-1.9,0
0.532,-1.131,-2.818,0
0.433,-1.122,-3.1,0
0.319,-1.022,-3.25,0
0.265,-0.857,-3.281,0
0.407,-0.816,-3.625,0
0.314,-0.661,-3.302,0
0.322,-0.486,-2.403,0
0.257,-0.443,-1.803,0
0.249,-0.419,-1.812,0
0.073,-0.422,-1.547,0
0.109,-0.359,-0.748,0
0.153,-0.214,-0.165,0
0.026,-0.198,0.143,0
-0.078,-0.19,0.135,0
-0.125,-0.264,0.15,0
-0.024,-0.292,0.483,0
0.113,-0.379,1.247,0
0.149,-0.413,1.784,0
-0.196,-0.481,2.822,0
-0.5,-0.574,3.239,0
-0.546,-0.455,2.968,0
-0.444,-0.337,2.234,0
-0.112,-0.113,1.396,0
0.241,0,1.035,0
0.244,-0.035,1.048,0
0.536,0.565,1.263,0
0.027,1.253,1.517,0
-0.156,1.409,1.315,1
0.08,1.184,0.666,0
0.373,1.085,0.058,0
0.624,0.726,0.008,0
0.739,0.145,0.76,0
0.46,-0.63,2.507,0
-0.125,-1.072,3.842,0
-0.896,-1.697,4.803,0
-1.185,-2.149,5.317,0
-1.569,-2.611,5.192,0
-1.776,-2.533,4.501,0
-1.223,-1.967,2.836,0
-0.325,-1.375,1.397,0
0.563,-0.694,-0.081,0
0.936,-0.498,-0.732,0
1.478,-0.27,-0.877,0
1.542,-0.194,-0.597,0
1.579,-0.276,0.148,0
1.619,-0.381,0.515,0
1.554,-0.59,1.008,0
1.431,-0.776,0.903,0
1.116,-1.021,0.223,0
0.882,-1.135,-0.405,0
0.812,-1.138,-1.009,0
0.896,-1.029,-1.361,0
1.179,-0.789,-1.953,0
1.283,-0.508,-2.367,0
1.181,-0.201,-2.738,0
0.996,-0.231,-2.776,0
1.014,-0.255,-2.766,0
-0.151,-0.439,-2.604,0
-0.601,-0.58,-2.292,0
-0.748,-0.742,-2.021,0
-0.766,-0.769,-1.816,0
-0.645,-0.711,-1.663,0
-0.279,-0.555,-1.425,0
-0.028,-0.493,-1.279,0
0.172,-0.47,-1.056,0
0.303,-0.489,-1.046,0
0.276,-0.518,-1.036,0
0.565,-0.532,-0.929,0
0.544,-0.556,-0.921,0
0.386,-0.937,-0.29,0
0.308,-0.977,0.339,0
0.23,-1.025,0.65,0
0.016,-0.942,0.753,0
0.132,-0.852,0.547,0
0.233,-0.642,0.203,0
0.237,-0.521,0.028,0
0.225,-0.558,0.043,0
0.344,-0.18,0.335,0
0.507,-0.062,1.416,0
0.683,-0.09,1.997,0
0.461,0.023,2.799,0
0.134,0.081,3.278,0
-0.003,0.56,2.505,0
0.057,0.848,1.021,0
0.38,0.919,-0.315,1
1.026,1.077,-0.868,0
0.965,1.194,-0.629,0
0.716,0.92,0.294,0
0.772,0.032,2.028,0
0.626,-0.559,3.071,0
0.215,-1.515,4.71,0
0.035,-1.973,5.568,0
-0.457,-2.323,6.084,0
-0.61,-2.184,5.119,0
-0.346,-1.642,2.149,0
-0.277,-1.253,0.068,0
-0.139,-0.885,-1.93,0
-0.224,-0.796,-2.899,0
-0.792,-0.743,-3.376,0
-0.914,-0.78,-2.911,0
-0.673,-0.919,-1.336,0
-0.358,-0.992,-0.215,0
0.007,-1.283,0.811,0
0.123,-1.556,1.418,0
0.047,-1.531,1.406,0
0.157,-1.74,1.208,0
0.073,-1.765,0.246,0
0.034,-1.734,-0.724,0
0.108,-1.598,-2.002,0
0.036,-1.461,-2.655,0
0.012,-1.186,-3.291,0
-0.027,-1.091,-3.407,0
-0.096,-0.846,-2.9,0
-0.11,-0.834,-2.904,0
-0.128,-0.451,-1.543,0
-0.278,-0.373,-1.413,0
-0.433,-0.315,-1.545,0
-0.411,-0.204,-1.674,0
-0.292,-0.122,-1.931,0
-0.216,-0.008,-1.706,0
-0.127,0.068,-1.009,0
-0.102,-0.013,-0.531,0
-0.205,-0.146,0.264,0
-0.354,-0.279,1.058,0
-0.294,-0.415,1.568,0
-0.566,-0.519,1.873,0
-0.677,-0.675,2.089,0
-0.746,-0.688,1.942,0
-0.873,-0.499,1.598,0
-0.649,-0.392,1.184,0
-0.343,-0.028,0.792,0
-0.162,0.239,0.475,0
0.099,0.411,0.139,0
0.109,0.514,0.237,0
0.097,0.585,0.998,0
-0.074,0.66,1.409,0
-0.408,1.042,1.51,0
-0.302,1.251,0.869,0
0.295,1.232,0.079,1
1,1.191,-0.32,0
1.544,1.163,0.143,0
1.456,0.826,1.521,0
1.446,0.876,1.502,0
0.82,-0.22,4.65,0
0.121,-1.118,6.057,0
-0.287,-1.739,6.644,0
-0.857,-2.14,6.76,0
-0.977,-2.145,5.852,0
-0.793,-1.926,3.47,0
-0.499,-1.526,1.591,0
0.085,-0.994,-0.761,0
0.81,-0.615,-2.342,0
1.456,-0.118,-3.502,0
1.616,-0.07,-3.49,0
1.802,-0.105,-2.552,0
1.546,-0.446,-1.653,0
1.044,-1.04,-0.533,0
0.705,-1.43,0.144,0
0.505,-1.791,0.535,0
0.216,-1.985,0.331,0
0.002,-2.036,-0.001,0
0.022,-1.974,-0.383,0
0.035,-1.983,-0.38,0
0.558,-1.302,-1.686,0
0.786,-0.981,-2.384,0
0.856,-0.837,-2.665,0
0.822,-0.812,-2.769,0
0.674,-0.752,-2.668,0
0.499,-0.748,-2.536,0
0.376,-0.77,-2.323,0
0.268,-0.692,-1.945,0
0.264,-0.613,-1.893,0
0.444,-0.404,-1.959,0
0.55,-0.272,-2.034,0
0.522,-0.213,-2.203,0
0.485,-0.079,-2.071,0
0.568,-0.052,-1.679,0
0.675,0.007,-1.363,0
0.631,0.063,-0.691,0
0.843,-0.044,0.075,0
0.821,0.046,1.053,0
0.674,0.135,1.418,0
0.389,0.181,1.78,0
0.255,0.177,1.78,0
0.065,0.257,1.534,0
-0.045,0.332,1.379,0
-0.064,0.416,1.374,0
-0.108,0.527,1.576,0
-0.474,0.93,2.067,0
-0.567,1.238,2.124,0
-0.137,1.538,1.353,0
0.077,1.639,0.785,0
0.556,1.751,0.335,1
1.243,1.6,0.481,0
1.752,0.63,2.252,0
2.133,-0.322,4.56,0
1.298,-1.661,7.776,0
0.549,-2.579,10.32,0
-0.577,-3.316,11.334,0
-0.971,-3.223,9.627,0
-0.784,-2.867,5.467,0
-0.749,-2.424,1.708,0
-0.465,-1.764,-2.418,0
-0.085,-1.347,-4.831,0
-0.145,-0.948,-6.267,0
-0.053,-0.969,-6.255,0
-0.206,-0.5,-4.5,0
0.035,-0.328,-2.813,0
0.224,-0.539,-0.484,0
0.137,-0.845,0.509,0
0.252,-1.005,0.568,0
0.363,-0.933,0.073,0
0.423,-1.089,-0.734,0
0.381,-1.225,-1.272,0
0.057,-1.259,-1.516,0
-0.228,-1.308,-1.64,0
-0.598,-1.351,-1.633,0
-0.711,-1.343,-1.66,0
-0.621,-1.106,-1.671,0
-0.468,-0.851,-1.731,0
-0.26,-0.629,-1.853,0
-0.144,-0.462,-1.894,0
-0.285,-0.372,-1.955,0
-0.408,-0.375,-1.868,0
-0.604,-0.431,-1.4,0
-0.784,-0.453,-1.186,0
-1.015,-0.58,-1.191,0
-1.174,-0.703,-1.062,0
-1.117,-0.77,-0.607,0
-1.016,-0.716,-0.183,0
-0.737,-0.665,0.087,0
-0.444,-0.543,0.302,0
-0.386,-0.491,0.706,0
-0.329,-0.425,0.978,0
-0.229,-0.335,1.044,0
-0.196,-0.287,0.811,0
-0.238,-0.171,0.462,0
-0.159,-0.188,0.139,0
-0.109,-0.088,0.353,0
0.104,-0.001,0.501,0
0.347,0.178,0.807,0
0.57,0.252,1.324,0
0.735,0.476,2.192,0
0.773,0.861,2.426,0
0.681,1.409,2.071,0
0.888,1.286,1.449,0
0.887,1.274,1.453,1
0.76,0.539,0.236,0
0.706,-0.156,0.896,0
0.547,-0.672,2.136,0
0.047,-1.061,3.672,0
-0.082,-1.228,4.079,0
-0.069,-1.237,4.003,0
0.104,-1.257,3.714,0
0.32,-1.161,2.534,0
0.208,-0.989,1.544,0
0.104,-0.922,0.783,0
0.063,-0.932,0.486,0
-0.066,-0.971,0.23,0
-0.035,-0.957,0.226,0
-0.006,-1.186,-0.363,0
0.193,-1.209,-0.343,0
0.613,-1.22,0.001,0
1.005,-1.101,0.157,0
1.19,-1.159,0.065,0
1.045,-1.244,-0.171,0
0.923,-1.333,-0.822,0
0.883,-1.225,-1.389,0
0.871,-1.038,-1.806,0
0.816,-0.929,-2.143,0
0.638,-0.735,-2.854,0
0.682,-0.752,-3.653,0
0.594,-0.616,-4.177,0
0.471,-0.409,-3.621,0
0.48,-0.274,-2.558,0
0.317,-0.258,-2.143,0
0.279,-0.169,-2.463,0
0.391,-0.027,-2.422,0
0.588,0.037,-1.57,0
0.533,0.045,-1.247,0
0.275,0.062,-0.317,0
0.056,-0.018,0.448,0
-0.075,-0.078,1.116,0
-0.229,-0.061,1.296,0
-0.169,-0.066,1.222,0
0.113,0.001,0.839,0
0.292,0.035,0.404,0
0.257,0.027,0.417,0
0.008,-0.005,0.631,0
-0.105,-0.026,0.82,0
-0.174,-0.017,1.067,0
-0.072,0.144,1.141,0
0.276,0.242,1.163,0
0.413,0.286,1.18,0
0.452,0.449,1.519,0
0.571,0.467,1.816,0
0.741,0.445,1.911,0
0.521,0.541,1.809,0
-0.054,0.925,1.507,1
0.029,1.188,1.165,0
0.549,1.297,0.572,0
0.895,1.346,-0.14,0
1.243,1.192,-0.284,0
1.248,0.987,0.326,0
0.802,0.238,1.759,0
0.52,-0.474,2.877,0
-0.107,-1.368,4.461,0
-0.53,-1.973,5.374,0
-0.932,-2.298,5.687,0
-0.937,-2.255,5.672,0
-0.652,-1.591,2.246,0
-0.309,-1.17,0.181,0
-0.096,-0.727,-1.783,0
-0.042,-0.639,-2.643,0
-0.288,-0.637,-2.637,0
-0.447,-0.69,-2.077,0
-0.436,-0.955,-0.709,0
-0.243,-1.152,0.037,0
-0.004,-1.439,0.536,0
0.059,-1.618,0.773,0
0.213,-1.762,0.801,0
0.267,-1.73,0.548,0
0.339,-1.647,-0.098,0
0.271,-1.653,-0.804,0
0.149,-1.614,-1.617,0
0.021,-1.514,-2,0
-0.33,-1.435,-2.179,0
-0.3,-1.218,-2.494,0
-0.102,-0.837,-2.779,0
-0.011,-0.646,-2.773,0
0.224,-0.418,-2.694,0
0.412,-0.229,-2.497,0
0.352,-0.241,-2.368,0
0.244,-0.248,-2.232,0
-0.011,-0.385,-1.726,0
-0.132,-0.435,-1.059,0
-0.28,-0.41,-0.334,0
-0.337,-0.406,-0.052,0
-0.518,-0.438,0.343,0
-0.615,-0.357,0.438,0
-0.536,-0.395,0.178,0
-0.42,-0.381,0.076,0
-0.447,-0.427,0.715,0
-0.303,-0.433,1.264,0
-0.282,-0.418,1.469,0
-0.122,-0.361,1.387,0
0.099,-0.265,1.407,0
0.302,-0.154,1.537,0
0.55,-0.044,1.836,0
0.694,-0.089,2.362,0
0.814,0.41,2.768,0
0.39,0.938,2.336,0
0.212,1.247,0.856,0
0.807,1.272,-0.337,0
1.29,1.408,-1.32,1
1.386,1.198,-1.213,0
1.41,0.521,0.423,0
0.938,0.089,1.996,0
0.359,-0.686,4.02,0
0.297,-1.033,5.162,0
0.231,-1.425,6.514,0
0.21,-1.645,7.065,0
0.028,-1.649,5.96,0
-0.125,-1.538,3.962,0
0.05,-1.347,1.963,0
0.143,-1.366,1.969,0
0.542,-1.143,-1.208,0
0.738,-1.014,-2.198,0
1.167,-0.807,-2.449,0
1.455,-0.677,-1.97,0
1.742,-0.672,-0.775,0
1.696,-0.787,-0.171,0
1.344,-1.136,0.089,0
1.028,-1.344,0.052,0
0.614,-1.559,-0.177,0
0.445,-1.588,-0.494,0
0.539,-1.588,-1.134,0
0.641,-1.452,-1.798,0
0.808,-1.041,-2.705,0
1.036,-0.831,-3.152,0
1.289,-0.413,-3.161,0
1.433,-0.174,-3.171,0
1.305,-0.032,-3.235,0
1.041,-0.004,-3.036,0
0.612,-0.114,-2.48,0
0.437,-0.146,-2.085,0
0.349,-0.148,-1.645,0
0.335,-0.156,-1.414,0
0.367,-0.135,-1.184,0
0.497,0.011,-0.955,0
1.052,0.31,-0.454,0
1.382,0.4,-0.157,0
1.357,0.386,-0.152,0
1.452,0.384,0.641,0
1.44,0.375,0.644,0
0.849,-0.091,1.686,0
0.855,-0.1,1.69,0
0.212,-0.355,1.393,0
0.163,-0.259,1.123,0
0.329,-0.156,0.884,0
0.36,0.019,0.892,0
0.451,0.199,1.245,0
0.653,0.238,1.906,0
0.683,0.233,2.376,0
0.25,0.314,2.402,0
-0.241,0.516,1.96,0
-0.532,0.847,0.366,0
-0.305,0.886,-0.635,1
0.769,1.075,-1.416,0
1.791,1.187,-1.249,0
2.366,0.9,0.978,0
2.331,0.433,2.636,0
2.216,-0.355,5.162,0
1.652,-1.136,6.466,0
0.436,-2.071,7.141,0
-0.223,-2.281,6.532,0
-0.764,-2.505,4.24,0
-0.731,-2.254,1.914,0
-0.488,-1.655,-1.025,0
0.025,-1.253,-2.659,0
0.479,-0.801,-3.703,0
0.516,-0.812,-3.696,0
0.593,-0.704,-2.662,0
0.667,-0.785,-1.858,0
0.454,-1.139,-0.57,0
0.341,-1.452,-0.038,0
0.203,-1.704,0.052,0
0.12,-1.737,-0.253,0
0.308,-1.578,-0.716,0
0.495,-1.403,-1.069,0
0.536,-1.08,-1.515,0
0.46,-0.881,-1.809,0
0.321,-0.634,-2.087,0
0.283,-0.462,-2.124,0
0.333,-0.285,-1.907,0
0.342,-0.245,-1.686,0
0.371,-0.186,-1.667,0
0.404,-0.135,-1.624,0
0.391,-0.142,-1.622,0
0.357,-0.284,-1.355,0
0.502,-0.179,-1.296,0
0.594,-0.146,-1.193,0
0.768,-0.145,-0.845,0
0.829,-0.16,-0.677,0
0.849,-0.274,-0.522,0
0.83,-0.361,-0.344,0
0.767,-0.447,-0.06,0
0.752,-0.452,0.217,0
0.752,-0.451,0.216,0
0.574,-0.494,0.825,0
0.306,-0.484,0.821,0
0.088,-0.37,0.692,0
-0.096,-0.26,0.392,0
-0.126,-0.115,0.288,0
0.124,-0.011,0.415,0
0.501,0.022,0.622,0
0.814,0.079,1.52,0
0.88,0.099,2.463,0
0.433,0.518,2.456,0
0.232,0.661,1.572,0
0.556,0.5,0.453,0
0.839,0.409,0.356,0
0.959,0.269,1.138,1
0.941,-0.077,2.357,0
0.656,-0.337,3.728,0
0.554,-0.417,4.199,0
0.715,-0.734,4.73,0
0.968,-0.949,5.058,0
0.992,-1.037,5.104,0
0.95,-0.959,4.528,0
0.94,-0.799,2.745,0
0.996,-0.693,1.118,0
1.035,-0.646,-0.571,0
1.063,-0.563,-1.494,0
1.185,-0.562,-1.966,0
1.272,-0.597,-1.898,0
1.313,-0.747,-1.279,0
1.308,-0.935,-0.761,0
1.257,-1.295,-0.204,0
1.215,-1.508,0.178,0
1.017,-1.695,0.595,0
0.841,-1.764,0.558,0
0.619,-1.82,-0.071,0
0.676,-1.568,-0.805,0
0.961,-1.197,-1.781,0
1.145,-0.933,-2.562,0
1.247,-0.585,-3.316,0
1.189,-0.41,-3.322,0
1.22,-0.276,-2.88,0
1.12,-0.153,-2.266,0
1.009,0.009,-1.264,0
0.909,0.063,-0.549,0
0.76,0.119,-0.231,0
0.747,0.175,-0.427,0
0.813,0.227,-0.905,0
0.863,0.243,-1.015,0
1.075,0.273,-0.904,0
1.124,0.233,-0.51,0
1.184,0.244,0.157,0
1.301,0.256,0.538,0
1.446,0.254,0.847,0
1.354,0.182,1.021,0
1.346,0.179,1.022,0
1.025,0.021,1.174,0
0.913,0.133,1.245,0
0.851,0.175,0.802,0
0.817,0.248,0.132,0
0.871,0.341,-0.221,0
1.043,0.477,0.095,0
1.087,0.506,1.026,0
0.854,0.427,2.229,0
0.842,0.276,2.625,0
0.681,0.145,2.624,0
0.393,0.38,2.389,0
0.065,0.653,1.294,1
0.074,0.68,0.318,0
0.492,0.827,-0.544,0
0.732,0.92,-0.799,0
1.019,0.875,-0.291,0
1.065,0.746,0.979,0
1.047,0.417,2.503,0
1.005,-0.061,3.461,0
0.914,-0.752,4.412,0
0.445,-1.007,4.425,0
-0.066,-1.186,3.578,0
-0.148,-1.186,2.177,0
0.028,-0.897,0.261,0
0.191,-0.716,-1.105,0
0.195,-0.681,-2.231,0
0.153,-0.769,-2.525,0
0.183,-0.915,-1.813,0
0.284,-1.095,-0.978,0
0.392,-1.437,0.32,0
0.463,-1.631,1.029,0
0.335,-1.997,1.541,0
0.11,-2.162,1.552,0
-0.043,-2.082,0.989,0
0.023,-1.98,0.131,0
0.301,-1.672,-1.174,0
0.446,-1.448,-2.154,0
0.46,-1.217,-3.236,0
0.515,-1.004,-3.513,0
0.57,-0.785,-3.406,0
0.53,-0.629,-3.178,0
0.332,-0.551,-2.867,0
0.221,-0.569,-2.762,0
0.225,-0.493,-2.802,0
0.394,-0.256,-2.391,0
0.636,-0.055,-1.526,0
0.64,0.025,-1.267,0
0.556,0.158,-0.863,0
0.476,0.158,-0.39,0
0.332,0.196,0.067,0
0.121,0.144,0.276,0
0.065,0.15,0.366,0
0.212,0.218,0.341,0
0.332,0.231,0.482,0
0.405,0.174,0.52,0
0.347,0.031,0.587,0
0.329,-0.046,0.737,0
0.12,-0.085,1.22,0
0.062,-0.029,1.543,0
0.115,0.15,1.855,0
0.217,0.35,2.027,0
0.322,0.579,1.92,0
0.343,0.776,1.862,0
0.234,0.96,1.424,0
-0.054,1.096,0.896,0
-0.047,1.059,0.911,1
0.047,1.136,-0.586,0
0.729,1.011,-0.574,0
1.186,0.933,0.236,0
1.281,0.657,2.186,0
0.966,0.415,3.411,0
0.681,0.034,4.45,0
0.633,-0.174,4.318,0
0.693,-0.621,3.716,0
0.872,-0.837,3.617,0
0.782,-0.933,3.681,0
0.799,-0.913,3.674,0
0.544,-0.944,2.08,0
0.728,-0.724,0.683,0
0.879,-0.58,-0.713,0
0.961,-0.562,-1.37,0
1.16,-0.497,-1.675,0
1.083,-0.428,-1.393,0
1.029,-0.53,-0.455,0
0.985,-0.741,0.021,0
0.91,-0.893,0.186,0
0.996,-0.897,0.153,0
1.073,-0.856,-0.162,0
1.058,-0.808,-0.527,0
1.104,-0.633,-1.094,0
1.141,-0.501,-1.512,0
1.142,-0.399,-2.09,0
1.007,-0.326,-2.176,0
0.847,-0.347,-1.974,0
0.698,-0.396,-1.63,0
0.703,-0.408,-1.625,0
0.73,-0.022,-1.09,0
1.024,0.211,-1.448,0
1.134,0.385,-2,0
1.35,0.57,-2.6,0
1.38,0.566,-2.682,0
1.413,0.524,-2.514,0
1.267,0.418,-2.174,0
1.207,0.336,-1.549,0
1.27,0.31,-1.244,0
1.264,0.308,-1.244,0
1.264,0.381,-0.834,0
1.538,0.405,0.09,0
1.508,0.409,0.285,0
1.388,0.401,0.483,0
1.191,0.371,0.506,0
0.703,0.379,0.481,0
0.521,0.389,0.33,0
0.45,0.449,0.285,0
0.516,0.497,0.334,0
0.698,0.635,0.665,0
0.799,0.637,1.251,0
0.741,0.303,2.184,0
0.725,0.132,2.838,0
0.422,0.233,3.596,0
0.427,0.22,3.602,1
-0.073,0.688,1.833,0
-0.045,0.691,0.281,0
0.502,0.768,-1.012,0
0.882,0.846,-1.376,0
0.899,0.764,-0.477,0
0.976,0.378,0.948,0
1.111,-0.448,2.645,0
1.075,-0.988,3.838,0
0.654,-1.475,4.799,0
0.308,-1.561,4.464,0
0.021,-1.533,2.681,0
0.03,-1.433,1.276,0
0.413,-0.977,-0.005,0
0.321,-0.81,-0.509,0
-0.164,-0.919,-0.65,0
-0.272,-1.037,-0.587,0
-0.287,-1.309,-0.309,0
-0.239,-1.508,0.033,0
-0.015,-1.52,0.345,0
0.232,-1.385,0.33,0
0.442,-1.291,0.079,0
0.427,-1.274,0.071,0
0.471,-1.112,-0.979,0
0.408,-1.013,-1.44,0
0.581,-0.787,-1.805,0
0.54,-0.774,-2.083,0
0.292,-0.741,-2.171,0
0.177,-0.717,-2.043,0
0.139,-0.621,-2.005,0
0.133,-0.44,-1.944,0
0.318,-0.243,-1.924,0
0.461,-0.026,-2.08,0
0.462,0.228,-2.421,0
0.434,0.24,-2.55,0
0.527,0.36,-2.457,0
0.642,0.447,-2.238,0
0.643,0.488,-1.95,0
0.403,0.392,-1.524,0
0.034,0.09,-0.961,0
-0.094,0.069,-0.385,0
-0.133,0.11,0.373,0
-0.19,0.017,0.733,0
-0.23,-0.04,0.838,0
-0.183,-0.019,0.782,0
-0.032,0.052,0.967,0
0.18,0.265,1.258,0
0.302,0.304,1.485,0
0.174,0.279,1.44,0
0.185,0.269,1.445,0
0.057,0.275,1.462,0
0.144,0.562,1.621,0
0.073,1.048,1.719,0
-0.035,1.644,1.159,0
0.475,1.753,0.69,0
1.265,1.576,0.419,0
1.507,1.411,0.68,0
1.413,0.782,1.886,1
1.019,0.214,3.208,0
0.142,-0.382,4.645,0
-0.098,-0.517,4.93,0
-0.294,-0.879,4.687,0
0.102,-0.96,4.303,0
0.472,-0.732,3.174,0
0.667,-0.461,2.081,0
0.847,-0.212,0.585,0
0.817,-0.235,-0.324,0
0.766,-0.308,-1.133,0
0.797,-0.36,-1.44,0
0.851,-0.405,-1.016,0
0.918,-0.518,-0.318,0
0.927,-0.498,-0.325,0
1.13,-0.79,0.194,0
1.26,-0.917,-0.157,0
1.316,-0.916,-0.391,0
1.324,-0.912,-0.392,0
1.314,-0.909,-0.883,0
1.284,-0.765,-1.205,0
1.31,-0.679,-1.538,0
1.302,-0.582,-2.029,0
1.187,-0.508,-2.185,0
0.958,-0.419,-2.131,0
0.9,-0.5,-2.172,0
0.823,-0.418,-2.238,0
0.778,-0.242,-2.146,0
0.94,-0.002,-1.968,0
0.908,0.125,-1.974,0
0.793,0.192,-2.048,0
0.873,0.288,-2.168,0
0.981,0.47,-2.06,0
0.936,0.492,-1.638,0
0.871,0.441,-0.925,0
0.69,0.346,-0.661,0
0.722,0.398,-0.093,0
0.769,0.439,0.468,0
0.924,0.528,0.78,0
0.971,0.559,0.633,0
0.911,0.457,0.559,0
0.817,0.429,0.707,0
0.82,0.42,0.71,0
0.431,0.39,1.195,0
0.395,0.492,1.038,0
0.45,0.635,0.779,0
0.605,0.815,0.527,0
0.697,0.893,0.478,0
0.766,1.034,0.713,0
0.861,1.05,1.275,0
0.758,1.061,2.067,0
0.752,1.046,2.072,0
0.238,1.53,2.253,1
0.002,1.362,1.07,0
-0.002,1.034,-0.01,0
0.256,0.885,-0.374,0
0.502,0.49,0.531,0
0.73,0.145,2.108,0
0.789,-0.211,4.028,0
0.586,-0.73,4.899,0
0.253,-1.203,5.188,0
0.009,-1.378,4.417,0
0,-1.171,2.222,0
0.18,-0.957,0.441,0
0.161,-0.758,-1.378,0
0.299,-0.488,-2.125,0
0.494,-0.299,-2.434,0
0.502,-0.192,-2.238,0
0.447,-0.211,-1.602,0
0.497,-0.323,-0.929,0
0.494,-0.5,-0.196,0
0.535,-0.654,0.121,0
0.553,-0.86,0.256,0
0.532,-0.885,0.311,0
0.626,-0.894,0.333,0
0.651,-0.89,-0.007,0
0.51,-0.917,-0.786,0
0.373,-0.893,-1.031,0
0.345,-0.743,-1.213,0
0.485,-0.531,-1.319,0
0.496,-0.543,-1.314,0
0.801,-0.119,-1.72,0
0.765,0.008,-2.049,0
0.782,0.1,-2.044,0
0.928,0.204,-2.123,0
0.901,0.255,-2.294,0
0.708,0.188,-2.523,0
0.508,0.087,-2.619,0
0.428,0.009,-2.5,0
0.401,0.007,-2.098,0
0.407,-0.002,-1.202,0
0.478,0.002,-0.709,0
0.429,0.074,-0.196,0
0.366,0.038,-0.084,0
0.226,-0.08,0.165,0
0.273,0.02,0.37,0
0.244,0.024,0.667,0
0.218,0.043,0.791,0
0.219,0.031,0.796,0
0.342,0.086,0.808,0
0.407,0.252,0.809,0
0.575,0.279,0.993,0
0.59,0.331,1.526,0
0.386,0.593,1.727,0
-0.059,1.179,1.379,0
0.216,1.366,0.696,0
1.031,1.512,-0.155,0
1.616,1.533,-0.24,1
2.262,1.391,0.606,0
2.119,1.134,1.757,0
2.097,1.159,1.746,0
1.287,0.083,3.769,0
0.982,-0.546,4.233,0
0.806,-0.912,4.577,0
0.467,-1.108,4.993,0
0.316,-1.069,4.801,0
0.474,-0.832,3.228,0
0.774,-0.487,1.326,0
1.08,-0.306,-0.695,0
1.384,-0.295,-1.987,0
1.36,-0.273,-3.14,0
1.351,-0.359,-3.14,0
1.256,-0.631,-2.084,0
1.14,-0.837,-0.873,0
1.171,-1.025,0.327,0
0.924,-1.211,0.993,0
0.521,-1.367,0.984,0
0.342,-1.384,0.466,0
0.176,-1.361,-0.827,0
0.326,-1.104,-1.867,0
0.644,-0.697,-2.786,0
0.843,-0.424,-3.369,0
0.828,-0.277,-3.617,0
0.778,-0.209,-3.446,0
0.687,-0.114,-2.951,0
0.587,-0.13,-2.522,0
0.587,-0.044,-1.712,0
0.629,0.081,-1.235,0
0.548,0.169,-1.018,0
0.471,0.139,-1.043,0
0.485,0.144,-1.181,0
0.567,0.198,-1.262,0
0.55,0.192,-1.261,0
0.811,0.275,-0.572,0
0.745,0.236,0.179,0
0.668,0.174,0.449,0
0.677,0.199,0.44,0
0.69,0.144,0.905,0
0.704,0.227,0.827,0
0.576,0.247,0.814,0
0.577,0.24,0.817,0
0.574,0.53,1.098,0
0.627,0.597,1.236,0
0.697,0.669,1.458,0
1.021,0.829,2.065,0
1.29,0.864,2.301,0
1.164,0.989,2.474,0
0.804,1.19,2.4,0
0.804,1.166,2.408,1
0.202,1.69,0.789,0
0.236,1.723,-0.236,0
0.34,1.63,-0.659,0
0.382,1.36,-0.981,0
0.536,0.884,-0.256,0
1.388,0.143,2.244,0
1.562,-0.383,4.125,0
1.486,-1.184,7.324,0
0.795,-1.64,8.776,0
0.186,-1.808,7.889,0
-0.065,-1.633,4.935,0
-0.108,-1.161,1.08,0
0.067,-0.783,-1.398,0
0.351,-0.388,-3.616,0
0.371,-0.178,-4.46,0
0.83,-0.004,-4.034,0
1.362,0.09,-2.791,0
1.532,-0.124,-0.909,0
1.31,-0.58,0.005,0
0.919,-1.152,0.54,0
0.623,-1.364,0.307,0
0.501,-1.404,-0.521,0
0.481,-1.467,-1.12,0
0.485,-1.273,-1.887,0
0.345,-1.205,-2.337,0
0.031,-1.159,-2.59,0
-0.119,-1.006,-2.557,0
-0.121,-1.009,-2.556,0
-0.156,-0.658,-2.369,0
-0.186,-0.528,-1.992,0
-0.115,-0.366,-1.81,0
-0.108,-0.354,-1.814,0
0.092,-0.024,-1.107,0
0.21,0.134,-0.993,0
0.24,0.176,-1.106,0
0.311,0.268,-1.407,0
0.344,0.353,-1.549,0
0.352,0.351,-1.548,0
0.164,0.24,-1.305,0
-0.147,0.177,-0.476,0
-0.279,0.176,-0.088,0
-0.279,0.166,-0.067,0
-0.307,0.171,-0.022,0
-0.32,0.106,0.534,0
-0.207,0.156,0.8,0
-0.047,0.263,0.593,0
-0.086,0.398,0.523,0
0.204,0.454,0.536,0
0.479,0.505,0.713,0
0.564,0.512,1.242,0
0.469,0.493,1.702,0
0.351,0.404,2.293,0
0.404,0.505,2.717,0
0.228,0.96,2.478,0
-0.107,1.322,1.472,0
0.013,1.318,-0.075,1
0.442,1.19,-0.64,0
1.082,1.193,-0.409,0
1.243,0.968,0.52,0
0.967,0.635,2.409,0
0.457,0.472,3.594,0
0.305,0.066,3.924,0
0.24,-0.213,3.547,0
0.261,-0.584,3.315,0
0.332,-0.633,3.384,0
0.214,-0.661,3.185,0
0.167,-0.66,2.512,0
0.264,-0.629,1.101,0
0.411,-0.567,0.063,0
0.429,-0.683,-1.117,0
0.379,-0.681,-1.564,0
0.473,-0.754,-1.63,0
0.56,-0.859,-1.396,0
0.546,-1.024,-0.909,0
0.581,-1.086,-0.602,0
0.606,-1.113,-0.204,0
0.526,-1.079,-0.039,0
0.232,-1.076,-0.254,0
0.008,-1.106,-0.641,0
0.115,-0.828,-1.654,0
0.237,-0.542,-2.269,0
0.441,-0.228,-3.046,0
0.247,-0.187,-3.405,0
0.142,-0.061,-3.387,0
0.096,-0.111,-3.068,0
0.167,0.017,-2.57,0
0.236,0.131,-1.974,0
0.226,0.139,-1.977,0
0.454,0.363,-1.225,0
0.553,0.409,-1.206,0
0.481,0.377,-1.075,0
0.303,0.275,-0.917,0
0.182,0.202,-0.884,0
0.213,0.279,-0.582,0
0.265,0.293,-0.392,0
0.343,0.322,-0.251,0
0.418,0.392,-0.034,0
0.589,0.45,0.434,0
0.544,0.522,0.835,0
0.539,0.513,0.838,0
0.191,0.548,1.333,0
-0.134,0.504,1.485,0
-0.069,0.535,1.537,0
0.033,0.619,1.508,0
0.002,0.651,1.563,0
0.313,0.585,1.574,0
0.524,0.574,1.689,0
0.514,0.794,2.081,0
0.125,1.156,2.205,0
-0.086,1.469,1.229,1
0.003,1.471,0.019,0
0.219,1.332,-0.943,0
0.513,1.206,-1.027,0
0.515,1.201,-1.025,0
0.32,0.203,1.342,0
0.331,-0.641,3.288,0
0.312,-0.588,3.267,0
-0.74,-1.756,5.066,0
-1.043,-1.775,4.451,0
-1.188,-1.541,1.745,0
-1.016,-1.194,-0.228,0
-0.489,-0.634,-2.215,0
-0.1,-0.303,-2.859,0
0.137,-0.026,-2.54,0
0.257,0.056,-1.532,0
0.329,-0.137,-0.04,0
0.402,-0.393,0.661,0
0.331,-0.854,1.445,0
0.22,-1.127,1.648,0
0.093,-1.277,1.488,0
0.094,-1.382,1.122,0
0.438,-1.119,0.329,0
0.772,-0.827,-0.35,0
1.081,-0.468,-1.38,0
1.234,-0.253,-2.141,0
1.167,-0.123,-2.852,0
1.19,-0.006,-3.31,0
1.008,0.084,-3.5,0
0.774,0.013,-3.127,0
0.534,0.045,-2.464,0
0.47,0.079,-2.15,0
0.436,0.226,-1.527,0
0.447,0.285,-1.375,0
0.334,0.271,-1.521,0
0.23,0.235,-1.525,0
0.185,0.185,-1.297,0
0.046,0.128,-0.834,0
-0.079,0.01,-0.021,0
-0.126,-0.011,0.358,0
-0.112,0.023,0.814,0
-0.241,-0.041,1.074,0
-0.266,-0.002,1.563,0
-0.369,-0.006,1.286,0
-0.392,0.01,0.428,0
-0.378,-0.075,-0.284,0
-0.245,0.005,-0.596,0
0.044,0.167,-0.427,0
0.352,0.244,0.27,0
0.41,0.177,0.896,0
0.728,0.505,1.837,0
1.036,0.791,2.266,0
0.787,1.235,2.053,0
0.44,1.576,1.105,0
0.412,1.514,-0.33,0
0.636,1.196,-1.143,0
0.977,0.863,-0.47,1
1.163,0.675,0.566,0
0.733,0.603,1.987,0
0.192,0.404,2.328,0
0.254,0.132,2.523,0
0.449,-0.036,2.219,0
0.533,-0.208,2.123,0
0.685,-0.289,2.215,0
0.45,-0.435,2.035,0
0.216,-0.484,1.584,0
0.163,-0.543,0.672,0
0.318,-0.488,-0.106,0
0.402,-0.542,-0.834,0
0.363,-0.629,-0.922,0
0.355,-0.844,-0.541,0
0.414,-1.067,-0.045,0
0.378,-1.262,0.632,0
0.428,-1.304,0.96,0
0.487,-1.378,0.867,0
0.547,-1.28,0.392,0
0.755,-0.946,-0.677,0
1.03,-0.738,-1.386,0
1.295,-0.26,-2.282,0
1.266,-0.111,-2.546,0
1.288,0.071,-2.492,0
1.179,0.142,-2.252,0
0.88,0.222,-1.912,0
0.693,0.267,-1.928,0
0.466,0.251,-2.02,0
0.55,0.42,-1.966,0
0.675,0.58,-1.717,0
0.841,0.715,-1.477,0
0.838,0.722,-1.48,0
0.72,0.756,-1.075,0
0.708,0.68,-0.899,0
0.623,0.612,-0.654,0
0.543,0.525,-0.196,0
0.508,0.481,0.173,0
0.375,0.398,0.744,0
0.272,0.306,0.924,0
0.271,0.307,0.945,0
0.278,0.373,0.88,0
0.37,0.477,0.561,0
0.38,0.582,0.406,0
0.648,0.682,0.584,0
0.86,0.704,0.973,0
0.941,0.784,1.634,0
0.827,0.707,2.175,0
0.894,0.788,2.88,0
0.966,0.75,3.287,0
0.306,0.909,3.278,0
-0.242,1.333,2.408,1
-0.815,1.578,0.471,0
-0.448,1.651,-1.147,0
0.521,1.517,-2.338,0
1.234,1.32,-1.982,0
2.166,1.252,0.234,0
2.133,0.842,2.105,0
2.039,-0.298,4.901,0
1.538,-0.792,5.896,0
0.37,-1.153,5.554,0
-0.209,-1.348,3.992,0
-0.249,-1.119,1.719,0
-0.063,-0.767,-0.237,0
-0.344,-0.626,-2.087,0
-0.502,-0.674,-2.426,0
-0.383,-0.755,-1.541,0
-0.121,-0.817,-0.441,0
0.509,-0.865,0.78,0
0.69,-0.998,1.546,0
0.724,-1.309,2.032,0
0.644,-1.428,1.783,0
0.402,-1.54,0.528,0
0.347,-1.502,-0.421,0
0.686,-1.148,-1.809,0
0.839,-0.792,-2.622,0
0.609,-0.751,-3.13,0
0.595,-0.691,-2.971,0
0.523,-0.425,-2.474,0
0.515,-0.369,-2.297,0
0.489,-0.211,-2.137,0
0.39,-0.157,-2.132,0
0.248,-0.164,-2.372,0
0.252,-0.118,-2.509,0
0.365,0.058,-2.418,0
0.339,0.062,-2.235,0
0.246,0.066,-1.958,0
0.243,0.064,-1.695,0
0.19,0.05,-1.22,0
0.127,-0.02,-0.969,0
0.201,-0.029,-0.535,0
0.244,-0.033,-0.323,0
0.374,-0.05,-0.147,0
0.508,-0.061,0.018,0
0.57,-0.103,0.044,0
0.595,-0.136,0.091,0
0.344,-0.184,0.871,0
0.327,-0.322,1.22,0
0.322,-0.335,1.225,0
0.491,-0.158,1.318,0
0.723,-0.19,1.646,0
0.766,-0.161,1.777,0
0.899,-0.03,1.971,0
0.875,0.108,2.219,0
0.182,0.818,1.845,0
-0.007,1.085,0.9,0
0.679,0.909,0.108,0
1.212,1.058,-0.294,0
1.522,1.314,0.084,1
1.489,1.442,0.733,0
1.234,1.326,1.416,0
1.234,0.811,1.561,0
1.449,-0.036,1.979,0
1.501,-0.555,2.663,0
1.188,-0.921,3.713,0
0.999,-0.947,3.975,0
0.716,-0.972,3.162,0
0.746,-0.837,1.864,0
0.849,-0.518,-0.379,0
0.849,-0.369,-1.287,0
0.671,-0.083,-2.17,0
0.652,-0.151,-2.27,0
0.606,-0.408,-1.796,0
0.554,-0.509,-1.156,0
0.604,-0.729,0.07,0
0.611,-0.807,0.457,0
0.619,-0.766,0.487,0
0.667,-0.686,0.148,0
0.856,-0.449,-0.792,0
0.996,-0.213,-1.423,0
0.992,0.019,-2.053,0
0.897,0.076,-2.11,0
0.612,0.023,-1.733,0
0.404,0.037,-1.502,0
0.064,0.101,-1.364,0
-0.059,0.091,-1.497,0
-0.059,0.201,-1.712,0
0.089,0.347,-1.786,0
0.505,0.589,-1.765,0
0.705,0.689,-1.541,0
1.013,0.732,-0.95,0
0.99,0.664,-0.573,0
0.74,0.482,0.194,0
0.733,0.376,0.407,0
0.764,0.347,0.4,0
0.737,0.307,0.377,0
0.64,0.217,0.199,0
0.499,0.25,0.071,0
0.41,0.408,-0.241,0
0.495,0.492,-0.452,0
0.603,0.519,-0.339,0
0.778,0.487,-0.079,0
1.261,0.672,0.777,0
1.607,0.835,1.518,0
2.225,1.027,3.173,0
2.216,1.094,4.036,0
1.196,1.002,4.526,0
0.195,1.149,3.686,0
-0.452,1.641,1.486,1
-0.154,1.742,-0.129,0
0.307,1.782,-1.901,0
0.385,1.766,-2.134,0
0.766,1.486,-0.834,0
1.214,0.982,0.862,0
1.592,-0.282,3.831,0
1.384,-1.073,6.001,0
0.556,-1.821,8.01,0
-0.023,-2.062,7.716,0
-0.332,-2.029,4.206,0
-0.124,-1.776,1.816,0
0.102,-1.135,-1.651,0
0.087,-0.912,-2.816,0
0.299,-0.654,-3.565,0
0.489,-0.528,-3.119,0
0.981,-0.61,-0.768,0
1.242,-0.755,0.243,0
1.422,-0.961,1.358,0
1.393,-1.103,1.463,0
1.217,-1.199,0.652,0
1.109,-1.142,-0.328,0
1.023,-1.045,-1.591,0
0.979,-0.92,-2.048,0
0.99,-0.566,-2.622,0
0.909,-0.469,-2.75,0
0.703,-0.305,-2.843,0
0.55,-0.264,-2.859,0
0.444,-0.21,-2.937,0
0.422,-0.181,-2.967,0
0.404,-0.202,-2.729,0
0.422,-0.18,-2.407,0
0.506,-0.089,-1.857,0
0.587,-0.021,-1.685,0
0.668,0.098,-1.602,0
0.67,0.137,-1.632,0
0.503,0.066,-1.35,0
0.354,0.043,-1.024,0
0.126,0.061,-0.458,0
0.02,-0.006,-0.101,0
-0.019,-0.027,0.285,0
0.04,-0.017,0.395,0
0.275,0.117,0.707,0
0.485,0.262,0.884,0
0.588,0.414,0.585,0
0.605,0.429,0.324,0
0.732,0.553,0.212,0
0.958,0.642,0.243,0
0.983,0.636,0.452,0
0.868,0.62,0.637,0
0.695,0.453,1.095,0
0.622,0.312,1.597,0
0.274,0.419,2.381,0
-0.108,0.832,2.446,0
-0.092,1.216,1.632,0
0.425,1.02,1.071,1
0.426,1.012,1.075,0
1.574,1.002,1.632,0
1.493,0.765,3.1,0
1.139,0.632,3.651,0
0.94,0.117,3.721,0
1.135,-0.36,3.601,0
1.219,-0.723,3.721,0
1.044,-0.775,3.83,0
0.558,-0.849,3.442,0
0.31,-0.88,2.493,0
0.297,-0.723,0.345,0
0.371,-0.626,-0.664,0
0.552,-0.396,-1.94,0
0.699,-0.167,-2.424,0
0.955,-0.043,-2.535,0
1.084,-0.048,-2.391,0
1.048,-0.302,-1.832,0
0.933,-0.55,-1.293,0
0.882,-0.907,-0.4,0
0.719,-1.109,-0.002,0
0.307,-1.357,0.406,0
0.269,-1.339,0.391,0
0.548,-1.092,-0.309,0
0.801,-0.856,-1.018,0
1.291,-0.615,-1.889,0
1.388,-0.443,-1.82,0
1.355,-0.242,-1.521,0
1.281,-0.148,-1.437,0
1.083,-0.094,-1.441,0
0.88,-0.117,-1.504,0
0.622,-0.159,-1.405,0
0.433,-0.271,-1.344,0
0.526,-0.177,-1.523,0
0.647,-0.086,-1.276,0
0.933,0.033,-0.72,0
0.969,0.095,-0.349,0
1.077,0.172,-0.059,0
1.178,0.245,0.205,0
1.261,0.211,0.173,0
1.303,0.194,0.005,0
1.055,0.051,0.063,0
0.886,-0.062,0.282,0
0.633,0.05,0.648,0
0.568,0.082,0.889,0
0.48,0.047,0.93,0
0.452,0.121,0.942,0
0.804,0.237,1.022,0
0.826,0.289,1.311,0
0.752,0.486,1.923,0
0.686,0.475,2.412,0
0.378,0.677,2.806,0
-0.072,0.871,2.273,1
-0.614,1.177,-0.066,0
-0.763,1.094,-1.108,0
-0.222,1.216,-2.068,0
0.191,1.327,-1.784,0
1.193,1.308,-0.182,0
1.656,0.937,0.776,0
1.985,-0.057,2.835,0
1.842,-0.787,4.224,0
0.912,-1.575,5.977,0
0.19,-1.921,6.151,0
-0.425,-1.885,3.985,0
-0.38,-1.602,1.898,0
-0.255,-1.169,-1.25,0
-0.259,-0.844,-2.566,0
0.182,-0.579,-3.408,0
0.463,-0.358,-2.945,0
0.981,-0.209,-1.298,0
1.164,-0.443,-0.18,0
0.998,-1.043,1.052,0
0.723,-1.372,1.319,0
0.369,-1.662,0.914,0
0.307,-1.723,0.395,0
0.644,-1.5,-0.799,0
0.811,-1.286,-1.302,0
1.111,-0.834,-1.508,0
1.071,-0.646,-1.26,0
0.998,-0.424,-1.073,0
0.892,-0.287,-1.2,0
0.652,-0.219,-1.669,0
0.519,-0.239,-1.861,0
0.401,-0.301,-1.862,0
0.315,-0.316,-1.692,0
0.451,-0.254,-1.334,0
0.552,-0.186,-1.261,0
0.646,-0.214,-1.424,0
0.666,-0.218,-1.277,0
0.717,-0.202,-0.821,0
0.654,-0.238,-0.656,0
0.65,-0.237,-0.657,0
0.423,-0.159,-0.275,0
0.317,-0.027,-0.315,0
0.295,0.022,-0.436,0
0.35,-0.036,-0.58,0
0.505,0.079,-0.383,0
0.514,0.082,-0.384,0
0.83,0.285,0.538,0
0.79,0.282,0.641,0
0.733,0.328,0.603,0
0.703,0.42,0.785,0
0.609,0.469,0.989,0
0.549,0.415,1.366,0
0.59,0.473,1.611,0
0.703,0.616,1.866,0
0.633,0.73,1.971,0
-0.019,1.129,1.609,0
-0.211,1.163,0.848,1
0.235,0.939,-0.023,0
0.514,0.799,0.276,0
0.691,0.509,1.715,0
0.589,0.309,2.769,0
0.328,0.13,3.728,0
0.428,0.033,3.722,0
1.059,-0.415,3.48,0
1.421,-0.53,3.642,0
1.601,-0.538,4.173,0
1.459,-0.574,4.026,0
0.995,-0.574,2.249,0
0.732,-0.586,0.496,0
0.602,-0.548,-1.117,0
0.748,-0.338,-1.687,0
0.695,-0.337,-2.144,0
0.606,-0.322,-2.255,0
0.397,-0.426,-2.03,0
0.376,-0.604,-1.706,0
0.398,-0.818,-0.918,0
0.425,-0.921,-0.417,0
0.529,-1.066,0.22,0
0.568,-1.092,0.336,0
0.487,-1.174,0.263,0
0.5,-1.18,0.024,0
0.42,-1.178,-0.271,0
0.396,-1.128,-0.444,0
0.386,-1.07,-0.658,0
0.456,-0.931,-0.752,0
0.691,-0.569,-0.856,0
0.829,-0.369,-0.986,0
0.935,-0.172,-1.375,0
1.004,-0.073,-1.739,0
1.022,0.058,-2.08,0
1.094,0.062,-2.064,0
1.108,0.054,-2.06,0
1.004,0.003,-0.675,0
0.97,-0.067,0.388,0
0.956,-0.064,0.799,0
1.005,-0.059,1.033,0
1.103,-0.006,0.639,0
1.163,0.09,-0.201,0
1.242,0.148,-0.691,0
1.29,0.142,-0.809,0
1.182,0.184,-0.514,0
0.948,0.152,0.31,0
0.825,0.05,0.677,0
0.831,0.202,1.104,0
0.986,0.406,1.413,0
1.333,0.693,1.656,0
1.452,0.755,1.458,0
1.48,0.876,0.837,0
1.48,0.686,0.572,0
0.91,0.442,0.604,0
0.347,0.585,0.722,0
-0.374,0.82,0.217,0
-0.574,0.845,-0.344,1
-0.479,0.909,-1.109,0
-0.318,0.968,-1.069,0
0.199,1.037,-0.885,0
0.867,0.864,-0.556,0
1.659,0.167,0.969,0
1.996,-0.187,2.487,0
2.04,-0.817,4.465,0
1.671,-1.09,4.977,0
0.854,-1.375,4.129,0
0.453,-1.339,2.347,0
0.127,-1.147,-0.28,0
0.195,-1.006,-1.68,0
0.047,-0.951,-2.185,0
0.111,-0.907,-1.619,0
0.611,-0.746,0.11,0
0.83,-0.786,0.87,0
0.955,-1.181,1.715,0
0.824,-1.408,1.787,0
0.418,-1.736,1.417,0
0.235,-1.813,0.879,0
0.266,-1.559,-0.16,0
0.405,-1.377,-0.799,0
0.695,-1.029,-1.855,0
0.652,-0.893,-2.285,0
0.536,-0.795,-2.473,0
0.518,-0.788,-2.41,0
0.502,-0.693,-1.962,0
0.548,-0.597,-1.643,0
0.654,-0.516,-1.175,0
0.587,-0.581,-1.038,0
0.511,-0.615,-0.978,0
0.456,-0.565,-1.077,0
0.509,-0.393,-1.254,0
0.562,-0.289,-1.296,0
0.668,-0.124,-1.334,0
0.642,-0.081,-1.251,0
0.493,-0.085,-0.946,0
0.338,-0.124,-0.725,0
0.211,-0.12,-0.381,0
0.237,-0.048,-0.244,0
0.356,0.099,-0.124,0
0.462,0.195,-0.102,0
0.682,0.438,-0.173,0
0.721,0.581,-0.132,0
0.543,0.619,0.305,0
0.366,0.59,0.66,0
0.142,0.554,1.09,0
0.055,0.579,1.32,0
0.221,0.624,1.657,0
0.344,0.628,1.755,0
0.351,0.577,2.072,0
0.386,0.411,2.335,0
0.215,0.38,2.593,0
-0.264,0.63,2.452,0
-0.596,0.939,1.598,1
-0.052,0.96,1.014,0
0.932,0.858,0.607,0
1.399,0.886,0.783,0
1.85,0.771,2.026,0
1.72,0.568,3.025,0
1.508,0.067,3.958,0
1.444,-0.267,4.12,0
1.272,-0.706,3.942,0
1.162,-0.732,3.639,0
0.812,-0.653,2.711,0
0.624,-0.563,1.817,0
0.592,-0.579,0.585,0
0.598,-0.6,0.235,0
0.345,-0.731,-0.153,0
0.162,-0.786,-0.232,0
-0.028,-0.937,-0.382,0
0.088,-1.015,-0.5,0
0.439,-1.115,-0.476,0
0.656,-1.175,-0.339,0
0.904,-1.159,0.078,0
0.94,-1.183,0.326,0
0.769,-1.189,0.206,0
0.667,-1.17,-0.222,0
0.639,-1.055,-1.17,0
0.628,-0.973,-1.82,0
0.652,-0.758,-2.633,0
0.659,-0.644,-2.935,0
0.86,-0.356,-3.048,0
1.084,-0.041,-2.926,0
1.033,0.121,-2.562,0
0.957,0.171,-2.285,0
0.756,0.096,-1.783,0
0.476,-0.061,-1.576,0
0.093,-0.284,-1.308,0
-0.026,-0.344,-1.133,0
0.144,-0.287,-0.719,0
0.346,-0.134,-0.423,0
0.342,-0.134,-0.424,0
0.763,0.018,-0.398,0
0.927,0.103,-0.548,0
0.981,0.17,-0.368,0
1.116,0.333,0.228,0
1.086,0.347,0.601,0
0.885,0.41,0.856,0
0.656,0.326,0.806,0
0.498,0.271,0.892,0
0.49,0.322,0.859,0
0.672,0.448,0.754,0
0.759,0.48,0.808,0
0.862,0.681,0.883,0
0.86,0.651,0.896,0
0.95,0.628,0.861,0
1.42,0.694,1.249,0
1.419,0.652,1.632,0
1.278,0.604,1.893,0
1.289,0.596,1.898,1
0.473,0.81,1.196,0
0.279,0.681,0.05,0
0.434,0.612,-0.188,0
0.725,0.592,-0.092,0
0.852,0.512,0.304,0
0.836,0.526,0.296,0
0.905,-0.236,2.817,0
0.803,-0.971,3.908,0
0.516,-1.337,4.247,0
0.185,-1.479,3.592,0
0.198,-1.289,2.421,0
0.333,-0.822,0.085,0
0.302,-0.677,-0.806,0
0.25,-0.417,-1.944,0
0.111,-0.377,-2.331,0
-0.133,-0.353,-2.275,0
-0.28,-0.601,-1.504,0
-0.157,-1.032,0.26,0
-0.145,-1.203,0.888,0
-0.114,-1.454,1.511,0
0.131,-1.401,1.41,0
0.506,-1.168,0.695,0
0.647,-1.057,-0.051,0
0.631,-0.974,-1.157,0
0.563,-0.889,-1.575,0
0.608,-0.773,-2.114,0
0.577,-0.647,-2.194,0
0.483,-0.504,-2.247,0
0.382,-0.485,-2.139,0
0.24,-0.443,-2.095,0
0.165,-0.344,-2.121,0
0.093,-0.33,-2.015,0
0.09,-0.277,-1.914,0
0.123,-0.193,-1.608,0
0.135,-0.195,-1.309,0
0.116,-0.225,-1.031,0
0.071,-0.211,-0.964,0
0.066,-0.197,-0.949,0
0.077,-0.172,-0.981,0
0.06,-0.17,-0.728,0
0.111,-0.129,-0.435,0
0.198,-0.051,0.034,0
0.193,-0.072,0.223,0
0.229,-0.036,0.495,0
0.148,-0.009,0.428,0
0.142,0.079,0.359,0
0.251,0.142,0.446,0
0.493,0.286,0.54,0
0.628,0.384,0.759,0
0.946,0.513,1.364,0
1.029,0.52,1.858,0
1.076,0.383,2.701,0
1.008,0.254,3.035,0
0.242,0.442,3.257,0
-0.326,0.68,2.735,1
-0.285,0.898,1.129,0
0.101,0.826,0.428,0
1.163,0.874,0.057,0
1.625,0.853,0.516,0
1.761,0.853,2.308,0
1.833,0.69,3.172,0
2.037,-0.087,4.418,0
1.922,-0.605,4.948,0
1.128,-1.309,5.598,0
0.679,-1.594,5.576,0
0.228,-1.679,4.11,0
0.277,-1.553,2.566,0
0.563,-1.254,0.498,0
0.707,-1.045,-0.564,0
0.559,-0.964,-1.705,0
0.761,-1.016,-2.079,0
0.947,-0.958,-1.851,0
1.07,-1.003,-1.345,0
1.28,-1.018,-0.575,0
1.35,-1.001,-0.22,0
1.243,-1.056,-0.2,0
1.089,-1.04,-0.475,0
1.066,-0.883,-1.199,0
1.072,-0.757,-1.438,0
1.114,-0.469,-2.141,0
1.014,-0.435,-2.534,0
1.148,-0.133,-2.969,0
1.218,0.011,-2.864,0
1.279,0.16,-2.533,0
1.197,0.226,-2.214,0
1.09,0.232,-1.546,0
0.925,0.137,-1.408,0
0.673,-0.019,-1.441,0
0.54,-0.214,-1.404,0
0.458,-0.309,-0.831,0
0.552,-0.348,-0.41,0
0.763,-0.289,0.029,0
0.728,-0.313,0.207,0
0.668,-0.408,0.409,0
0.624,-0.426,0.518,0
0.788,-0.13,0.465,0
0.844,0.026,0.367,0
0.941,0.18,-0.055,0
0.891,0.3,-0.339,0
0.792,0.355,-0.3,0
0.756,0.361,0.098,0
0.758,0.35,0.103,0
0.957,0.487,0.753,0
1.051,0.603,1.078,0
1.098,0.683,1.267,0
1.115,0.641,1.831,0
1.107,0.583,2.214,0
0.849,0.719,2.381,0
0.586,0.886,2.152,0
0.599,0.872,2.16,1
0.469,0.946,0.359,0
0.485,0.876,0.161,0
0.443,0.816,0.259,0
0.414,0.476,1.234,0
0.561,0.28,2.015,0
0.988,-0.171,3.444,0
1.225,-0.582,4.017,0
1.165,-1.207,4.672,0
0.936,-1.488,4.678,0
0.367,-1.697,3.532,0
0.209,-1.601,2.108,0
0.227,-1.606,2.112,0
-0.076,-1.491,-1.055,0
-0.492,-1.325,-2.017,0
-0.431,-1.142,-2.208,0
-0.081,-0.812,-1.874,0
0.324,-0.632,-1.358,0
0.749,-0.599,-0.634,0
0.81,-0.747,-0.198,0
0.778,-0.739,-0.204,0
0.676,-1.216,-0.074,0
0.876,-1.198,-0.455,0
0.992,-1.076,-0.585,0
1.088,-0.93,-0.721,0
1.025,-0.876,-0.896,0
0.833,-0.833,-1.161,0
0.693,-0.808,-1.211,0
0.647,-0.746,-1.333,0
0.736,-0.643,-1.303,0
0.827,-0.454,-0.99,0
0.911,-0.384,-0.736,0
0.989,-0.296,-0.491,0
0.977,-0.236,-0.504,0
1.022,-0.161,-0.602,0
1.032,-0.162,-0.766,0
0.943,-0.13,-1.127,0
0.898,-0.112,-1.444,0
0.894,-0.054,-1.778,0
0.846,-0.037,-1.971,0
0.73,-0.041,-2.082,0
0.741,0.01,-2,0
0.743,-0.018,-1.861,0
0.573,-0.036,-1.525,0
0.381,-0.048,-0.82,0
0.146,-0.055,-0.413,0
-0.201,-0.037,0.222,0
-0.504,0.081,0.702,0
-0.541,0.175,1.315,0
-0.394,0.265,1.392,0
-0.115,0.405,1.036,0
0.222,0.374,0.651,0
0.198,0.354,0.657,0
0.825,0.599,0.925,0
0.751,0.612,1.628,0
0.316,0.79,2.103,0
-0.159,1.064,2.17,0
0.036,1.086,1.897,0
0.666,0.963,1.738,1
1.002,0.895,2.029,0
1.369,0.713,3.094,0
1.269,0.449,4.093,0
1.242,0.481,4.079,0
1.157,0.096,4.464,0
1.138,-0.338,3.912,0
1.057,-0.555,3.64,0
0.765,-0.673,3.034,0
0.603,-0.636,2.28,0
0.566,-0.408,0.449,0
0.635,-0.34,-0.856,0
0.639,-0.274,-1.794,0
0.695,-0.253,-2.204,0
0.624,-0.13,-2.499,0
0.61,-0.14,-2.381,0
0.695,-0.359,-1.988,0
0.662,-0.519,-1.651,0
0.515,-0.962,-0.954,0
0.3,-1.214,-0.441,0
-0.101,-1.517,0.296,0
-0.362,-1.634,0.696,0
-0.461,-1.589,0.713,0
-0.33,-1.422,0.264,0
0.259,-0.89,-1.121,0
0.475,-0.588,-1.775,0
0.56,-0.292,-2.231,0
0.497,-0.178,-2.26,0
0.353,-0.094,-2.238,0
0.397,-0.06,-2.112,0
0.432,0.065,-1.726,0
0.357,0.121,-1.433,0
0.355,0.122,-1.433,0
0.412,0.163,-1.437,0
0.358,0.172,-1.307,0
0.412,0.151,-1.024,0
0.399,0.144,-1.023,0
0.757,0.297,-0.906,0
0.652,0.242,-0.49,0
0.666,0.164,-0.051,0
0.696,0.16,0.291,0
0.634,0.251,0.538,0
0.565,0.36,0.756,0
0.499,0.399,0.662,0
0.292,0.492,0.104,0
0.307,0.574,-0.288,0
0.375,0.672,-0.394,0
0.469,0.683,0.073,0
0.52,0.662,1.048,0
0.41,0.52,1.871,0
0.38,0.509,2.491,0
0.216,0.472,3.28,0
0.205,0.453,3.287,1
-0.443,1.206,2.836,0
-0.655,1.356,0.511,0
-0.265,1.594,-0.951,0
0.316,1.846,-1.686,0
0.98,1.893,-1.163,0
1.316,1.451,1.228,0
1.375,0.742,3.114,0
1.091,-0.398,5.519,0
0.513,-1.231,6.945,0
-0.425,-2.149,7.511,0
-0.781,-2.295,6.675,0
-0.603,-1.983,3.097,0
-0.499,-1.633,0.588,0
-0.132,-1.086,-2.476,0
0.133,-0.887,-4.061,0
0.214,-0.464,-4.829,0
0.33,-0.19,-4.357,0
0.613,-0.034,-2.64,0
0.661,-0.114,-1.591,0
0.538,-0.558,-0.392,0
0.387,-0.933,0.351,0
0.332,-1.047,0.315,0
0.318,-1.099,-0.123,0
0.414,-1.104,-0.816,0
0.56,-0.959,-1.265,0
0.65,-0.753,-1.463,0
0.464,-0.805,-1.365,0
0.11,-0.807,-1.218,0
-0.093,-0.858,-1.265,0
-0.313,-0.874,-1.4,0
-0.317,-0.875,-1.399,0
-0.241,-0.579,-1.487,0
-0.044,-0.4,-1.457,0
0.273,-0.211,-1.515,0
0.387,-0.025,-1.534,0
0.489,0.022,-1.57,0
0.479,0.033,-1.561,0
0.388,0.033,-1.533,0
0.261,-0.042,-1.426,0
0.089,-0.148,-1.026,0
0.035,-0.099,-0.442,0
0.098,-0.04,0.116,0
0.167,0.027,0.319,0
0.201,0.14,0.342,0
0.246,0.158,0.213,0
0.162,0.191,0.102,0
0.113,0.182,0.12,0
0.197,0.242,0.283,0
0.243,0.23,0.397,0
0.34,0.071,0.596,0
0.277,0.035,1.022,0
0.281,-0.038,1.602,0
0.227,0.152,2.057,0
-0.074,0.862,2.089,0
-0.253,1.289,1.42,0
-0.032,1.436,-0.155,0
0.184,1.339,-0.71,0
0.287,1.151,-0.188,1
0.349,0.793,1.094,0
0.262,0.267,2.85,0
-0.143,-0.026,3.816,0
0.049,-0.458,4.19,0
0.15,-0.745,4.637,0
0.273,-1.143,4.969,0
0.308,-1.156,4.897,0
0.405,-0.889,3.605,0
0.447,-0.741,1.892,0
0.639,-0.578,-0.066,0
0.775,-0.526,-1.073,0
0.969,-0.423,-2.11,0
0.849,-0.39,-2.395,0
0.93,-0.44,-1.86,0
1.042,-0.462,-1.237,0
1.011,-0.629,-0.449,0
0.9,-0.784,-0.144,0
0.707,-0.972,-0.136,0
0.577,-1.086,-0.245,0
0.591,-1.049,-0.396,0
0.646,-0.976,-0.67,0
0.676,-0.898,-1.105,0
0.726,-0.797,-1.49,0
0.722,-0.651,-1.859,0
0.777,-0.59,-2.14,0
0.921,-0.373,-2.378,0
0.973,-0.3,-2.33,0
0.912,-0.161,-2.409,0
0.825,-0.133,-2.61,0
0.786,-0.118,-2.545,0
0.674,-0.054,-2.265,0
0.453,-0.068,-1.829,0
0.389,-0.073,-1.629,0
0.306,-0.045,-1.162,0
0.356,-0.003,-0.799,0
0.531,0.095,-0.65,0
0.7,0.197,-0.843,0
0.649,0.245,-0.993,0
0.58,0.21,-0.947,0
0.633,0.194,-0.759,0
0.576,0.237,-0.535,0
0.567,0.234,-0.534,0
0.341,0.369,0.257,0
0.273,0.671,1.09,0
0.223,0.737,1.321,0
-0.064,0.76,1.608,0
0.036,0.862,1.642,0
0.165,0.965,1.702,0
0.19,0.972,1.771,0
0.517,1.012,1.889,0
0.456,1.123,1.971,0
0.186,1.656,1.788,0
0.239,1.898,1.031,0
0.132,1.754,0.212,1
0.053,1.494,0.025,0
0.013,1.272,0.298,0
-0.051,0.992,1.45,0
0.472,0.585,3.32,0
0.786,0.375,4.473,0
0.8,-0.251,5.672,0
0.751,-0.778,6.039,0
0.341,-1.096,5.357,0
0.074,-1.088,3.611,0
-0.024,-0.796,0.913,0
-0.095,-0.642,-1.045,0
-0.426,-0.794,-3.115,0
-0.703,-0.866,-4.05,0
-0.945,-0.822,-4.052,0
-0.959,-0.759,-3.238,0
-0.994,-0.76,-3.239,0
-0.523,-0.655,-1.614,0
0.028,-0.92,-0.868,0
0,-1.254,-0.592,0
-0.041,-1.471,-0.201,0
-0.257,-1.652,0.213,0
-0.516,-1.874,0.536,0
-0.655,-1.856,0.645,0
-0.582,-1.64,0.293,0
-0.403,-1.372,-0.317,0
-0.207,-0.934,-1.624,0
-0.125,-0.713,-2.486,0
0.074,-0.373,-3.018,0
-0.017,-0.331,-2.842,0
-0.152,-0.165,-2.375,0
-0.302,-0.094,-2.104,0
-0.503,-0.05,-1.577,0
-0.5,-0.038,-1.581,0
-0.524,0.134,-1.35,0
-0.523,0.155,-1.003,0
-0.488,0.208,-0.23,0
-0.494,0.249,0.458,0
-0.643,0.219,1.004,0
-0.723,0.242,1.175,0
-0.739,0.24,1.175,0
-1.013,0.049,1.286,0
-0.75,0.092,1.341,0
-0.426,0.31,1.451,0
-0.175,0.512,1.38,0
-0.11,0.482,1.163,0
-0.031,0.396,1.074,0
0.053,0.316,1.28,0
0.17,0.274,1.722,0
0.371,0.318,2.349,0
0.49,0.594,2.779,0
0.206,0.803,2.528,0
0.113,1.142,1.007,1
0.299,1.196,0.038,0
0.635,1.133,-0.682,0
0.848,1.003,-0.48,0
1.064,0.57,0.924,0
0.905,0.298,2.293,0
0.719,-0.04,3.715,0
0.576,-0.345,4.114,0
0.151,-0.717,3.613,0
-0.013,-0.976,3.061,0
-0.101,-1.155,2.246,0
-0.104,-1.11,1.653,0
-0.089,-1.148,0.794,0
-0.15,-1.244,0.107,0
-0.122,-1.15,-0.955,0
-0.063,-1.119,-1.631,0
0.358,-0.953,-2.438,0
0.575,-0.82,-2.437,0
1.001,-0.758,-1.378,0
1.15,-0.741,-0.458,0
0.96,-0.917,0.164,0
0.784,-1.058,0.258,0
0.65,-1.085,-0.259,0
0.515,-1.046,-0.6,0
0.195,-1.163,-1.248,0
0.158,-1.093,-1.668,0
0.238,-0.733,-2.61,0
0.216,-0.636,-2.933,0
0.464,-0.445,-3.575,0
0.716,-0.253,-4.241,0
0.613,0.031,-3.972,0
0.478,0.037,-3.224,0
0.025,-0.005,-2.203,0
-0.164,-0.009,-1.836,0
-0.091,-0.021,-1.582,0
-0.135,0.033,-1.338,0
-0.145,0.033,-0.944,0
-0.121,0.072,-0.482,0
-0.171,0.213,0.49,0
-0.147,0.281,1.123,0
-0.12,0.296,1.444,0
-0.149,0.321,1.325,0
-0.174,0.267,0.891,0
-0.193,0.246,0.478,0
-0.253,0.199,-0.103,0
-0.34,0.216,-0.121,0
-0.291,0.333,0.211,0
-0.093,0.457,0.519,0
-0.04,0.638,0.814,0
-0.19,0.713,1.209,0
-0.332,0.591,2.079,0
-0.348,0.454,2.457,0
-0.11,0.247,2.507,0
0.033,0.256,2.22,0
-0.124,0.677,1.554,1
-0.429,1.18,0.902,0
-0.416,1.451,-0.231,0
-0.106,1.613,-1.168,0
0.093,1.5,-1.675,0
0.169,1.19,-0.937,0
0.04,0.557,1.63,0
0.086,0.118,2.767,0
-0.198,-0.844,4.401,0
-0.278,-1.159,5.159,0
-0.428,-1.279,5.527,0
-0.297,-1.092,4.343,0
-0.237,-0.731,1.522,0
-0.351,-0.678,-0.13,0
-0.231,-0.394,-2.141,0
-0.167,-0.286,-2.95,0
-0.436,-0.27,-3.409,0
-0.395,-0.272,-2.959,0
-0.05,-0.373,-1.935,0
0.157,-0.464,-0.889,0
0.266,-0.86,0.288,0
0.38,-1.084,0.972,0
0.248,-1.329,1.514,0
0.065,-1.441,1.451,0
-0.108,-1.528,0.748,0
-0.078,-1.524,0.052,0
0.152,-1.282,-1.231,0
0.333,-1.075,-1.729,0
0.694,-0.693,-2.076,0
0.81,-0.442,-1.817,0
0.678,-0.247,-1.171,0
0.573,-0.168,-1.039,0
0.289,-0.103,-1.331,0
0.165,-0.095,-1.572,0
0.036,-0.106,-1.76,0
0.099,-0.029,-1.813,0
0.267,0.173,-1.923,0
0.41,0.256,-1.784,0
0.496,0.314,-1.38,0
0.59,0.417,-1.211,0
0.684,0.502,-1.06,0
0.44,0.433,-0.656,0
0.165,0.183,0.007,0
-0.073,-0.007,0.446,0
-0.419,-0.253,0.875,0
-0.569,-0.381,1.433,0
-0.482,-0.34,2.188,0
-0.327,-0.325,2.09,0
-0.322,-0.339,2.095,0
0.351,-0.159,1.568,0
0.684,-0.164,2.091,0
0.744,-0.046,2.495,0
0.742,-0.079,2.508,0
0.001,0.959,1.752,0
0.361,1.249,0.266,0
0.932,1.335,-0.628,0
1.501,1.5,-0.77,1
1.795,1.431,0.127,0
1.907,0.787,2.368,0
1.517,0.519,3.634,0
0.893,-0.173,4.994,0
0.634,-0.627,5.32,0
0.196,-1.238,4.637,0
-0.137,-1.423,4.041,0
-0.187,-1.464,3.266,0
0.017,-1.287,2.443,0
0.125,-1.195,1.106,0
0.197,-1.06,-0.023,0
0.351,-1.107,-1.268,0
0.4,-1.186,-1.844,0
0.659,-1.153,-1.878,0
0.869,-1.144,-1.359,0
0.938,-1.18,-0.333,0
0.773,-1.18,0.013,0
0.575,-1.231,-0.222,0
0.514,-1.139,-0.682,0
0.55,-0.968,-1.655,0
0.499,-0.887,-2.161,0
0.829,-0.595,-2.899,0
0.987,-0.342,-3.237,0
1.181,-0.075,-3.449,0
1.207,-0.02,-3.348,0
0.78,-0.134,-2.496,0
0.469,-0.295,-1.993,0
0.073,-0.358,-1.995,0
-0.083,-0.325,-1.966,0
-0.113,-0.256,-1.788,0
-0.037,-0.043,-1.86,0
0.02,0.175,-1.849,0
0.115,0.242,-1.728,0
0.128,0.323,-1.439,0
0.145,0.33,-1.371,0
0.183,0.304,-1.36,0
0.307,0.352,-1.283,0
0.199,0.218,-0.587,0
0.054,0.083,-0.2,0
0.036,0.131,0.786,0
-0.026,0.069,1.694,0
-0.243,0.212,2.134,0
-0.43,0.291,2.082,0
-0.311,0.231,1.634,0
0.049,0.479,1.278,0
0.435,0.841,1.295,0
0.661,0.919,1.389,0
0.57,0.944,1.623,0
0.5,0.866,1.654,0
-0.102,1.186,1.659,0
-0.4,1.639,1.157,0
-0.185,1.773,-0.108,1
0.368,1.503,-0.47,0
0.847,1.402,-0.621,0
0.675,0.82,0.57,0
0.922,-0.129,2.967,0
1.04,-0.461,4.131,0
0.767,-1.364,6.126,0
0.686,-1.754,6.804,0
0.094,-1.797,6.255,0
-0.168,-1.664,4.442,0
-0.202,-1.372,1.055,0
-0.189,-1.069,-0.885,0
-0.087,-0.998,-2.218,0
-0.135,-0.903,-2.487,0
-0.145,-0.773,-1.983,0
0.014,-0.812,-1.326,0
0.343,-1.058,-0.128,0
0.386,-1.183,0.102,0
0.222,-1.454,0.155,0
0.241,-1.523,-0.121,0
0.424,-1.301,-0.737,0
0.582,-1.046,-1.327,0
0.598,-0.871,-2.046,0
0.801,-0.725,-2.611,0
0.763,-0.534,-3.319,0
0.55,-0.553,-3.235,0
-0.016,-0.733,-2.677,0
-0.329,-0.783,-2.165,0
-0.313,-0.58,-1.484,0
-0.001,-0.263,-1.31,0
0.414,0.145,-1.455,0
0.696,0.354,-1.582,0
0.776,0.493,-1.85,0
0.685,0.427,-2.029,0
0.232,0.239,-1.662,0
-0.041,0.034,-1.055,0
-0.334,-0.13,-0.063,0
-0.511,-0.084,0.314,0
-0.535,-0.058,0.372,0
-0.439,-0.023,0.311,0
-0.301,0.074,0.202,0
-0.212,0.105,0.191,0
-0.09,0.269,0.221,0
-0.158,0.339,0.427,0
-0.382,0.339,0.769,0
-0.551,0.251,0.828,0
-0.545,0.271,1.04,0
-0.253,0.332,1.295,0
0.146,0.451,1.582,0
0.211,0.389,1.881,0
-0.007,0.458,2.133,0
-0.279,0.943,2.001,0
-0.345,1.564,1.213,0
0.246,1.454,0.691,1
0.248,1.433,0.7,0
1.276,1.583,0.528,0
1.419,1.051,1.906,0
0.912,0.648,2.975,0
0.225,-0.124,3.977,0
0.244,-0.477,4.02,0
0.205,-1.068,4.571,0
0.088,-1.232,4.7,0
-0.06,-1.278,4.074,0
-0.104,-1.342,2.861,0
0.184,-1.239,1.057,0
0.35,-1.091,0.044,0
0.438,-1.033,-0.918,0
0.452,-0.951,-1.393,0
0.663,-0.975,-1.601,0
0.75,-0.978,-1.594,0
0.772,-0.846,-1.476,0
0.823,-0.747,-1.423,0
0.974,-0.633,-1.429,0
0.992,-0.61,-1.7,0
0.931,-0.562,-1.932,0
0.795,-0.594,-2.007,0
0.625,-0.543,-2.011,0
0.569,-0.509,-1.893,0
0.623,-0.357,-1.774,0
0.699,-0.21,-1.736,0
0.797,0.022,-1.417,0
0.879,0.192,-1.251,0
0.818,0.366,-1.221,0
0.765,0.428,-1.255,0
0.656,0.427,-1.398,0
0.474,0.41,-1.598,0
0.243,0.285,-1.825,0
0.143,0.207,-1.735,0
0.15,0.2,-1.732,0
0.053,0.253,-1.21,0
0.131,0.298,-0.782,0
0.061,0.259,-0.196,0
0.062,0.216,0.582,0
-0.074,0.073,0.857,0
-0.186,0.1,0.868,0
-0.186,0.167,0.699,0
-0.077,0.308,-0.13,0
-0.074,0.406,-0.541,0
-0.116,0.491,-0.424,0
-0.059,0.485,0.119,0
0.09,0.384,1.114,0
0.296,0.216,1.659,0
0.305,0.306,1.824,0
0.201,0.142,2.481,0
0.208,0.283,3.161,0
-0.206,0.973,2.799,0
-0.771,1.522,0.663,1
-0.506,1.475,-0.483,0
0.127,1.569,-1.746,0
0.554,1.471,-1.448,0
0.98,1.195,0.642,0
0.891,0.761,2.243,0
0.827,-0.295,3.918,0
0.734,-0.764,4.584,0
0.053,-1.129,5.02,0
-0.343,-1.275,4.509,0
-0.332,-1.119,2.414,0
-0.07,-0.803,0.867,0
0.195,-0.497,-0.868,0
-0.064,-0.548,-1.586,0
-0.345,-0.686,-1.699,0
-0.355,-0.774,-1.483,0
-0.024,-0.89,-1.117,0
0.278,-0.864,-0.789,0
0.663,-0.971,-0.187,0
0.806,-0.992,0.026,0
0.755,-1.158,0.142,0
0.613,-1.252,-0.065,0
0.427,-1.19,-0.619,0
0.308,-1.164,-1.058,0
0.172,-1.157,-1.733,0
0.097,-1.108,-1.784,0
0.024,-1.048,-1.634,0
0.134,-0.855,-1.686,0
0.369,-0.591,-2.172,0
0.365,-0.43,-2.339,0
0.137,-0.311,-2.326,0
0.096,-0.199,-2.318,0
0.279,-0.023,-2.21,0
0.26,0.034,-1.901,0
0.052,-0.081,-1.28,0
0.069,-0.064,-0.895,0
-0.026,-0.029,-0.274,0
-0.009,-0.005,-0.136,0
0.049,0.015,-0.104,0
0.057,0.046,-0.056,0
0.146,0.075,-0.007,0
0.232,0.03,0.239,0
0.155,0.027,0.799,0
0.037,0.018,1.004,0
-0.078,0.042,1.112,0
-0.087,0.047,1.15,0
0.063,-0.006,1.17,0
0.023,-0.033,1.306,0
-0.014,-0.087,1.76,0
0.033,-0.096,2.142,0
0.152,0.207,2.362,0
0.03,0.734,2.205,0
-0.128,1.369,0.675,0
0.232,1.452,-0.404,0
0.956,1.533,-1.114,1
1.151,1.544,-0.808,0
1.338,1.184,1.098,0
1.085,0.66,2.803,0
0.025,0.269,4.079,0
0.033,0.305,4.063,0
-0.225,-0.562,3.43,0
-0.099,-0.676,2.909,0
0.137,-0.628,2.554,0
0.181,-0.625,2.462,0
0.055,-0.748,2.021,0
-0.01,-0.908,1.416,0
-0.03,-1.077,0.38,0
-0.16,-1.271,-0.372,0
-0.12,-1.448,-1.017,0
0.079,-1.52,-1.195,0
0.121,-1.699,-0.869,0
0.259,-1.681,-0.555,0
0.62,-1.603,-0.212,0
0.856,-1.461,-0.06,0
1.133,-1.212,-0.138,0
1.152,-1.085,-0.456,0
1.074,-0.957,-1.151,0
0.996,-0.811,-1.655,0
1.043,-0.619,-2.107,0
1.129,-0.471,-2.247,0
1.111,-0.203,-2.107,0
1.087,-0.107,-1.992,0
0.994,0.027,-1.829,0
0.773,0.059,-1.797,0
0.561,0.157,-1.617,0
0.428,0.132,-1.621,0
0.379,0.139,-1.652,0
0.336,0.166,-1.266,0
0.34,0.164,-1.265,0
0.378,0.216,-0.803,0
0.435,0.301,-0.442,0
0.483,0.307,-0.175,0
0.457,0.315,-0.026,0
0.458,0.328,-0.034,0
0.509,0.344,-0.007,0
0.528,0.328,0,0
0.486,0.388,0.068,0
0.584,0.426,0.312,0
0.166,0.44,0.541,0
-0.118,0.348,0.626,0
-0.352,0.106,0.843,0
-0.443,0.046,1.045,0
-0.562,-0.05,1.2,0
-0.519,-0.115,1.419,0
-0.06,-0.091,1.653,0
-0.108,0.131,1.902,0
-0.355,0.885,1.287,0
-0.136,1.22,0.375,0
-0.131,1.176,0.396,1
0.555,1.596,-1.654,0
1.089,1.828,-1.071,0
1.153,1.696,-0.093,0
1.241,0.983,1.295,0
1.071,-0.038,2.886,0
0.525,-1.172,4.555,0
0.012,-1.586,5.488,0
-0.753,-1.932,5.718,0
-0.891,-1.809,4.621,0
-0.607,-1.257,1.439,0
-0.417,-0.868,-0.096,0
-0.279,-0.406,-1.77,0
-0.375,-0.377,-2.263,0
-0.48,-0.263,-2.159,0
-0.29,-0.301,-1.559,0
0.043,-0.628,-0.334,0
0.146,-0.878,0.317,0
0.146,-1.276,0.962,0
0.126,-1.412,1.003,0
0.184,-1.502,0.43,0
0.378,-1.378,-0.413,0
0.66,-1.095,-1.354,0
0.69,-0.896,-1.892,0
0.571,-0.753,-2.424,0
0.564,-0.675,-2.612,0
0.35,-0.573,-2.74,0
0.298,-0.48,-2.645,0
0.284,-0.258,-2.054,0
0.273,-0.243,-2.06,0
0.39,0.081,-1.206,0
0.367,0.174,-1.236,0
0.343,0.233,-1.503,0
0.218,0.21,-1.697,0
0.052,0.179,-1.481,0
-0.022,0.124,-1.079,0
-0.022,0.154,-0.511,0
-0.181,0.174,-0.196,0
-0.458,0.079,0.18,0
-0.364,0.067,0.455,0
-0.126,0.125,0.627,0
0.11,0.203,0.757,0
0.349,0.31,0.811,0
0.416,0.39,0.78,0
0.622,0.75,1.277,0
0.74,0.784,1.272,0
0.623,0.821,1.026,0
0.641,0.62,1.017,0
0.461,0.431,1.361,0
0.199,0.382,1.666,0
-0.059,0.535,1.829,0
-0.387,1,1.335,0
-0.326,1.174,-0.133,0
0.197,1.08,-0.859,1
0.215,1.06,-0.85,0
0.968,1.14,-0.491,0
1.032,0.549,1.48,0
0.67,0.156,2.963,0
0.23,-0.401,3.95,0
0.114,-0.857,4.203,0
-0.312,-1.294,4.417,0
-0.501,-1.413,4.398,0
-0.428,-1.163,3.546,0
-0.264,-0.993,2.541,0
-0.041,-0.688,1.074,0
0.031,-0.587,0.362,0
0.23,-0.386,-0.595,0
0.33,-0.337,-0.916,0
0.478,-0.443,-1.336,0
0.576,-0.536,-1.373,0
0.743,-0.762,-0.969,0
0.739,-0.904,-0.294,0
0.519,-1.203,0.854,0
0.38,-1.265,1.097,0
0.335,-1.237,0.574,0
0.404,-1.102,-0.185,0
0.416,-1.014,-1.345,0
0.285,-1.003,-2.028,0
0.09,-0.871,-2.936,0
-0.005,-0.894,-3.111,0
0.169,-0.629,-3.305,0
0.208,-0.428,-3.132,0
0.259,-0.235,-2.551,0
0.108,-0.139,-2.02,0
-0.221,-0.084,-1.511,0
-0.462,-0.082,-1.372,0
-0.652,-0.073,-1.707,0
-0.649,-0.041,-2.016,0
-0.277,0.177,-2.425,0
0.063,0.291,-2.384,0
0.538,0.526,-1.591,0
0.73,0.61,-0.952,0
0.635,0.497,-0.133,0
0.51,0.366,0.484,0
0.54,0.321,0.727,0
0.26,0.222,0.477,0
-0.011,0.129,-0.11,0
-0.049,0.187,-0.349,0
-0.172,0.276,-0.101,0
-0.225,0.254,0.208,0
-0.152,0.364,0.827,0
-0.048,0.479,1.373,0
0.038,0.415,2.052,0
-0.01,0.362,2.607,0
0.052,0.539,3.444,0
-0.135,0.889,3.841,0
-0.713,1.586,2.432,0
-0.707,1.581,0.883,0
-0.673,1.545,0.901,1
0.433,1.56,-1.598,0
1.037,1.505,-1.105,0
1.08,1.005,0.688,0
0.937,0.029,3.061,0
0.126,-0.803,4.558,0
-0.639,-1.743,6.056,0
-0.913,-1.871,5.998,0
-1.071,-1.572,3.567,0
-0.816,-1.216,1.797,0
-0.492,-0.799,-1.019,0
-0.673,-0.842,-2.315,0
-0.946,-0.834,-2.848,0
-0.947,-0.83,-2.85,0
-0.992,-0.846,-1.443,0
-0.651,-1.034,-0.486,0
-0.128,-1.21,0.299,0
0.028,-1.306,0.467,0
0.384,-1.412,0.64,0
0.464,-1.396,0.235,0
0.402,-1.32,-0.609,0
0.584,-1.216,-1.08,0
0.75,-1.111,-2.112,0
0.746,-0.991,-2.968,0
0.478,-0.93,-3.125,0
0.244,-0.898,-2.756,0
0.097,-0.726,-2.201,0
0.009,-0.558,-2.074,0
-0.021,-0.325,-2.119,0
-0.083,-0.227,-2.054,0
-0.318,-0.038,-2.034,0
-0.396,0.024,-2.004,0
-0.442,0.068,-1.752,0
-0.595,0.144,-0.974,0
-0.555,0.178,0.144,0
-0.664,0.194,0.436,0
-0.948,0.212,0.54,0
-0.98,0.164,0.468,0
-0.883,0.155,0.415,0
-0.606,0.247,0.471,0
-0.156,0.411,0.7,0
-0.17,0.446,0.928,0
-0.199,0.43,1.272,0
-0.316,0.357,1.453,0
-0.419,0.351,1.879,0
-0.303,0.372,2.213,0
0.084,0.393,2.496,0
0.169,0.457,2.593,0
0.348,0.956,2.53,0
0.307,1.479,2.195,0
0.518,2.027,1.158,0
0.806,2.137,0.151,0
0.707,1.891,-1.007,1
0.386,1.561,-1.04,0
-0.502,0.626,0.883,0
-0.612,0.311,2.305,0
-0.31,0.053,3.671,0
0.238,-0.254,4.653,0
0.774,-0.662,5.843,0
0.571,-0.993,6.527,0
-0.192,-1.514,6.769,0
-0.579,-1.754,6.043,0
-0.754,-1.873,3.691,0
-0.447,-1.703,2.17,0
-0.059,-1.353,0.337,0
0.322,-0.987,-0.587,0
1.057,-0.578,-1.562,0
1.508,-0.304,-1.927,0
2.16,-0.059,-2.293,0
2.353,-0.155,-2.446,0
1.935,-0.552,-2.124,0
1.382,-0.977,-1.695,0
0.71,-1.456,-0.866,0
0.47,-1.646,-0.605,0
0.137,-1.726,-0.926,0
0.121,-1.593,-1.437,0
0.283,-1.27,-2.21,0
0.392,-0.96,-2.697,0
0.429,-0.674,-3.167,0
0.432,-0.542,-3.342,0
0.325,-0.39,-3.231,0
0.137,-0.473,-2.987,0
-0.191,-0.537,-2.446,0
-0.356,-0.631,-2.197,0
-0.483,-0.625,-2.088,0
-0.472,-0.595,-2.094,0
-0.401,-0.465,-2.187,0
-0.304,-0.363,-2.156,0
-0.177,-0.195,-2.07,0
-0.079,-0.133,-1.87,0
0.106,-0.004,-1.178,0
0.175,-0.019,-0.58,0
0.209,-0.164,0.061,0
0.156,-0.241,0.857,0
0.01,-0.343,1.906,0
-0.047,-0.394,2.105,0
-0.138,-0.201,1.59,0
-0.142,-0.066,1.225,0
0.049,0.111,1.088,0
0.088,0.105,1.284,0
-0.075,0.098,2.034,0
0.088,0.167,2.582,0
0.309,0.409,3.015,0
0.147,0.733,3.093,0
0.025,1.068,2.241,0
-0.113,1.107,0.942,0
-0.031,1.071,-0.418,1
0.021,0.973,-1.26,0
0.133,0.725,-1.644,0
0.389,0.512,-1.133,0
0.463,-0.181,1.07,0
0.63,-0.692,2.692,0
0.311,-1.363,4.759,0
0.121,-1.634,6.238,0
-0.368,-1.754,6.482,0
-0.292,-1.472,4.791,0
0.031,-0.769,0.763,0
0.311,-0.435,-1.13,0
0.582,-0.04,-2.979,0
0.323,-0.059,-3.32,0
-0.161,-0.199,-2.334,0
-0.306,-0.422,-1.313,0
-0.368,-0.821,0.319,0
-0.344,-0.987,0.849,0
-0.182,-1.184,1.223,0
-0.018,-1.179,1.091,0
0.403,-0.96,0.587,0
0.574,-0.781,-0.062,0
0.497,-0.684,-1.122,0
0.386,-0.548,-1.755,0
0.242,-0.486,-2.285,0
0.208,-0.476,-2.414,0
-0.06,-0.572,-2.369,0
-0.343,-0.547,-2.166,0
-0.455,-0.584,-1.62,0
-0.361,-0.462,-1.26,0
-0.02,0.036,-0.982,0
0.165,0.151,-1.089,0
0.181,0.313,-1.233,0
0.033,0.343,-1.35,0
-0.189,0.229,-1.711,0
-0.414,0.14,-1.617,0
-0.577,0.034,-1.04,0
-0.584,-0.064,-0.605,0
-0.49,-0.062,0.319,0
-0.409,-0.072,0.806,0
-0.217,-0.064,1.328,0
-0.163,-0.074,1.592,0
-0.31,-0.124,1.546,0
-0.602,-0.225,1.601,0
-0.606,-0.242,1.549,0
-0.511,-0.102,1.382,0
-0.506,-0.137,1.396,0
-0.262,0.08,0.846,0
-0.063,0.18,0.73,0
0.117,0.391,0.9,0
0.233,0.896,1.104,0
0.147,1.285,0.849,0
0.254,1.556,-0.166,0
0.379,1.478,-0.683,0
0.601,1.433,-0.704,1
0.632,1.244,0.021,0
0.372,0.695,1.969,0
0.235,0.429,2.735,0
0.097,-0.262,3.626,0
0.057,-0.624,3.924,0
-0.287,-1.095,4.734,0
-0.549,-1.389,5.254,0
-0.846,-1.422,4.789,0
-0.859,-1.322,3.704,0
-0.36,-0.981,1.275,0
-0.148,-0.759,0.066,0
0.043,-0.609,-1.244,0
0.227,-0.518,-2.073,0
0.293,-0.502,-2.753,0
0.377,-0.708,-2.711,0
0.594,-0.8,-2.177,0
0.569,-0.955,-1.351,0
0.661,-1.245,0.04,0
0.694,-1.272,0.679,0
0.412,-1.414,1.091,0
0.189,-1.448,0.991,0
-0.008,-1.4,0.156,0
-0.1,-1.231,-0.804,0
-0.088,-1.255,-0.794,0
-0.105,-0.912,-2.469,0
-0.042,-0.739,-2.919,0
0.04,-0.61,-3.05,0
0.251,-0.381,-2.757,0
0.493,-0.193,-2.496,0
0.521,0.053,-1.742,0
0.393,-0.025,-1.405,0
-0.015,-0.079,-1.305,0
-0.164,-0.147,-1.394,0
-0.234,-0.291,-1.605,0
-0.164,-0.347,-1.527,0
-0.088,-0.207,-0.711,0
0.02,-0.198,-0.202,0
-0.066,-0.105,0.342,0
-0.09,0.071,0.664,0
0.123,0.144,0.805,0
0.147,0.158,0.48,0
0.064,0.196,-0.483,0
0.143,0.219,-1.166,0
0.154,0.158,-1.62,0
0.1,0.217,-1.247,0
-0.005,0.29,0.14,0
-0.112,0.227,0.978,0
-0.258,0.243,1.63,0
0.075,0.445,1.73,0
0.661,0.58,1.926,0
0.834,0.636,1.757,0
0.37,1.12,1.459,0
0.015,1.423,0.85,0
0.122,1.404,-0.328,1
0.316,1.316,-0.619,0
0.513,1.192,-0.425,0
0.426,1.049,0.458,0
0.177,0.437,2.032,0
0.062,-0.184,3.121,0
-0.484,-0.963,3.968,0
-0.804,-1.617,4.674,0
-1.115,-1.958,4.668,0
-1.379,-1.974,3.83,0
-1.405,-1.723,1.239,0
-1.266,-1.515,-0.04,0
-1.152,-1.178,-1.943,0
-0.97,-1.139,-2.541,0
-0.774,-0.827,-2.538,0
-0.676,-0.71,-1.997,0
-0.504,-0.686,-0.711,0
-0.184,-0.807,0.371,0
0.177,-0.975,1.327,0
0.372,-0.941,1.547,0
0.634,-0.88,1.163,0
0.59,-0.86,0.61,0
0.469,-0.805,-0.283,0
0.287,-0.781,-0.918,0
0.15,-0.723,-1.462,0
0.063,-0.713,-1.853,0
-0.058,-0.781,-2.331,0
-0.096,-0.73,-2.248,0
-0.061,-0.569,-1.459,0
-0.1,-0.409,-0.76,0
-0.052,-0.151,0.199,0
-0.012,0.011,0.167,0
-0.085,0.137,-0.807,0
-0.138,0.112,-1.45,0
-0.237,0.021,-1.637,0
-0.219,0.03,-1.324,0
-0.269,-0.041,-0.613,0
-0.29,-0.053,-0.187,0
-0.3,-0.135,0.285,0
-0.241,-0.21,0.285,0
-0.12,0.02,0.529,0
0.012,0.073,0.665,0
-0.004,-0.021,0.81,0
-0.228,-0.106,1.019,0
-0.416,-0.235,1.523,0
-0.338,-0.214,1.767,0
-0.032,0.051,1.681,0
0.197,0.161,1.366,0
0.19,0.123,1.382,0
0.663,0.493,0.811,0
0.774,0.719,0.836,0
0.454,0.952,0.909,0
-0.081,1.157,0.345,0
0.028,1.009,-0.095,0
0.112,0.845,-0.196,0
0.135,0.782,0.049,0
0.136,0.781,0.049,1
0.334,0.007,1.347,0
0.018,-0.218,2.171,0
-0.034,-0.485,2.375,0
0.138,-0.946,2.367,0
0.181,-1.121,2.515,0
-0.018,-1.321,2.98,0
-0.228,-1.315,2.894,0
-0.435,-1.217,1.729,0
-0.359,-1.054,0.635,0
-0.254,-0.879,-0.951,0
-0.012,-0.776,-1.772,0
0.312,-0.481,-2.693,0
0.599,-0.286,-3.163,0
1.013,-0.393,-3.558,0
1.185,-0.483,-3.311,0
1.148,-0.68,-1.602,0
1.091,-0.928,-0.054,0
0.8,-1.157,1.878,0
0.297,-1.346,3.103,0
0.003,-1.477,3.539,0
-0.171,-1.39,2.894,0
-0.166,-1.274,1.26,0
0.041,-0.943,-0.063,0
0.227,-0.613,-1.196,0
0.417,-0.398,-1.754,0
0.665,-0.159,-2.556,0
0.931,0.019,-2.855,0
1.281,0.245,-2.894,0
1.293,0.255,-2.604,0
0.916,0.046,-1.619,0
0.7,-0.051,-1.124,0
0.393,-0.107,-0.636,0
0.3,-0.067,-0.523,0
0.426,0.061,-0.623,0
0.59,0.173,-0.905,0
0.776,0.354,-1.364,0
0.86,0.442,-1.248,0
0.875,0.567,-0.587,0
0.912,0.63,-0.162,0
0.544,0.696,0.399,0
0.337,0.653,0.735,0
-0.159,0.539,0.755,0
-0.444,0.361,0.594,0
-0.471,0.171,0.282,0
-0.363,0.178,0.531,0
-0.201,0.198,1.253,0
-0.175,0.191,1.704,0
-0.171,0.191,2.182,0
-0.182,0.13,2.731,0
-0.004,0.366,2.77,0
-0.393,0.723,2.468,0
-0.376,0.686,2.483,1
-0.559,1.035,-0.49,0
-0.128,1.032,-1.206,0
0.345,1.244,-1.247,0
0.417,1.216,-0.258,0
0.601,0.85,0.766,0
0.882,0.085,2.254,0
1.215,-0.3,3.188,0
1.189,-0.902,4.784,0
1.064,-1.188,5.287,0
0.37,-1.346,5.089,0
0.152,-1.168,3.676,0
-0.135,-0.853,1.003,0
0.026,-0.756,-0.67,0
-0.355,-0.626,-2.933,0
-0.47,-0.55,-3.796,0
-0.666,-0.552,-4.092,0
-0.684,-0.432,-3.518,0
-0.127,-0.238,-2.01,0
0.3,-0.228,-1.078,0
0.542,-0.412,0.19,0
0.568,-0.56,0.615,0
0.366,-0.783,0.682,0
0.188,-0.919,0.306,0
0.126,-0.904,-0.225,0
0.017,-0.946,-0.618,0
-0.317,-0.978,-0.804,0
-0.511,-1.024,-0.958,0
-0.8,-1.003,-1.14,0
-0.823,-0.927,-1.155,0
-0.551,-0.662,-1.261,0
-0.302,-0.426,-1.402,0
0.084,-0.183,-1.744,0
0.167,-0.087,-1.725,0
0.12,-0.119,-1.56,0
-0.039,-0.192,-1.493,0
-0.168,-0.293,-1.13,0
-0.275,-0.401,-0.802,0
-0.361,-0.47,-0.312,0
-0.389,-0.467,-0.071,0
-0.275,-0.307,-0.016,0
-0.125,-0.192,-0.248,0
-0.021,-0.112,-0.64,0
0.236,0.007,-0.845,0
0.654,0.283,-0.517,0
0.837,0.384,-0.056,0
0.712,0.313,0.81,0
0.436,0.204,1.187,0
0.011,-0.188,1.338,0
0.038,-0.266,1.384,0
0.129,-0.203,1.389,0
0.193,-0.271,1.555,0
0.191,-0.087,1.95,0
0.193,0.332,2.135,0
0.195,0.316,2.141,0
0.337,1.162,0.614,0
1.364,1.217,-0.537,1
1.675,1.321,-0.797,0
1.605,1.073,0.2,0
1.191,0.495,1.623,0
0.186,-0.256,3.027,0
-0.1,-0.754,3.4,0
-0.086,-0.695,3.377,0
-0.449,-1.764,3.698,0
-0.597,-1.788,3.725,0
-0.698,-1.668,3.25,0
-0.561,-1.368,1.861,0
-0.243,-1.06,0.731,0
0.271,-0.73,-0.714,0
0.572,-0.547,-1.136,0
0.932,-0.317,-0.998,0
1.208,-0.284,-0.703,0
1.299,-0.369,-0.265,0
1.329,-0.481,-0.13,0
1.442,-0.514,-0.115,0
1.366,-0.554,-0.173,0
1.36,-0.551,-0.174,0
1.081,-0.668,-0.35,0
1.016,-0.59,-0.847,0
0.95,-0.526,-1.282,0
0.971,-0.527,-1.281,0
1.089,-0.253,-1.635,0
1.034,-0.109,-1.629,0
0.868,-0.125,-1.645,0
0.51,-0.194,-1.738,0
0.356,-0.187,-1.705,0
0.105,-0.133,-1.763,0
0.104,-0.056,-1.869,0
0.137,-0.063,-2.115,0
0.245,0.086,-2.163,0
0.579,0.265,-2.05,0
0.682,0.269,-1.823,0
0.535,0.215,-0.814,0
0.339,0.05,-0.288,0
0.184,-0.028,-0.101,0
0.262,0.08,-0.031,0
0.551,0.295,0.258,0
0.689,0.348,0.463,0
0.598,0.517,0.486,0
0.667,0.585,0.139,0
0.635,0.666,0.154,0
0.413,0.621,0.508,0
0.323,0.461,1.093,0
0.32,0.433,1.104,0
0.308,0.322,2.33,0
0.151,0.288,2.95,0
0.206,0.264,3.555,0
0.189,0.357,3.399,0
-0.535,0.783,1.829,0
-0.936,0.907,0.73,0
-0.522,1.032,-0.619,1
0.026,1.343,-1.923,0
0.303,1.472,-2.686,0
0.538,1.388,-2.404,0
0.696,0.88,-1.232,0
0.686,0.191,0.535,0
0.658,-0.814,3.021,0
0.259,-1.389,4.432,0
-0.827,-2.052,5.593,0
-1.434,-2.058,5.058,0
-1.821,-2.063,2.77,0
-1.687,-1.849,0.653,0
-1.31,-1.139,-1.711,0
-1.126,-0.918,-2.259,0
-0.573,-0.527,-2.016,0
-0.419,-0.348,-1.346,0
-0.277,-0.513,-0.109,0
-0.232,-0.732,0.411,0
-0.298,-1.141,1.06,0
-0.274,-1.347,1.207,0
-0.235,-1.35,1.004,0
0.094,-1.215,0.539,0
0.619,-0.811,-0.522,0
0.733,-0.661,-1.276,0
0.822,-0.454,-2.44,0
0.939,-0.333,-2.873,0
0.782,-0.215,-3.276,0
0.566,-0.231,-3.174,0
-0.061,-0.435,-2.225,0
-0.349,-0.501,-1.607,0
-0.502,-0.381,-1.046,0
-0.522,-0.347,-0.879,0
-0.266,-0.134,-0.655,0
-0.081,0.034,-0.599,0
0.201,0.21,-0.428,0
0.35,0.303,-0.43,0
0.505,0.402,-0.373,0
0.415,0.373,-0.354,0
0.13,0.238,-0.284,0
-0.149,-0.003,-0.27,0
-0.418,-0.214,-0.258,0
-0.514,-0.289,-0.026,0
-0.277,-0.254,0.71,0
-0.189,-0.247,1.027,0
-0.329,-0.079,1.309,0
-0.384,0.005,1.291,0
-0.381,-0.02,1.299,0
0.06,0.469,0.431,0
0.053,0.481,0.191,0
0.018,0.458,0.606,0
-0.138,0.421,1.768,0
-0.43,0.571,2.239,0
-0.873,0.941,1.718,0
-0.576,0.883,0.72,0
-0.568,0.86,0.729,1
-0.207,0.455,-0.437,0
-0.218,0.039,0.943,0
-0.391,-0.292,2.521,0
-0.436,-0.669,3.793,0
-0.17,-0.783,4.092,0
-0.029,-1.174,4.783,0
0.05,-1.239,4.888,0
0.065,-1.199,4.874,0
0.066,-0.922,3.583,0
0.156,-0.782,1.706,0
0.32,-0.65,0.306,0
0.648,-0.487,-0.964,0
0.895,-0.377,-1.114,0
0.921,-0.301,-1.08,0
0.861,-0.383,-0.943,0
0.918,-0.536,-0.841,0
0.962,-0.599,-0.924,0
0.96,-0.604,-0.922,0
0.901,-0.664,-1.023,0
0.862,-0.648,-1.029,0
0.859,-0.652,-1.028,0
0.634,-0.626,-1.413,0
0.449,-0.612,-1.62,0
0.287,-0.612,-1.963,0
0.195,-0.611,-2.078,0
0.067,-0.557,-2.076,0
-0.028,-0.492,-1.784,0
-0.034,-0.497,-1.782,0
-0.172,-0.283,-1.271,0
-0.204,-0.117,-1.546,0
-0.149,-0.035,-1.751,0
-0.009,0.103,-1.936,0
0.024,0.171,-1.888,0
0.081,0.231,-1.785,0
0.195,0.232,-1.77,0
0.173,0.219,-1.129,0
0.099,0.198,-0.7,0
0.079,0.188,-0.448,0
-0.024,0.088,-0.085,0
0.114,0.238,0.263,0
0.182,0.338,0.31,0
0.11,0.401,0.322,0
0.025,0.371,0.405,0
-0.025,0.362,0.513,0
-0.014,0.34,0.522,0
0.149,0.482,0.857,0
0.16,0.409,1.452,0
0.15,0.354,2.078,0
-0.048,0.173,2.937,0
0.175,0.222,3.971,0
-0.115,0.41,3.831,0
-0.833,0.918,1.712,0
-1.019,1.037,0.085,0
-0.992,0.975,0.111,1
-0.319,1.337,-2.002,0
0.075,1.449,-1.421,0
0.389,1.227,-0.415,0
0.96,0.299,1.543,0
1.169,-0.279,2.617,0
1.063,-1.246,4.92,0
0.745,-1.535,5.845,0
0.031,-1.695,5.39,0
-0.305,-1.688,3.157,0
-0.252,-1.28,0.207,0
-0.234,-1.066,-1.883,0
-0.667,-1.097,-3.257,0
-0.699,-1.005,-3.372,0
-0.768,-0.845,-2.316,0
-0.702,-0.816,-0.964,0
-0.298,-0.992,0.519,0
-0.073,-1.024,0.939,0
0.021,-1.2,1.024,0
0.163,-1.209,0.685,0
0.309,-1.045,-0.033,0
0.484,-0.911,-0.691,0
0.52,-0.778,-1.349,0
0.32,-0.739,-1.588,0
0.144,-0.765,-1.959,0
0.039,-0.833,-2.195,0
-0.19,-0.856,-2.054,0
-0.165,-0.746,-1.833,0
-0.058,-0.603,-1.638,0
0.025,-0.344,-1.462,0
0.268,-0.052,-1.235,0
0.326,0.095,-1.482,0
0.313,0.27,-1.943,0
0.356,0.36,-2.023,0
0.277,0.391,-1.872,0
0.053,0.276,-1.827,0
-0.078,0.227,-1.13,0
-0.188,0.186,-0.476,0
-0.276,0.15,-0.131,0
-0.224,0.114,-0.191,0
-0.335,0.189,0.424,0
-0.277,0.166,0.938,0
-0.373,0.14,1.081,0
-0.362,0.239,1.059,0
-0.039,0.55,0.958,0
0.213,0.63,0.911,0
0.365,0.7,1.056,0
0.459,0.683,1.451,0
0.65,0.563,1.985,0
0.684,0.424,2.454,0
0.45,0.597,2.517,0
-0.178,0.942,1.996,0
-0.711,1.104,0.507,0
-0.351,0.982,0.273,0
0.329,1.035,0.575,1
0.668,1.097,0.93,0
0.856,0.725,1.716,0
0.266,0.082,3.143,0
-0.356,-0.417,3.916,0
-0.798,-0.908,4.206,0
-0.795,-1.342,3.883,0
-0.806,-1.315,3.661,0
-0.762,-1.205,2.924,0
-0.661,-1.066,1.918,0
-0.686,-1,0.536,0
-0.568,-0.96,-0.269,0
-0.311,-0.931,-1.234,0
-0.396,-1.12,-1.662,0
-0.057,-1.246,-1.417,0
0.247,-1.185,-0.617,0
0.611,-1.177,0.602,0
0.762,-1.174,0.777,0
0.633,-1.188,0.806,0
0.505,-1.219,0.485,0
0.514,-1.208,0.481,0
0.257,-0.92,-1.099,0
0.264,-0.813,-1.748,0
0.139,-0.7,-2.445,0
-0.044,-0.597,-3.25,0
0.04,-0.572,-3.58,0
0.241,-0.214,-3.176,0
0.385,-0.053,-2.522,0
0.563,-0.036,-2.106,0
0.397,-0.098,-1.576,0
0.425,-0.109,-0.715,0
0.291,-0.125,-0.317,0
0.053,-0.197,-0.21,0
0.035,-0.297,-0.788,0
-0.09,-0.304,-1.923,0
-0.079,-0.189,-2.29,0
0.241,0.062,-2.329,0
0.554,0.219,-2.204,0
0.686,0.304,-1.648,0
0.627,0.292,-0.916,0
0.479,0.193,0.349,0
0.241,0.146,0.791,0
-0.07,0.239,1.22,0
-0.054,0.236,1.222,0
-0.357,0.162,0.896,0
-0.525,0.246,0.525,0
-0.361,0.405,0.238,0
-0.07,0.585,0.417,0
0.158,0.571,1.172,0
0.215,0.506,1.687,0
0.292,0.551,2.262,0
-0.03,0.724,2.532,0
-0.379,1.383,1.155,0
-0.356,1.263,-0.01,0
-0.089,1.298,-1.248,1
0.243,1.596,-1.552,0
1.016,1.644,-0.885,0
1.733,1.172,0.455,0
2.143,0.41,3.232,0
1.711,-0.486,5.618,0
0.729,-1.712,8.062,0
-0.419,-2.298,8.534,0
-1.608,-2.502,6.579,0
-1.834,-2.455,4.072,0
-1.94,-1.997,0.735,0
-1.42,-1.517,-1.627,0
-0.664,-0.774,-3.735,0
-0.162,-0.264,-4.214,0
0.407,0.131,-3.341,0
0.565,0.115,-1.995,0
0.502,-0.342,-0.171,0
0.373,-0.748,0.612,0
0.141,-1.243,1.285,0
0.118,-1.341,1.149,0
0.141,-1.338,0.342,0
0.266,-1.197,-0.473,0
0.293,-1.012,-1.11,0
0.241,-0.878,-1.536,0
-0.063,-0.889,-1.908,0
-0.195,-0.868,-1.97,0
-0.358,-0.764,-1.904,0
-0.393,-0.673,-1.862,0
-0.308,-0.515,-1.926,0
-0.174,-0.386,-2.045,0
-0.092,-0.287,-1.988,0
-0.04,-0.211,-1.859,0
-0.037,-0.107,-1.645,0
-0.029,-0.048,-1.526,0
-0.058,0.042,-1.644,0
-0.113,0.031,-1.633,0
-0.17,0.059,-1.201,0
-0.155,0.11,-0.735,0
-0.159,0.116,-0.737,0
-0.34,0.058,0.048,0
-0.579,-0.071,0.467,0
-0.573,-0.109,0.945,0
-0.58,-0.112,0.946,0
-0.358,0.139,0.785,0
-0.425,0.206,0.672,0
-0.397,0.259,0.473,0
-0.073,0.498,0.569,0
0.416,0.575,1.098,0
0.774,0.54,1.757,0
0.827,0.468,2.26,0
0.815,0.226,2.479,0
0.228,0.372,2.525,0
0.217,0.352,2.534,0
-0.169,0.46,1.173,0
0.563,0.376,0.542,1
0.866,0.527,0.805,0
1.558,0.659,1.925,0
1.826,0.538,2.739,0
1.344,0.541,3.209,0
0.663,0.288,2.801,0
0.161,-0.127,1.569,0
-0.057,-0.266,1.052,0
-0.191,-0.335,0.943,0
-0.348,-0.469,1.086,0
-0.641,-0.709,1.213,0
-0.757,-0.885,1.15,0
-0.618,-1.078,0.763,0
-0.37,-1.082,0.35,0
-0.119,-1.146,-0.266,0
0.152,-1.164,-0.583,0
0.505,-1.1,-0.64,0
0.618,-1.081,-0.463,0
0.531,-1.17,-0.106,0
0.402,-1.216,-0.067,0
0.225,-1.261,-0.477,0
0.165,-1.209,-0.983,0
0.178,-1.103,-1.777,0
0.303,-0.885,-2.19,0
0.724,-0.512,-2.216,0
1.079,-0.268,-2.444,0
1.339,0.186,-2.655,0
1.288,0.319,-2.562,0
0.943,0.267,-2.386,0
0.595,0.168,-2.284,0
0.133,0.021,-1.935,0
-0.084,-0.059,-1.663,0
-0.291,-0.067,-1.369,0
-0.247,-0.023,-1.214,0
-0.009,0.167,-1.339,0
0.153,0.316,-1.377,0
0.308,0.408,-1.333,0
0.44,0.452,-1.135,0
0.434,0.342,-0.452,0
0.392,0.283,0.008,0
0.553,0.371,0.526,0
0.598,0.411,0.833,0
0.487,0.347,1.127,0
0.281,0.177,1.189,0
0.137,0.015,0.943,0
0.173,0.01,0.903,0
0.236,0.061,0.998,0
0.204,0.071,1.175,0
0.205,0.134,1.319,0
0.149,0.124,1.361,0
0.22,0.169,1.852,0
0.47,0.1,2.332,0
0.185,0.406,2.901,1
-0.167,0.99,2.535,0
-0.496,1.304,0.402,0
-0.468,1.176,-0.952,0
-0.071,1.154,-1.898,0
0.314,1.356,-2.11,0
0.544,1.278,-0.721,0
0.817,0.893,0.864,0
0.992,-0.025,2.842,0
0.763,-0.651,3.823,0
0.088,-1.265,4.951,0
-0.393,-1.433,4.987,0
-0.782,-1.484,3.254,0
-0.672,-1.18,1.208,0
-0.483,-0.893,-0.796,0
-0.803,-0.827,-1.663,0
-0.613,-0.647,-2.497,0
-0.578,-0.631,-2.399,0
-0.317,-0.729,-1.38,0
0.038,-0.794,-0.417,0
0.538,-0.894,0.473,0
0.667,-0.915,0.74,0
0.81,-0.876,0.667,0
1.002,-0.839,0.194,0
0.975,-0.823,0.187,0
1.07,-0.786,-1.108,0
1.071,-0.769,-1.114,0
0.839,-0.817,-1.576,0
0.712,-0.846,-1.64,0
0.632,-0.788,-1.714,0
0.523,-0.728,-1.477,0
0.497,-0.643,-1.33,0
0.359,-0.436,-1.136,0
0.286,-0.373,-1.129,0
0.192,-0.242,-1.412,0
0.032,-0.158,-1.531,0
-0.028,-0.098,-1.6,0
-0.051,-0.045,-1.428,0
-0.161,-0.05,-0.901,0
-0.343,-0.079,-0.41,0
-0.568,-0.098,0.105,0
-0.707,-0.127,0.232,0
-0.788,-0.081,0.322,0
-0.745,-0.058,0.29,0
-0.473,0.061,0.21,0
-0.345,0.093,0.186,0
-0.119,0.196,0.234,0
-0.053,0.206,0.523,0
-0.079,0.271,1.365,0
-0.06,0.297,1.764,0
-0.284,0.141,2.044,0
-0.218,0.053,2.334,0
0.038,0.148,2.243,0
0.105,0.255,1.806,0
-0.22,1.084,0.853,0
-0.203,1.266,-0.116,0
1.01,1.292,-0.821,0
1.768,1.454,-0.868,1
1.737,1.442,-0.863,0
2.035,1.031,2.072,0
1.098,0.312,3.881,0
0.329,-0.182,4.368,0
-0.315,-0.777,4.447,0
-0.357,-0.982,3.982,0
-0.284,-0.952,3.041,0
-0.144,-0.793,2.283,0
-0.128,-0.752,1.287,0
-0.102,-0.758,0.623,0
-0.071,-0.826,-0.238,0
-0.107,-1.006,-0.811,0
-0.049,-1.197,-1.341,0
0.13,-1.313,-1.281,0
0.286,-1.542,-0.717,0
0.427,-1.574,-0.453,0
0.44,-1.544,-0.465,0
0.81,-1.552,-0.417,0
0.787,-1.487,-0.79,0
0.771,-1.451,-1.089,0
0.625,-1.352,-1.318,0
0.486,-1.268,-1.306,0
0.375,-1.126,-1.417,0
0.34,-0.964,-1.526,0
0.348,-0.951,-1.53,0
0.528,-0.461,-1.953,0
0.652,-0.198,-1.949,0
0.733,-0.04,-1.788,0
0.718,0.058,-1.762,0
0.681,0.127,-1.766,0
0.754,0.256,-2.178,0
0.793,0.333,-2.332,0
0.723,0.392,-1.794,0
0.623,0.362,-1.215,0
0.407,0.336,-0.469,0
0.351,0.289,-0.194,0
0.373,0.331,-0.13,0
0.46,0.373,-0.101,0
0.633,0.424,-0.191,0
0.688,0.497,-0.113,0
0.479,0.494,0.305,0
0.37,0.437,0.577,0
0.121,0.43,1.038,0
-0.029,0.415,1.073,0
-0.244,0.398,1.117,0
-0.306,0.451,0.993,0
-0.156,0.495,0.603,0
0.035,0.595,0.545,0
0.379,0.688,0.755,0
0.539,0.768,1.05,0
-0.062,1.307,1.243,0
-0.545,1.468,0.469,0
-0.648,1.159,-0.962,1
-0.479,1.078,-1.721,0
0.087,1.258,-1.528,0
0.461,1.352,-0.251,0
0.748,0.872,2.09,0
0.845,0.202,3.749,0
0.285,-0.8,5.668,0
0.08,-1.461,6.794,0
-0.517,-1.846,6.919,0
-0.999,-1.759,5.253,0
-0.816,-1.39,1.882,0
-0.484,-0.995,-0.245,0
-0.386,-0.675,-2.609,0
-0.389,-0.565,-3.487,0
-0.163,-0.173,-3.94,0
-0.314,-0.057,-3.284,0
0.062,-0.291,-1.507,0
0.397,-0.377,-0.431,0
0.575,-0.585,0.443,0
0.494,-0.874,0.808,0
0.383,-1.061,0.551,0
0.307,-1.172,0.312,0
0.415,-1.225,-0.164,0
0.383,-1.189,-0.558,0
0.101,-1.258,-1.139,0
0.038,-1.207,-1.386,0
0.042,-1.202,-1.388,0
-0.026,-0.799,-1.578,0
-0.028,-0.797,-1.579,0
0.328,-0.213,-1.85,0
0.447,0.026,-2.067,0
0.455,0.095,-2.207,0
0.326,0.165,-2.309,0
0.126,0.038,-2.015,0
-0.112,0.013,-1.101,0
-0.173,0.044,-0.438,0
-0.211,0.003,0.117,0
-0.375,0.034,0.223,0
-0.487,0.077,0.12,0
-0.494,0.075,0.121,0
-0.678,0.111,0.125,0
-0.569,0.195,0.23,0
-0.365,0.231,0.521,0
-0.395,0.205,0.887,0
-0.267,0.287,1.508,0
-0.259,0.347,1.841,0
-0.124,0.248,2.129,0
0.12,0.228,2.205,0
0.392,0.245,1.92,0
0.502,0.223,1.768,0
0.529,0.27,1.675,0
0.333,0.659,1.384,0
0.116,1.374,0.122,0
0.432,1.487,-0.925,0
1.003,1.572,-1.638,1
1.224,1.663,-1.239,0
1.302,1.078,0.602,0
1.32,0.304,2.089,0
0.202,-0.652,4.407,0
-0.517,-0.978,5.454,0
-1.24,-1.474,5.92,0
-1.205,-1.436,5.906,0
-0.684,-1.1,2.76,0
-0.147,-0.639,1.274,0
0.103,-0.441,0.169,0
0.184,-0.356,-0.461,0
-0.005,-0.442,-0.573,0
-0.069,-0.691,-0.435,0
-0.087,-1.07,-0.165,0
0.019,-1.307,0.275,0
0.279,-1.446,1.087,0
0.461,-1.387,1.435,0
0.627,-1.255,1.299,0
0.678,-1.132,0.717,0
0.717,-0.956,-0.41,0
0.738,-0.798,-1.343,0
0.772,-0.542,-2.159,0
0.83,-0.379,-2.413,0
1.131,-0.033,-3.123,0
1.101,0.039,-3.278,0
1.103,0.226,-3.352,0
1.104,0.207,-3.346,0
0.778,0.09,-3.244,0
0.613,-0.016,-2.949,0
0.53,-0.011,-2.088,0
0.509,0.004,-1.679,0
0.365,0.015,-1.448,0
0.394,-0.016,-1.726,0
0.312,-0.022,-1.694,0
0.325,0.027,-1.239,0
0.227,0.012,-0.759,0
0.095,-0.077,-0.771,0
-0.063,-0.106,-0.435,0
-0.053,-0.104,-0.038,0
0.058,-0.12,0.265,0
-0.016,-0.109,0.299,0
-0.123,0.03,0.19,0
-0.023,0.109,0.128,0
0.136,0.31,0.219,0
0.328,0.517,0.465,0
0.483,0.653,0.764,0
0.507,0.712,1.223,0
0.313,0.406,1.904,0
0.174,0.24,2.12,0
-0.001,0.164,1.888,0
-0.313,0.608,1.253,0
-0.627,1.344,-0.229,0
-0.407,1.284,-1.181,0
0.359,1.489,-1.915,1
0.857,1.569,-1.861,0
1.072,1.081,0.355,0
1.215,0.496,2.222,0
0.75,-0.519,4.724,0
0.483,-1.103,6.405,0
0.001,-1.61,8.015,0
-0.347,-1.678,7.507,0
-0.643,-1.461,4.082,0
-0.569,-0.946,1.637,0
-0.443,-0.629,-1.116,0
-0.357,-0.501,-2.797,0
-0.534,-0.326,-3.701,0
-0.549,-0.349,-3.508,0
-0.242,-0.287,-2.198,0
0.127,-0.352,-0.772,0
0.595,-0.587,0.256,0
0.674,-0.742,0.525,0
0.741,-1.001,0.312,0
0.704,-1.105,-0.102,0
0.824,-1.123,-0.802,0
0.931,-1.007,-1.116,0
0.884,-0.936,-1.356,0
0.589,-0.998,-1.608,0
-0.024,-1.032,-1.866,0
-0.252,-1.034,-1.965,0
-0.482,-0.952,-2.14,0
-0.438,-0.812,-2.267,0
-0.195,-0.474,-2.149,0
0.043,-0.15,-1.912,0
0.045,-0.143,-1.914,0
0.402,0.229,-1.71,0
0.343,0.348,-1.748,0
0.127,0.229,-1.639,0
-0.17,0.063,-1.197,0
-0.264,0.062,-0.701,0
-0.368,0.082,-0.101,0
-0.377,0.091,-0.104,0
-0.51,0.069,0.329,0
-0.633,0.184,0.826,0
-0.305,0.325,0.905,0
-0.165,0.389,0.822,0
-0.169,0.379,0.826,0
0.065,0.439,1.051,0
-0.018,0.209,1.575,0
-0.204,0.044,1.897,0
-0.222,-0.156,2.193,0
-0.191,-0.216,2.246,0
-0.236,-0.01,1.944,0
-0.227,0.517,1.58,0
-0.34,1.332,0.6,0
0.072,1.516,-0.443,0
1.279,1.67,-1.207,0
1.575,1.71,-1.091,0
1.743,1.329,0.548,1
1.607,0.542,2.524,0
0.749,-0.062,4.152,0
-0.061,-0.762,5.369,0
-0.34,-1.289,5.953,0
-0.544,-1.531,5.91,0
-0.553,-1.384,4.831,0
-0.433,-1.145,3.561,0
-0.253,-0.837,1.411,0
-0.122,-0.738,0.052,0
-0.289,-0.975,-0.958,0
-0.164,-1.15,-1.313,0
-0.013,-1.257,-1.153,0
0.316,-1.248,-0.436,0
0.803,-1.118,0.465,0
0.978,-0.983,0.647,0
0.973,-0.901,0.075,0
0.959,-0.851,-0.629,0
0.881,-0.761,-1.235,0
0.758,-0.663,-1.225,0
0.519,-0.61,-1.054,0
0.282,-0.619,-1.062,0
0.208,-0.454,-1.361,0
0.141,-0.343,-1.739,0
0.346,-0.222,-2.046,0
0.553,-0.04,-2.371,0
0.681,0.121,-3.152,0
0.773,0.18,-3.25,0
0.857,0.265,-3.118,0
0.854,0.324,-2.714,0
0.855,0.315,-2.711,0
0.574,0.165,-1.122,0
0.347,0.087,-0.451,0
0.258,-0.019,-0.242,0
0.325,-0.077,-0.485,0
0.451,-0.048,-0.872,0
0.612,-0.042,-1.193,0
0.666,-0.066,-1.096,0
0.705,0.026,-0.448,0
0.632,0.053,0.24,0
0.434,0.063,0.789,0
0.385,0.094,0.676,0
0.086,0.124,0.431,0
0.004,0.106,0.393,0
0.037,0.125,0.491,0
0.178,0.213,0.722,0
0.427,0.169,0.969,0
0.507,0.077,1.001,0
0.564,0.081,1.355,0
0.544,0.228,1.569,0
-0.221,0.983,1.369,0
-0.644,1.357,0.313,0
-0.601,1.281,-1.407,0
-0.511,1.324,-1.869,0
0.035,1.244,-1.446,1
0.33,1.063,-0.038,0
0.283,1.092,-0.052,0
0.785,-0.332,3.442,0
0.06,-1.394,5.362,0
-0.168,-1.71,6.677,0
-0.424,-1.418,6.456,0
-0.416,-1.113,4.539,0
-0.131,-0.539,0.648,0
0.133,-0.143,-1.231,0
0.193,0.09,-2.756,0
0.059,0.067,-3.149,0
-0.081,-0.049,-2.31,0
-0.142,-0.352,-1.306,0
-0.092,-0.809,0.039,0
-0.099,-1.047,0.651,0
-0.01,-1.312,0.777,0
0.141,-1.279,0.345,0
0.462,-1.073,-0.507,0
0.663,-0.902,-1.232,0
0.737,-0.743,-1.949,0
0.736,-0.695,-2.331,0
0.483,-0.729,-2.636,0
0.265,-0.719,-2.481,0
0.036,-0.773,-2.151,0
-0.069,-0.754,-1.815,0
-0.085,-0.568,-1.416,0
0.08,-0.37,-1.365,0
0.467,-0.08,-1.781,0
0.587,0.085,-1.722,0
0.472,0.05,-1.385,0
0.189,0.016,-1.053,0
-0.04,-0.157,-0.785,0
-0.14,-0.154,-0.517,0
-0.047,-0.131,-0.116,0
-0.066,-0.058,-0.062,0
0,0.064,-0.124,0
0.102,0.16,-0.157,0
0.052,0.189,0.218,0
0.25,0.168,0.527,0
0.477,0.311,1.073,0
0.405,0.432,1.385,0
0.405,0.474,1.456,0
0.36,0.43,1.329,0
0.385,0.408,1.099,0
0.385,0.375,1.01,0
0.427,0.305,1.173,0
0.579,0.411,1.421,0
0.751,0.648,1.653,0
0.292,1.039,1.578,0
-0.127,1.41,0.693,0
0.19,1.218,-0.135,0
0.855,1.091,-0.22,1
1.142,0.966,0.74,0
1.039,0.469,2.755,0
0.517,0.229,4.043,0
-0.028,-0.185,4.74,0
-0.091,-0.408,4.363,0
-0.304,-0.667,3.648,0
-0.341,-0.697,3.09,0
-0.206,-0.58,2.624,0
-0.13,-0.644,2.286,0
0.059,-0.726,1.596,0
0.151,-0.83,0.981,0
0.164,-1.078,0.216,0
0.199,-1.33,-0.193,0
0.286,-1.621,-0.429,0
0.352,-1.655,-0.397,0
0.482,-1.64,-0.204,0
0.52,-1.56,-0.012,0
0.632,-1.375,-0.09,0
0.612,-1.234,-0.602,0
0.703,-0.938,-1.681,0
0.88,-0.717,-2.454,0
0.842,-0.468,-2.705,0
1.139,-0.204,-2.957,0
1.154,-0.221,-2.95,0
1.202,0.185,-3.024,0
1.122,0.318,-2.641,0
1.099,0.335,-2.358,0
0.992,0.39,-1.952,0
0.786,0.267,-1.786,0
0.597,0.132,-1.661,0
0.561,0.095,-1.536,0
0.669,0.074,-1.333,0
0.738,0.06,-1.134,0
0.815,-0.026,-0.878,0
0.76,-0.075,-0.73,0
0.686,-0.096,-0.4,0
0.651,-0.089,-0.296,0
0.603,-0.017,-0.187,0
0.576,0.035,-0.127,0
0.512,0.118,-0.226,0
0.419,0.192,-0.183,0
0.26,0.296,0.179,0
0.138,0.224,0.614,0
-0.12,0.079,1.355,0
-0.183,0.017,1.679,0
-0.184,-0.009,1.689,0
0.035,-0.157,1.959,0
0.222,-0.178,1.606,0
0.203,-0.152,1.277,0
-0.452,0.504,0.804,0
-0.83,0.837,0.242,0
-0.557,0.968,-0.912,0
-0.127,1.127,-1.478,0
0.8,1.455,-1.779,1
1.077,1.285,-0.638,0
1.04,0.304,2.086,0
0.712,-0.471,4.003,0
-0.015,-1.634,6.526,0
-0.446,-2.093,7.719,0
-0.889,-2.1,7.106,0
-0.756,-1.741,4.447,0
-0.306,-0.987,0.604,0
-0.075,-0.65,-1.583,0
-0.083,-0.424,-3.174,0
-0.056,-0.204,-3.415,0
-0.184,-0.188,-2.288,0
-0.194,-0.151,-2.303,0
0.386,-0.442,0.445,0
0.337,-0.683,1.124,0
0.48,-0.943,1.213,0
0.451,-0.879,0.708,0
0.498,-0.912,-0.077,0
0.588,-0.826,-0.561,0
0.455,-0.752,-0.963,0
0.239,-0.842,-1.072,0
0.253,-0.831,-1.076,0
-0.012,-0.742,-1.814,0
-0.054,-0.642,-2.176,0
-0.018,-0.434,-2.163,0
0.163,-0.139,-2.061,0
0.438,0.082,-1.932,0
0.564,0.356,-1.869,0
0.628,0.529,-1.865,0
0.637,0.603,-1.808,0
0.38,0.516,-1.616,0
-0.001,0.286,-1.014,0
-0.18,0.092,-0.648,0
-0.204,0.085,-0.646,0
-0.38,-0.049,-0.35,0
-0.435,-0.152,-0.223,0
-0.431,-0.151,-0.133,0
-0.314,-0.067,0.114,0
-0.078,0.052,0.217,0
0.162,0.278,0.276,0
0.2,0.338,0.302,0
0.116,0.354,0.368,0
-0.004,0.325,0.663,0
-0.229,0.166,1.18,0
-0.341,-0.012,1.564,0
-0.199,-0.013,1.833,0
-0.128,0.065,1.717,0
0.076,0.312,1.145,0
-0.104,0.762,0.684,0
-0.485,1.477,-0.386,0
-0.177,1.49,-0.978,0
0.732,1.304,-1.074,0
1.199,1.405,-0.744,0
1.091,0.9,1.603,1
0.989,0.208,3.505,0
-0.056,-0.303,5.219,0
-0.611,-0.785,5.985,0
-0.557,-1.162,5.94,0
-0.437,-1.048,5.178,0
0.093,-0.627,3.295,0
0.252,-0.342,1.908,0
0.049,-0.319,0.779,0
-0.035,-0.335,0.047,0
-0.285,-0.499,-0.37,0
-0.43,-0.712,-0.733,0
-0.604,-0.969,-1.025,0
-0.499,-1.106,-0.993,0
-0.138,-1.152,-0.794,0
0.16,-1.049,-0.69,0
0.162,-1.047,-0.691,0
0.807,-0.768,-0.491,0
0.717,-0.691,-0.806,0
0.609,-0.651,-0.894,0
0.48,-0.589,-0.999,0
0.35,-0.553,-1.362,0
0.363,-0.566,-1.357,0
0.164,-0.481,-2.121,0
0.295,-0.379,-2.608,0
0.306,-0.279,-2.625,0
0.476,-0.186,-2.009,0
0.467,-0.138,-1.393,0
0.313,-0.16,-1.011,0
0.233,-0.186,-1.18,0
0.054,-0.296,-1.416,0
0.076,-0.292,-1.217,0
0.1,-0.144,-0.803,0
0.09,-0.132,-0.716,0
0.094,-0.134,-1.001,0
0.114,-0.099,-1.207,0
0.084,-0.169,-1.283,0
0.202,-0.133,-1.203,0
0.351,-0.099,-1.022,0
0.277,0,-0.554,0
0.268,-0.006,-0.552,0
0.197,0.219,1.044,0
-0.094,0.181,1.208,0
0.166,0.31,1.296,0
0.224,0.467,1.079,0
0.386,0.428,0.683,0
0.633,0.426,0.54,0
0.729,0.324,0.818,0
0.503,0.29,1.666,0
-0.069,0.621,2.036,0
-0.744,1.209,0.82,0
-0.802,1.287,-0.409,0
-0.555,1.441,-1.513,0
-0.155,1.551,-1.475,0
0.959,1.532,-0.642,1
1.149,1.164,0.926,0
1.145,0.24,3.129,0
0.527,-0.452,4.437,0
-0.261,-1.444,6.089,0
-0.699,-1.747,6.514,0
-0.892,-1.549,4.996,0
-0.585,-1.145,2.722,0
-0.326,-0.555,-0.149,0
-0.232,-0.421,-1.583,0
-0.184,-0.197,-2.753,0
-0.399,-0.092,-2.678,0
-0.52,-0.235,-1.428,0
-0.495,-0.393,-0.113,0
-0.427,-0.786,1.063,0
-0.349,-0.991,1.253,0
-0.278,-1.223,1.132,0
-0.141,-1.311,0.925,0
0.123,-1.159,0.22,0
0.319,-0.979,-0.47,0
0.424,-0.85,-1.39,0
0.381,-0.739,-2.027,0
0.31,-0.696,-2.538,0
0.256,-0.589,-2.793,0
0.123,-0.577,-2.852,0
0.038,-0.549,-2.473,0
-0.075,-0.448,-1.907,0
-0.144,-0.413,-1.776,0
-0.154,-0.305,-1.722,0
-0.076,-0.185,-1.601,0
0.04,-0.028,-1.312,0
0.058,0.032,-1.008,0
0.008,0.093,-0.596,0
-0.071,0.182,-0.385,0
-0.095,0.128,-0.149,0
-0.096,0.168,-0.039,0
-0.073,0.239,0.141,0
-0.046,0.255,0.279,0
-0.114,0.257,0.609,0
-0.124,0.23,0.895,0
-0.142,0.294,0.948,0
-0.181,0.316,0.876,0
0.018,0.447,0.774,0
0.346,0.546,0.626,0
0.673,0.578,0.333,0
0.914,0.484,0.208,0
0.83,0.229,0.765,0
0.536,0.107,1.381,0
0.094,0.645,1.699,0
-0.256,1.144,1.311,0
0.124,1.168,0.042,0
0.5,1.111,-0.238,0
0.854,1.05,0.193,1
0.841,0.766,1.192,0
0.434,-0.1,3.35,0
-0.402,-0.495,4.021,0
-1.015,-0.956,4.213,0
-0.895,-1.117,4.129,0
-0.514,-1.091,3.612,0
-0.309,-0.971,3.099,0
-0.255,-0.882,2.171,0
-0.282,-0.88,1.494,0
-0.278,-0.982,0.857,0
-0.353,-1.165,0.405,0
-0.416,-1.234,-0.053,0
-0.292,-1.27,-0.249,0
0.033,-1.323,-0.258,0
0.284,-1.227,-0.194,0
0.715,-1.055,-0.304,0
0.858,-0.993,-0.324,0
0.922,-0.9,-0.163,0
0.898,-0.837,-0.318,0
0.869,-0.685,-0.963,0
0.808,-0.556,-1.354,0
0.811,-0.568,-1.35,0
0.719,-0.407,-2.09,0
0.676,-0.265,-2.388,0
0.665,-0.187,-2.5,0
0.682,-0.2,-2.502,0
0.573,-0.146,-2.14,0
0.355,-0.092,-1.505,0
0.167,-0.081,-1.318,0
0.214,0.032,-1.529,0
0.293,0.098,-1.504,0
0.273,0.184,-1.353,0
0.157,0.184,-1.229,0
0.025,0.092,-1.225,0
0.026,0.054,-1.394,0
0.056,0.03,-1.267,0
0.101,0,-1.038,0
0.262,-0.046,-0.587,0
0.288,-0.074,-0.391,0
0.157,0.072,0.152,0
0.212,0.123,0.665,0
0.172,0.187,0.966,0
-0.001,0.192,0.877,0
-0.004,0.135,0.509,0
0.073,0.184,0.473,0
0.31,0.185,1.129,0
0.167,0.171,1.801,0
0.115,0.159,2.157,0
0.2,0.189,2.404,0
0.078,0.293,2.666,0
-0.366,0.626,2.236,0
-0.831,1.029,0.12,0
-0.635,1.092,-1.015,0
-0.016,1.253,-1.891,1
0.401,1.268,-2.181,0
0.522,0.859,-1.224,0
0.403,0.248,0.766,0
0.441,-0.383,2.864,0
0.028,-1.007,4.285,0
-0.309,-1.579,5.285,0
-0.82,-1.678,4.89,0
-0.902,-1.384,2.75,0
-0.724,-0.98,0.675,0
-0.522,-0.607,-0.906,0
-0.359,-0.371,-1.731,0
-0.472,-0.212,-1.729,0
-0.315,-0.103,-1.33,0
-0.143,-0.027,-0.49,0
0.027,-0.238,0.036,0
0.37,-0.528,0.701,0
0.437,-0.745,1.107,0
0.317,-1.054,1.616,0
0.196,-1.126,1.597,0
0.025,-1.202,0.839,0
0.09,-1.101,-0.14,0
0.151,-0.86,-1.329,0
0.156,-0.694,-1.842,0
0.234,-0.53,-2.256,0
0.123,-0.396,-2.305,0
0.048,-0.291,-2.191,0
-0.056,-0.153,-2.041,0
-0.094,-0.053,-1.908,0
-0.118,0.055,-1.862,0
-0.118,0.152,-1.736,0
-0.07,0.188,-1.595,0
-0.081,0.19,-1.33,0
-0.19,0.19,-0.921,0
-0.311,0.117,-0.515,0
-0.381,0.105,-0.403,0
-0.4,0.099,-0.4,0
-0.309,0.124,0.014,0
-0.144,0.119,0.562,0
0.036,0.231,0.818,0
0.062,0.25,1.018,0
0.066,0.245,0.953,0
0.024,0.3,0.837,0
0.017,0.237,0.664,0
0.039,0.176,0.659,0
0.165,0.122,0.83,0
0.155,0.096,0.84,0
0.489,-0.022,1.261,0
0.543,0.105,1.237,0
0.287,0.478,1.199,0
-0.155,1.106,0.411,0
0.052,1.155,-0.473,0
0.756,1.109,-0.731,0
1.131,1.119,-0.32,0
1.542,1.024,1.169,1
1.609,0.554,2.864,0
0.791,0.077,4.256,0
-0.082,-0.371,4.678,0
-0.564,-0.913,4.65,0
-0.744,-1.024,4.222,0
-0.733,-1.032,3.202,0
-0.61,-0.899,2.287,0
-0.4,-0.76,1.316,0
-0.324,-0.71,0.584,0
-0.397,-0.864,-0.227,0
-0.43,-0.977,-0.645,0
-0.454,-1.112,-0.961,0
-0.329,-1.282,-0.958,0
-0.163,-1.325,-0.636,0
-0.117,-1.334,-0.237,0
-0.146,-1.393,-0.083,0
-0.18,-1.307,-0.335,0
-0.092,-1.184,-1.085,0
-0.025,-1.002,-1.495,0
0.052,-0.854,-1.796,0
0.242,-0.628,-1.999,0
0.295,-0.439,-2.088,0
0.237,-0.374,-2.021,0
0.231,-0.376,-2.021,0
0.103,-0.307,-1.31,0
0.141,-0.24,-1.029,0
0.106,-0.178,-1.178,0
0.083,-0.073,-1.531,0
0.11,-0.093,-1.75,0
0.224,-0.08,-1.988,0
0.257,0.002,-1.863,0
0.443,0.056,-1.543,0
0.491,0.057,-1.319,0
0.33,-0.043,-1.026,0
0.229,-0.061,-0.856,0
0.246,-0.063,-0.533,0
0.215,-0.09,-0.399,0
0.023,-0.167,-0.444,0
-0.157,-0.204,-0.49,0
-0.196,-0.126,-0.351,0
-0.023,-0.034,-0.221,0
0.265,0.204,-0.189,0
0.475,0.4,-0.005,0
0.577,0.483,0.158,0
0.58,0.518,0.429,0
0.561,0.542,0.833,0
0.322,0.37,1.442,0
0.525,0.238,2.033,0
0.531,0.369,2.549,0
0.236,0.637,2.515,0
-0.188,1.155,1.471,0
-0.517,1.372,-0.562,0
-0.206,1.422,-1.461,1
0.704,1.673,-2.575,0
1.231,1.722,-2.366,0
1.565,1.52,-0.209,0
1.614,0.99,1.934,0
1.054,-0.112,4.727,0
0.286,-1.045,6.623,0
-0.705,-1.783,7.106,0
-1.393,-1.824,5.743,0
-1.225,-1.589,2.857,0
-0.771,-1.179,0.598,0
-0.811,-0.645,-1.757,0
-0.486,-0.492,-2.495,0
-0.352,-0.481,-2.298,0
-0.21,-0.376,-1.451,0
-0.006,-0.659,0.157,0
0.194,-0.916,1.087,0
0.357,-1.12,1.711,0
0.351,-1.272,1.843,0
0.397,-1.356,1.35,0
0.365,-1.345,1.347,0
0.647,-1.049,-0.191,0
0.772,-0.87,-1.02,0
0.695,-0.744,-1.832,0
0.5,-0.74,-2.043,0
0.312,-0.714,-2.138,0
0.186,-0.657,-2.066,0
0.051,-0.523,-1.833,0
-0.013,-0.468,-1.619,0
-0.146,-0.295,-1.343,0
-0.214,-0.226,-1.405,0
-0.302,-0.172,-1.518,0
-0.33,-0.192,-1.715,0
-0.24,-0.023,-1.919,0
-0.093,0.052,-1.846,0
-0.018,0.088,-1.141,0
-0.057,0.069,-0.661,0
0.057,-0.018,-0.045,0
0.085,-0.013,0.408,0
-0.029,-0.122,0.676,0
-0.057,-0.257,0.654,0
-0.173,-0.312,0.54,0
-0.224,-0.255,0.329,0
-0.216,-0.272,0.336,0
-0.048,0.001,-0.162,0
-0.013,0.165,0.026,0
0.091,0.257,0.46,0
0.306,0.361,1.206,0
0.372,0.303,1.537,0
0.437,0.428,2.015,0
0.474,0.765,2.093,0
0.007,1.088,1.35,0
0.106,1.029,0.344,0
0.759,1.045,-0.579,0
1.139,1.137,-0.675,0
1.509,1.088,0.217,1
1.224,0.634,1.521,0
0.281,-0.029,2.834,0
-0.261,-0.491,3.11,0
-0.504,-1.021,3.105,0
-0.429,-1.154,2.888,0
-0.111,-0.976,2.674,0
0.054,-0.77,2.408,0
-0.039,-0.743,1.803,0
-0.217,-0.78,1.2,0
-0.147,-0.827,0.487,0
-0.047,-0.926,0.038,0
0.002,-0.987,-0.298,0
0.102,-1.083,-0.166,0
0.12,-1.07,-0.171,0
0.27,-1.159,0.552,0
0.42,-1.078,0.271,0
0.561,-0.988,-0.082,0
0.683,-0.763,-0.671,0
0.735,-0.661,-1.068,0
0.727,-0.482,-1.527,0
0.761,-0.371,-1.796,0
0.717,-0.304,-1.996,0
0.679,-0.256,-1.906,0
0.523,-0.273,-1.591,0
0.319,-0.319,-1.17,0
0.138,-0.257,-0.886,0
0.107,-0.184,-0.904,0
0.1,-0.057,-1.258,0
0.177,0.051,-1.646,0
0.309,0.198,-1.968,0
0.429,0.273,-2.058,0
0.514,0.364,-1.813,0
0.636,0.34,-1.598,0
0.605,0.317,-0.975,0
0.571,0.285,-0.512,0
0.533,0.112,-0.161,0
0.416,-0.014,-0.022,0
0.175,-0.168,0.528,0
0.111,-0.14,0.774,0
0.127,-0.154,0.78,0
0.128,-0.044,0.276,0
0.152,0.066,-0.142,0
0.16,0.066,-0.41,0
0.226,0.344,-0.436,0
0.217,0.464,0.139,0
0.262,0.408,1.186,0
0.235,0.384,1.747,0
0.396,0.379,1.955,0
0.376,0.371,2.309,0
-0.061,0.765,2.063,0
-0.059,1.144,0.916,0
0.105,1.245,-0.619,0
0.253,1.28,-1.083,0
0.426,1.328,-0.752,1
0.299,1.168,0.218,0
0.167,0.412,1.542,0
0.399,-0.23,2.546,0
0.343,-0.984,3.814,0
0.102,-1.5,4.923,0
-0.277,-1.961,5.695,0
-0.761,-1.85,4.89,0
-0.627,-1.389,1.646,0
-0.427,-1.091,-0.059,0
-0.195,-0.555,-3.018,0
0.009,-0.468,-3.949,0
0.216,-0.188,-3.761,0
0.162,-0.12,-2.484,0
0.025,-0.307,-0.429,0
0.123,-0.49,0.559,0
0.008,-0.998,1.56,0
0.02,-1.107,1.512,0
0.006,-1.283,1.161,0
0.25,-1.19,0.721,0
0.51,-0.915,0.071,0
0.653,-0.677,-0.577,0
0.656,-0.473,-1.293,0
0.588,-0.421,-1.805,0
0.38,-0.357,-2.321,0
0.282,-0.363,-2.486,0
0.202,-0.311,-2.266,0
0.224,-0.244,-1.949,0
0.262,-0.208,-1.52,0
0.249,-0.127,-1.315,0
0.416,0.036,-1.374,0
0.642,0.238,-1.455,0
0.797,0.441,-1.518,0
0.724,0.465,-1.374,0
0.371,0.335,-1.038,0
0.132,0.219,-0.79,0
-0.247,0.07,-0.129,0
-0.295,0.007,0.251,0
-0.342,-0.047,0.68,0
-0.352,-0.1,1.021,0
-0.341,-0.093,1.019,0
-0.37,-0.054,0.701,0
-0.107,0.123,0.332,0
-0.125,0.224,-0.118,0
-0.131,0.24,-0.26,0
0.004,0.242,-0.024,0
0.269,0.291,0.581,0
0.28,0.272,1.128,0
0.144,0.163,1.667,0
0.096,0.399,1.846,0
-0.091,1.046,1.26,0
-0.163,1.336,0.305,0
0.274,1.157,-0.841,0
0.58,1.223,-1.131,0
1.106,1.244,-0.672,1
1.331,0.894,0.603,0
1.163,0.431,2.612,0
0.913,0.105,3.628,0
0.57,-0.558,4.448,0
0.228,-1.113,5.167,0
-0.019,-1.269,5.188,0
-0.221,-1.2,4.44,0
-0.387,-1.154,2.406,0
-0.285,-1.028,1.09,0
-0.153,-0.993,-0.506,0
-0.048,-0.844,-1.29,0
0.006,-0.878,-1.617,0
0.145,-0.798,-1.594,0
0.322,-0.878,-0.964,0
0.428,-1,-0.61,0
0.53,-1.031,-0.44,0
0.638,-0.984,-0.51,0
0.734,-1.005,-0.448,0
0.827,-0.893,-0.387,0
0.797,-0.772,-0.484,0
0.737,-0.679,-0.787,0
0.602,-0.544,-1.29,0
0.45,-0.447,-1.713,0
0.346,-0.382,-2.341,0
0.338,-0.313,-2.73,0
0.434,-0.142,-2.757,0
0.464,-0.029,-2.614,0
0.446,0.054,-2.448,0
0.526,0.22,-2.009,0
0.559,0.411,-1.406,0
0.448,0.362,-1.185,0
0.248,0.27,-0.738,0
0.138,0.222,-0.508,0
0.004,0.18,-0.439,0
0.055,0.172,-0.441,0
0.136,0.195,-0.062,0
0.258,0.287,0.118,0
0.339,0.304,-0.045,0
0.428,0.315,-0.244,0
0.492,0.428,0.069,0
0.482,0.348,0.397,0
0.398,0.34,0.964,0
0.337,0.272,1.089,0
0.353,0.252,1.097,0
0.127,0.218,1.327,0
0.244,0.261,1.655,0
0.361,0.377,1.901,0
0.579,0.557,1.951,0
0.623,0.666,1.518,0
0.64,0.621,1.536,0
-0.504,1.263,-0.101,0
