accelX,accelY,accelZ,label
-1.707,-1.496,1.13,1
-1.888,-1.274,0.844,0
-1.914,-0.994,0.583,0
-1.945,-0.765,0.238,0
-1.934,-0.871,0.149,0
-1.864,-1.223,0.222,0
-1.837,-1.579,0.621,0
-1.572,-2.152,2.057,0
-1.517,-2.438,3.393,0
-1.807,-2.793,4.795,0
-2.202,-2.843,5.06,0
-2.537,-2.76,3.982,0
-2.546,-2.695,2.67,0
-2.229,-2.205,0.459,0
-2.097,-1.998,-0.36,0
-1.912,-1.958,-1.447,0
-1.944,-1.945,-1.774,0
-2.068,-1.919,-1.396,0
-2.022,-1.976,-0.795,0
-1.779,-2.129,0.529,0
-1.704,-2.188,1.165,0
-1.613,-2.23,1.765,0
-1.506,-2.155,1.791,0
-1.45,-2.05,1.026,0
-1.414,-1.963,0.339,0
-1.209,-1.763,-0.827,0
-1.105,-1.558,-1.385,0
-1.238,-1.43,-1.827,0
-1.432,-1.428,-2.015,0
-1.633,-1.325,-1.773,0
-1.713,-1.289,-1.482,0
-1.827,-1.296,-1.176,0
-1.988,-1.192,-0.915,0
-2.165,-1.107,-0.277,0
-2.205,-1.072,-0.014,0
-2.212,-1.049,0.399,0
-2.13,-0.964,0.51,0
-2.136,-0.954,0.507,0
-2.095,-0.934,0.479,0
-1.923,-0.97,0.498,0
-1.823,-1.034,0.615,0
-1.678,-1.103,1.064,0
-1.669,-1.13,1.427,0
-1.699,-1.238,1.911,0
-1.693,-1.195,2.174,0
-1.692,-1.1,2.463,0
-1.662,-1.094,2.45,0
-1.593,-1.055,2.022,0
-1.546,-1.031,1.636,0
-1.456,-0.849,1.139,0
-1.429,-0.733,1.078,0
-1.435,-0.773,1.097,0
-1.395,-0.383,0.861,0
-1.153,-0.664,0.567,0
-1.195,-0.817,0.641,1
-1.189,-0.827,0.645,0
-1.356,-0.862,1.44,0
-1.497,-0.811,1.678,0
-1.477,-0.836,1.483,0
-1.004,-1.206,0.835,0
-0.753,-1.431,0.768,0
-0.651,-1.796,1.695,0
-0.933,-2.005,2.784,0
-1.858,-2.33,4.04,0
-2.429,-2.5,4.331,0
-3.168,-2.691,4.011,0
-3.299,-2.749,3.379,0
-2.863,-2.599,1.976,0
-2.438,-2.327,1.172,0
-1.931,-1.811,0.212,0
-1.799,-1.707,-0.026,0
-1.604,-1.635,-0.485,0
-1.592,-1.564,-0.702,0
-1.57,-1.601,-0.914,0
-1.525,-1.664,-0.904,0
-1.573,-1.714,-0.409,0
-1.561,-1.66,-0.038,0
-1.616,-1.57,0.441,0
-1.702,-1.478,0.544,0
-1.628,-1.284,0.122,0
-1.651,-1.162,-0.511,0
-1.835,-1.12,-1.375,0
-1.84,-1.091,-1.794,0
-1.665,-0.925,-2.07,0
-1.449,-0.746,-2.008,0
-1.313,-0.567,-1.51,0
-1.35,-0.536,-1.189,0
-1.582,-0.651,-0.653,0
-1.746,-0.744,-0.373,0
-1.751,-0.741,-0.373,0
-2.006,-0.902,-0.06,0
-1.98,-0.904,-0.178,0
-1.931,-0.896,-0.181,0
-1.817,-0.815,-0.167,0
-1.73,-0.801,-0.199,0
-1.727,-0.812,-0.195,0
-1.441,-0.619,-0.318,0
-1.601,-0.584,-0.232,0
-1.864,-0.689,0.016,0
-1.855,-0.69,0.015,0
-2.588,-0.902,1.081,0
-2.538,-0.876,1.671,0
-2.312,-0.847,1.757,0
-2.042,-0.831,1.846,0
-1.882,-0.729,2.071,0
-1.458,-0.395,2.254,0
-1.195,-0.111,2.045,0
-1.205,-0.14,2.06,0
-1.191,0.377,1.16,0
-1.349,0.434,0.538,0
-1.632,0.514,0.195,1
-2.182,0.445,-0.285,0
-2.298,0.358,-0.482,0
-2.394,-0.087,-0.239,0
-2.483,-0.451,0.349,0
-2.145,-1.062,2.288,0
-1.746,-1.332,3.94,0
-1.403,-1.77,5.889,0
-1.405,-1.827,6.458,0
-1.574,-1.747,5.884,0
-1.649,-1.653,4.386,0
-1.727,-1.481,1.599,0
-1.867,-1.349,0.346,0
-2.261,-1.454,-1.329,0
-2.406,-1.502,-1.927,0
-2.943,-1.462,-2.129,0
-3.055,-1.483,-1.782,0
-2.761,-1.494,-0.825,0
-2.463,-1.423,-0.173,0
-2.148,-1.376,0.774,0
-1.999,-1.365,0.988,0
-1.784,-1.356,0.67,0
-1.773,-1.344,0.348,0
-1.951,-1.403,-0.383,0
-2.061,-1.387,-0.895,0
-2.16,-1.358,-1.473,0
-2.127,-1.278,-1.704,0
-2.076,-1.014,-1.762,0
-1.925,-0.812,-1.715,0
-1.636,-0.478,-1.621,0
-1.627,-0.261,-1.524,0
-1.834,-0.16,-1.345,0
-1.978,-0.163,-1.249,0
-2.296,-0.263,-0.999,0
-2.396,-0.366,-0.85,0
-2.395,-0.356,-0.854,0
-2.34,-0.278,-0.155,0
-2.182,-0.252,0.239,0
-2.072,-0.238,0.269,0
-1.99,-0.272,0.216,0
-1.936,-0.273,0.23,0
-1.882,-0.258,0.459,0
-1.879,-0.251,0.456,0
-2.108,-0.256,1.359,0
-2.247,-0.393,1.805,0
-2.375,-0.613,2.658,0
-2.269,-0.638,2.88,0
-2.054,-0.629,2.646,0
-2.003,-0.681,2.232,0
-2.045,-0.402,1.402,0
-2.136,-0.141,1.021,0
-1.921,0.085,0.112,0
-1.551,0.05,-0.35,0
-1.055,0.312,-0.501,0
-1.069,0.509,-0.102,1
-1.326,0.479,0.762,0
-1.644,0.43,1.283,0
-2.134,-0.051,1.849,0
-1.928,-0.355,1.828,0
-1.211,-0.852,2.208,0
-0.985,-1.035,2.923,0
-0.98,-0.966,2.896,0
-2.15,-1.577,5.125,0
-2.997,-1.83,5.544,0
-3.311,-1.905,5.01,0
-3.303,-1.839,3.267,0
-2.773,-1.612,2.027,0
-1.752,-1.035,-0.028,0
-1.556,-0.863,-0.616,0
-1.466,-0.705,-1.065,0
-1.447,-0.635,-1.237,0
-1.49,-0.618,-1.491,0
-1.603,-0.686,-1.598,0
-1.658,-0.778,-1.714,0
-1.609,-0.797,-1.73,0
-1.41,-0.647,-1.655,0
-1.364,-0.582,-1.533,0
-1.254,-0.401,-1.296,0
-1.276,-0.3,-1.093,0
-1.361,-0.094,-0.928,0
-1.437,-0.044,-1.017,0
-1.604,-0.064,-1.494,0
-1.738,-0.14,-1.758,0
-1.986,-0.2,-2.046,0
-2.036,-0.204,-2.03,0
-1.935,-0.045,-1.552,0
-1.828,0.022,-1.131,0
-1.816,0.012,-0.513,0
-1.873,0.003,-0.295,0
-1.55,0.179,-0.163,0
-1.273,0.281,0.012,0
-1.117,0.284,0.224,0
-1.151,0.204,0.147,0
-1.333,-0.026,-0.025,0
-1.426,-0.129,-0.075,0
-1.408,-0.14,-0.074,0
-1.905,-0.179,0.102,0
-2.068,-0.227,0.311,0
-2.178,-0.286,0.406,0
-2.233,-0.208,0.638,0
-2.055,-0.054,0.758,0
-2.058,-0.078,0.767,0
-1.454,0.223,0.636,0
-1.238,0.41,0.531,0
-1.161,0.557,0.579,0
-1.323,0.692,1.069,0
-1.438,0.659,1.393,0
-1.628,0.588,1.531,0
-1.753,0.556,1.431,1
-2.061,0.644,0.99,0
-2.218,0.716,0.648,0
-1.979,0.825,-0.023,0
-1.818,0.842,-0.292,0
-1.407,0.669,-0.342,0
-1.122,0.256,0.406,0
-0.889,-0.501,2.259,0
-1.164,-0.879,3.349,0
-2.027,-1.356,5.082,0
-2.542,-1.513,5.622,0
-3.129,-1.556,4.919,0
-3.265,-1.497,3.617,0
-3.22,-1.469,3.599,0
-2.839,-0.746,-0.935,0
-2.513,-0.366,-2.878,0
-2.412,-0.226,-3.656,0
-2.497,-0.083,-4.33,0
-2.702,-0.111,-4.353,0
-2.969,-0.226,-3.821,0
-2.802,-0.367,-3.137,0
-2.316,-0.692,-1.5,0
-2.272,-0.719,-0.776,0
-2.289,-0.853,0.606,0
-2.23,-0.771,1.271,0
-2.013,-0.475,1.671,0
-1.845,-0.219,1.543,0
-1.561,0.013,0.696,0
-1.58,0.092,-0.053,0
-1.764,0.163,-1.045,0
-1.872,0.128,-1.308,0
-2.133,0.095,-1.41,0
-2.229,0.121,-1.331,0
-2.139,0.173,-1.041,0
-2.066,0.231,-0.876,0
-2.057,0.244,-0.881,0
-2.016,0.382,-0.389,0
-1.826,0.477,0.003,0
-1.725,0.554,0.237,0
-1.677,0.507,0.572,0
-1.665,0.522,0.714,0
-1.676,0.482,0.958,0
-1.644,0.39,0.977,0
-1.713,0.325,0.86,0
-1.769,0.369,0.819,0
-1.744,0.423,0.706,0
-1.794,0.384,0.571,0
-1.708,0.331,0.304,0
-1.541,0.39,0.327,0
-1.217,0.607,0.838,0
-1.178,0.739,1.264,0
-1.292,0.907,1.551,0
-1.364,0.941,1.228,0
-1.342,0.922,1.231,0
-1.91,0.48,-0.129,0
-1.998,0.302,-0.16,0
-2.003,0.343,0.09,1
-2.052,0.419,0.764,0
-2.067,0.433,1.006,0
-1.898,0.399,1.103,0
-1.732,0.234,1.025,0
-1.469,-0.14,1.073,0
-1.461,-0.419,1.309,0
-1.623,-0.596,2.125,0
-1.832,-0.561,2.548,0
-2.265,-0.592,2.648,0
-2.573,-0.64,2.416,0
-2.465,-0.582,1.362,0
-2.163,-0.465,0.598,0
-1.724,-0.166,-0.689,0
-1.532,-0.118,-1.06,0
-1.232,-0.098,-1.098,0
-1.116,-0.068,-0.908,0
-1.065,-0.11,-0.286,0
-1.156,-0.203,0.024,0
-1.369,-0.401,0.421,0
-1.395,-0.471,0.401,0
-1.377,-0.391,0.122,0
-1.261,-0.212,-0.295,0
-0.887,0.048,-1.097,0
-0.674,0.201,-1.595,0
-0.524,0.408,-2.118,0
-0.563,0.51,-2.258,0
-0.718,0.647,-2.422,0
-0.912,0.676,-2.369,0
-1.262,0.584,-2.006,0
-1.444,0.563,-1.85,0
-1.686,0.523,-1.657,0
-1.748,0.529,-1.527,0
-1.633,0.645,-1.39,0
-1.491,0.723,-1.217,0
-1.409,0.547,-0.957,0
-1.398,0.521,-0.841,0
-1.272,0.584,-0.137,0
-1.119,0.619,0.381,0
-1.147,0.604,1.117,0
-1.329,0.575,1.447,0
-1.645,0.445,1.571,0
-1.763,0.363,1.294,0
-1.954,0.34,0.319,0
-1.998,0.346,-0.243,0
-1.797,0.412,-0.663,0
-1.585,0.494,-0.389,0
-1.587,0.47,-0.382,0
-1.312,0.59,1.209,0
-1.204,0.623,1.899,0
-1.206,0.611,1.992,0
-1.321,0.662,1.395,0
-1.376,0.645,0.621,0
-1.386,0.689,-0.578,0
-1.371,0.706,-0.918,1
-1.623,0.951,-0.881,0
-1.787,1.03,-0.663,0
-2.12,0.971,-0.333,0
-2.315,0.882,-0.184,0
-2.203,0.566,-0.171,0
-1.701,0.355,0.073,0
-0.547,0.051,1.255,0
-0.116,-0.032,2.287,0
-0.147,-0.269,4.099,0
-0.418,-0.157,5.115,0
-0.941,-0.131,5.45,0
-1.22,-0.072,4.48,0
-1.618,-0.035,1.592,0
-1.713,0.19,-0.082,0
-2.026,0.261,-1.933,0
-2.052,0.099,-2.844,0
-2.397,0.05,-3.857,0
-2.715,0.116,-3.901,0
-2.697,0.177,-2.934,0
-2.217,0.177,-2.016,0
-1.651,0.31,-0.602,0
-1.65,0.302,-0.059,0
-1.626,0.111,0.264,0
-1.634,0.151,0.32,0
-1.693,0.217,0.198,0
-1.696,0.175,-0.118,0
-1.69,0.189,-0.122,0
-1.926,0.195,-1.16,0
-2.036,0.255,-1.575,0
-2.095,0.291,-1.634,0
-2.228,0.474,-1.327,0
-2.24,0.611,-1.078,0
-2.08,0.813,-0.791,0
-1.96,0.945,-0.698,0
-1.815,1.12,-0.767,0
-1.793,1.162,-0.856,0
-1.789,1.114,-1.036,0
-1.832,1.041,-1.08,0
-1.94,0.895,-0.842,0
-2.023,0.796,-0.549,0
-2.064,0.672,-0.045,0
-2.027,0.613,0.274,0
-2.098,0.513,0.652,0
-2.143,0.537,0.72,0
-1.927,0.784,0.743,0
-1.71,0.931,0.646,0
-1.59,1.078,0.567,0
-1.591,1.142,0.605,0
-1.607,1.144,0.886,0
-1.568,1.046,1.008,0
-1.497,0.948,1.092,0
-1.53,1.002,1.152,0
-1.723,1.206,1.143,0
-1.734,1.252,0.914,0
-1.554,1.06,0.563,0
-1.435,1.009,0.627,1
-1.318,1.151,1.084,0
-1.34,1.14,1.457,0
-1.451,0.943,1.882,0
-1.587,0.86,1.923,0
-1.634,0.534,1.506,0
-1.525,0.275,1.227,0
-1.407,-0.062,1.321,0
-1.471,-0.15,1.541,0
-1.875,-0.27,1.92,0
-2.137,-0.34,2.043,0
-2.267,-0.333,1.66,0
-2.181,-0.252,1.218,0
-1.776,-0.056,0.39,0
-1.45,0.056,-0.105,0
-1.133,0.197,-0.506,0
-0.981,0.227,-0.497,0
-0.987,0.234,-0.498,0
-0.765,0.148,-0.521,0
-0.933,0.009,-0.451,0
-1.014,-0.049,-0.253,0
-1.094,-0.049,-0.147,0
-1.264,-0.037,-0.227,0
-1.44,0.037,-0.452,0
-1.382,0.197,-0.681,0
-1.377,0.2,-0.682,0
-1.089,0.829,-1.756,0
-1.105,1.158,-2.291,0
-1.126,1.233,-2.373,0
-0.983,1.39,-2.487,0
-0.917,1.482,-2.592,0
-1.135,1.457,-2.474,0
-1.25,1.293,-2.314,0
-1.355,1.19,-1.773,0
-1.336,1.212,-1.389,0
-1.243,1.175,-0.899,0
-1.239,1.132,-0.721,0
-1.294,1.102,-0.599,0
-1.276,1.068,-0.778,0
-1.274,1.063,-0.778,0
-1.374,0.963,-1.09,0
-1.256,0.904,-1.03,0
-1.309,0.95,-0.75,0
-1.595,1.048,-0.254,0
-1.663,1.07,-0.026,0
-1.555,1.198,0.238,0
-1.284,1.317,0.203,0
-0.858,1.506,0.124,0
-0.728,1.617,0.143,0
-0.668,1.571,0.429,0
-0.738,1.524,0.672,0
-0.916,1.353,0.873,0
-1.024,1.158,1.026,0
-1.161,1.119,1.385,0
-1.203,1.217,1.379,0
-1.229,1.523,1.002,0
-1.153,1.531,0.584,1
-1.095,1.545,0.147,0
-1.122,1.708,0.053,0
-1.099,1.697,0.053,0
-1.305,2.083,0.284,0
-1.253,1.936,0.207,0
-1.241,1.768,0.121,0
-1.29,1.125,0.512,0
-1.253,0.648,1.233,0
-1.235,0.267,2.758,0
-1.477,0.062,3.655,0
-2.052,-0.205,4.159,0
-2.347,-0.176,3.692,0
-2.433,-0.01,1.905,0
-2.162,0.309,0.459,0
-1.842,0.877,-1.454,0
-1.6,0.941,-2.114,0
-1.591,0.969,-2.925,0
-1.722,0.906,-2.998,0
-1.849,0.672,-1.982,0
-1.677,0.5,-0.979,0
-1.439,0.267,0.553,0
-1.435,0.171,1.279,0
-1.52,0.098,1.925,0
-1.381,0.233,1.751,0
-0.986,0.448,0.377,0
-0.777,0.541,-0.561,0
-0.431,0.751,-1.875,0
-0.491,0.866,-2.481,0
-0.809,0.926,-2.849,0
-0.899,0.909,-2.977,0
-1.084,0.952,-2.829,0
-1.201,1.004,-2.592,0
-1.181,1.163,-2.215,0
-1.077,1.161,-2,0
-1.171,1.254,-1.305,0
-1.283,1.306,-0.872,0
-1.312,1.371,-0.303,0
-1.238,1.37,0.116,0
-1.154,1.3,0.739,0
-1.055,1.335,0.828,0
-1.004,1.317,0.792,0
-1.001,1.216,0.663,0
-1.059,0.998,0.382,0
-1.068,0.922,0.306,0
-1.08,0.954,0.538,0
-0.964,1.002,0.854,0
-0.791,1.155,1.151,0
-0.85,1.144,1.279,0
-0.954,1.1,1.454,0
-0.896,1.101,1.469,0
-0.819,1.213,1.467,0
-0.693,1.319,1.418,0
-0.567,1.599,0.859,0
-0.524,1.7,0.339,0
-0.279,1.549,-0.426,0
-0.146,1.397,-0.541,1
-0.221,1.235,-0.066,0
-0.34,1.164,0.583,0
-0.402,1.061,1.724,0
-0.488,0.972,2.278,0
-0.441,1.118,2.152,0
-0.132,1.277,1.53,0
0.364,1.431,0.161,0
0.473,1.333,-0.371,0
0.589,1.086,-0.763,0
0.293,0.889,-0.617,0
-0.613,0.372,0.165,0
-0.956,0.047,0.659,0
-1.375,-0.207,1.112,0
-1.569,-0.363,1.066,0
-1.696,-0.485,0.592,0
-1.671,-0.465,0.586,0
-0.959,-0.092,-0.496,0
-0.594,0.096,-0.815,0
-0.106,0.238,-1.365,0
0.028,0.185,-1.686,0
-0.133,0.111,-2.106,0
-0.402,0.049,-2.03,0
-0.761,-0.154,-1.443,0
-0.953,-0.205,-1.037,0
-1.08,-0.004,-0.507,0
-0.962,0.181,-0.442,0
-0.588,0.509,-0.842,0
-0.428,0.736,-1.291,0
-0.355,1.041,-2.075,0
-0.285,1.175,-2.397,0
-0.214,1.298,-2.567,0
-0.26,1.314,-2.57,0
-0.385,1.278,-2.39,0
-0.453,1.236,-2.109,0
-0.454,1.241,-2.11,0
-0.464,1.204,-1.437,0
-0.493,1.157,-0.963,0
-0.471,1.168,-0.713,0
-0.259,1.242,-0.595,0
-0.236,1.298,-0.57,0
-0.229,1.298,-0.571,0
-0.605,1.102,-0.494,0
-0.998,1.113,-0.15,0
-1.219,1.092,0.075,0
-1.343,1.053,0.361,0
-1.339,1.023,0.527,0
-1.232,1.092,0.912,0
-1.174,1.125,1.07,0
-0.971,1.095,1.064,0
-0.779,1.145,1.117,0
-0.499,1.216,1.349,0
-0.406,1.267,1.678,0
-0.453,1.394,1.963,0
-0.441,1.64,1.92,1
-0.324,1.879,1.561,0
-0.27,1.857,1.131,0
-0.421,2.015,0.317,0
-0.539,2.264,-0.182,0
-0.617,2.382,-0.819,0
-0.718,2.267,-1.206,0
-0.859,1.829,-1.669,0
-0.758,1.349,-1.431,0
-0.44,0.471,0.268,0
-0.33,0.18,1.593,0
-0.47,-0.274,3.715,0
-0.689,-0.39,4.52,0
-1.042,-0.26,4.292,0
-0.944,-0.151,2.797,0
-0.678,0.208,-0.087,0
-0.529,0.57,-1.365,0
-0.276,0.869,-2.906,0
-0.286,0.965,-3.472,0
-0.581,1.127,-3.591,0
-0.686,1.053,-3.206,0
-0.716,0.703,-1.928,0
-0.691,0.484,-0.902,0
-0.751,0.521,-0.908,0
-0.656,0.143,0.548,0
-0.565,0.273,0.567,0
-0.544,0.389,0.425,0
-0.454,0.497,-0.12,0
-0.407,0.532,-0.623,0
-0.444,0.653,-1.471,0
-0.51,0.739,-1.9,0
-0.673,0.819,-2.231,0
-0.743,0.902,-2.196,0
-0.762,1.076,-1.996,0
-0.714,1.219,-1.823,0
-0.757,1.3,-1.618,0
-0.833,1.304,-1.592,0
-0.847,1.323,-1.422,0
-0.93,1.248,-1.289,0
-1.03,1.219,-1.122,0
-0.955,1.237,-1.018,0
-0.815,1.192,-0.602,0
-0.79,1.166,-0.221,0
-0.647,1.13,0.239,0
-0.647,1.01,0.416,0
-0.56,0.971,0.718,0
-0.456,1.166,0.928,0
-0.394,1.325,1.205,0
-0.43,1.338,1.256,0
-0.553,1.388,1.311,0
-0.378,1.285,1.255,0
0.093,1.218,1.347,0
0.231,1.269,1.42,0
0.411,1.265,1.472,0
0.435,1.342,1.535,0
0.195,1.614,1.322,0
0.112,1.532,0.997,1
0.211,1.235,0.394,0
0.233,1.142,0.264,0
0.175,1.225,0.732,0
0.134,1.238,1.103,0
-0.067,1.195,1.336,0
-0.246,1.226,1.13,0
-0.411,1.152,0.393,0
-0.247,0.933,0.008,0
0.402,0.709,-0.282,0
0.611,0.564,-0.304,0
0.529,0.324,0.547,0
0.354,0.186,1.214,0
-0.08,-0.008,1.901,0
-0.392,-0.101,2.081,0
-0.784,-0.343,1.898,0
-0.788,-0.422,1.47,0
-0.539,-0.177,0.374,0
-0.299,0.029,-0.353,0
0.019,0.224,-1.37,0
0.22,0.258,-1.849,0
0.339,0.273,-2.101,0
0.347,0.259,-2.017,0
0.286,0.27,-1.59,0
0.238,0.298,-1.335,0
0.23,0.428,-1.194,0
0.241,0.534,-1.264,0
0.334,0.717,-1.673,0
0.443,0.852,-2.008,0
0.86,1.194,-2.548,0
1.009,1.342,-2.696,0
0.962,1.445,-2.53,0
0.936,1.528,-2.214,0
0.78,1.547,-1.409,0
0.541,1.489,-1.099,0
0.093,1.283,-1.072,0
-0.131,1.099,-1.131,0
-0.41,0.917,-1.254,0
-0.433,0.865,-1.309,0
-0.179,0.891,-1.25,0
0.16,1.008,-1.014,0
0.629,1.142,-0.542,0
0.643,1.14,-0.343,0
0.672,1.305,0.038,0
0.746,1.369,0.161,0
0.625,1.427,0.274,0
0.366,1.318,0.311,0
-0.002,1.068,0.153,0
-0.194,0.953,0.226,0
-0.311,0.85,0.478,0
-0.218,0.845,0.858,0
-0.041,0.84,1.507,0
0.106,0.945,1.676,0
0.369,1.075,2.027,0
0.593,1.117,2.131,1
0.812,1.325,1.806,0
0.793,1.561,1.234,0
0.67,1.653,0.244,0
0.604,1.659,-0.235,0
0.359,1.886,-0.563,0
0.11,1.994,-0.566,0
-0.072,2,-0.639,0
-0.234,1.912,-0.667,0
-0.29,1.609,-0.723,0
-0.055,1.276,-0.634,0
0.461,0.379,0.686,0
0.594,0.178,1.845,0
0.373,-0.234,4.008,0
-0.041,-0.443,4.844,0
-0.762,-0.555,4.652,0
-1.005,-0.485,3.501,0
-1.073,-0.368,0.975,0
-0.922,-0.046,-0.401,0
-0.728,0.32,-2.197,0
-0.789,0.429,-3.143,0
-1.026,0.62,-3.589,0
-1.061,0.611,-3.32,0
-0.727,0.447,-2.35,0
-0.551,0.451,-1.644,0
-0.237,0.591,-0.618,0
-0.006,0.541,-0.061,0
0.35,0.422,0.324,0
0.401,0.558,0.229,0
0.479,0.744,-0.546,0
0.503,0.73,-1.095,0
0.404,0.727,-1.586,0
0.33,0.802,-1.637,0
0.176,0.903,-1.575,0
0.1,0.926,-1.439,0
0.13,1.009,-1.325,0
0.164,1.111,-1.422,0
0.164,1.105,-1.421,0
-0.014,1.163,-1.789,0
-0.099,1.158,-1.749,0
-0.131,1.127,-1.694,0
-0.271,1.075,-1.441,0
-0.276,1.088,-1.253,0
-0.066,1.042,-0.826,0
0.071,1.002,-0.447,0
0.217,0.918,0.09,0
0.194,0.808,0.392,0
-0.258,0.639,1.278,0
-0.43,0.722,1.907,0
-0.314,0.95,2.502,0
-0.191,0.936,2.31,0
0.065,0.859,1.423,0
0.342,0.88,0.874,0
0.724,1.074,0.363,0
0.858,1.086,0.373,0
0.876,1.205,0.556,0
0.669,1.347,0.512,0
0.581,1.464,0.149,0
0.674,1.374,0.048,0
0.807,1.186,-0.215,0
0.677,1.203,-0.256,1
0.217,1.286,0.019,0
-0.001,1.32,0.232,0
0.004,1.328,0.231,0
-0.481,1.547,-0.042,0
-0.472,1.564,-0.045,0
0.558,0.839,-0.689,0
0.772,0.104,0.528,0
0.829,-0.105,1.663,0
0.351,-0.352,3.74,0
-0.112,-0.444,4.486,0
-0.788,-0.531,4.739,0
-0.834,-0.427,4.262,0
-0.603,-0.275,2.559,0
-0.256,0.002,1.103,0
0.27,0.494,-0.65,0
0.597,0.532,-1.468,0
0.796,0.522,-2.477,0
0.799,0.487,-2.638,0
0.909,0.415,-2.264,0
0.934,0.405,-1.65,0
0.843,0.383,-0.587,0
0.717,0.312,-0.103,0
0.776,0.335,-0.301,0
0.917,0.451,-0.761,0
1.03,0.712,-1.575,0
1.112,0.781,-1.964,0
1.28,0.969,-2.389,0
1.315,1.094,-2.508,0
1.088,1.26,-2.619,0
0.82,1.219,-2.617,0
0.408,1.07,-2.651,0
0.256,0.963,-2.527,0
0.257,0.951,-2.525,0
0.342,0.985,-1.765,0
0.795,1.127,-1.162,0
0.996,1.179,-0.768,0
1.105,1.119,-0.458,0
1.106,1.044,-0.434,0
1,0.931,-0.149,0
0.871,0.848,0.011,0
0.611,0.72,0.111,0
0.349,0.69,0.164,0
-0.043,0.649,0.119,0
-0.147,0.662,-0.002,0
-0.252,0.802,-0.372,0
-0.228,0.908,-0.508,0
0.002,1.062,-0.385,0
0.197,1.111,-0.085,0
0.349,1.141,0.884,0
0.444,1.19,1.401,0
0.306,1.066,1.966,0
0.216,1.174,2.084,0
0.411,1.388,2.014,0
0.686,1.469,1.741,0
0.644,1.601,0.926,0
0.365,1.706,0.438,1
-0.026,1.907,-0.235,0
-0.236,2.07,-0.572,0
-0.283,1.98,-1.127,0
-0.012,1.695,-1.38,0
0.474,1.007,-0.369,0
0.807,0.667,0.847,0
0.896,-0.008,3.721,0
0.461,-0.416,5.121,0
-0.721,-0.65,5.888,0
-1.08,-0.535,5.252,0
-1.013,-0.39,2.757,0
-0.679,-0.031,0.701,0
-0.299,0.321,-1.843,0
-0.2,0.48,-3.06,0
-0.319,0.775,-4.047,0
-0.312,0.88,-3.995,0
-0.224,0.963,-2.667,0
-0.127,0.885,-1.467,0
-0.153,0.502,0.171,0
-0.346,0.231,0.799,0
-0.537,0.099,1.097,0
-0.535,0.149,0.836,0
-0.28,0.212,-0.103,0
-0.162,0.324,-0.711,0
-0.153,0.31,-0.708,0
0.053,0.665,-1.708,0
-0.077,0.798,-1.9,0
-0.195,0.787,-1.913,0
-0.329,0.854,-1.754,0
-0.299,0.929,-1.63,0
-0.168,1.056,-1.549,0
-0.105,1.081,-1.45,0
-0.034,1.083,-1.353,0
0.093,1.118,-1.366,0
0.311,1.186,-1.13,0
0.281,1.16,-0.931,0
0.149,1.009,-0.687,0
-0.016,0.861,-0.506,0
-0.237,0.518,-0.204,0
-0.253,0.442,0.077,0
0.024,0.526,0.537,0
0.107,0.613,0.707,0
0.011,0.756,0.86,0
0.032,0.826,0.87,0
0.292,0.88,0.907,0
0.442,0.925,0.898,0
0.566,1.025,0.869,0
0.628,0.959,0.783,0
0.667,1.008,0.653,0
0.632,1.088,0.622,0
0.636,1.046,0.632,0
0.49,1.36,-0.238,0
0.526,1.208,-0.832,0
0.574,1.221,-0.97,0
0.317,1.371,-0.497,0
0.042,1.352,0.141,1
-0.46,1.435,0.741,0
-0.652,1.504,0.893,0
-0.357,1.357,0.455,0
0.012,1.181,-0.004,0
0.702,0.903,0.194,0
1.014,0.79,0.749,0
0.806,0.538,2.488,0
0.404,0.38,3.209,0
-0.478,-0.075,3.831,0
-0.926,-0.208,3.658,0
-1.241,-0.269,2.493,0
-1.091,-0.193,1.519,0
-0.557,0.194,-0.366,0
-0.24,0.407,-1.257,0
0.105,0.507,-2.252,0
0.255,0.509,-2.625,0
0.339,0.434,-2.677,0
0.26,0.371,-2.139,0
0.074,0.2,-0.986,0
-0.055,0.07,-0.376,0
-0.204,0.066,-0.017,0
-0.239,0.19,-0.13,0
-0.007,0.352,-0.762,0
0.282,0.54,-1.426,0
0.714,0.861,-2.386,0
0.861,0.909,-2.514,0
0.889,1.048,-2.089,0
0.7,1.072,-1.545,0
0.254,0.913,-0.592,0
-0.082,0.728,-0.196,0
-0.518,0.519,-0.134,0
-0.638,0.484,-0.238,0
-0.459,0.488,-0.616,0
-0.1,0.523,-0.921,0
0.36,0.789,-1.247,0
0.645,0.903,-1.265,0
0.62,0.941,-0.695,0
0.401,0.852,-0.201,0
-0.067,0.511,0.215,0
-0.334,0.439,0.254,0
-0.696,0.318,0.306,0
-0.634,0.294,0.183,0
-0.302,0.508,-0.427,0
-0.197,0.644,-0.65,0
0.185,0.92,-0.793,0
0.504,1.087,-0.412,0
0.69,1.145,0.32,0
0.661,1.017,0.589,0
0.441,0.797,1.243,0
0.318,0.732,1.682,0
0.001,0.698,2.096,0
-0.303,0.636,2.182,0
-0.417,0.412,1.781,0
-0.128,0.54,1.435,0
-0.176,1.216,0.842,0
-0.125,1.512,0.454,1
0.022,1.601,-0.144,0
0.056,1.593,-0.394,0
0.081,1.584,-0.392,0
0.69,1.306,-1.115,0
1.037,0.573,-0.981,0
0.858,0.161,-0.372,0
0.211,-0.184,0.917,0
-0.389,-0.458,1.723,0
-1.032,-0.563,1.562,0
-1.063,-0.43,0.86,0
-0.874,-0.188,-0.514,0
-0.724,0.108,-1.38,0
-0.703,0.117,-1.382,0
-0.515,0.478,-2.323,0
-0.402,0.412,-2.279,0
-0.31,0.351,-1.852,0
-0.226,0.221,-0.578,0
-0.097,0.113,0.212,0
0.039,-0.114,1.222,0
0.097,-0.083,1.481,0
0.366,0.089,1.093,0
0.452,0.234,0.435,0
0.42,0.422,-0.852,0
0.346,0.412,-1.315,0
0.125,0.505,-1.898,0
0.042,0.48,-1.902,0
-0.024,0.447,-1.729,0
-0.138,0.506,-1.452,0
-0.217,0.607,-0.908,0
-0.262,0.698,-0.612,0
-0.249,0.865,-0.312,0
-0.132,0.977,-0.404,0
0.039,1.115,-0.892,0
0.121,1.147,-1.154,0
0.138,1.113,-1.394,0
0.16,1.077,-1.233,0
0.119,0.948,-0.555,0
0.064,0.854,-0.049,0
-0.091,0.7,0.587,0
-0.21,0.677,0.769,0
-0.326,0.684,0.758,0
-0.325,0.703,0.718,0
-0.326,0.685,0.722,0
-0.178,0.761,0.827,0
0.245,0.923,1.06,0
0.4,1.06,1.286,0
0.673,1.074,1.772,0
0.796,0.957,1.888,0
0.529,1.029,1.774,0
0.16,1.093,1.303,1
-0.147,0.681,0.194,0
-0.075,0.433,-0.279,0
0.01,0.69,-0.323,0
0.006,0.976,-0.184,0
0.022,0.968,-0.182,0
-0.129,1.04,0.084,0
-0.407,1.15,0.01,0
-0.265,1.049,-0.193,0
-0.247,1.064,-0.197,0
0.627,0.107,-0.52,0
0.293,-0.258,0.299,0
0.008,-0.351,1.36,0
-0.566,-0.743,2.824,0
-0.921,-0.907,3.029,0
-1.269,-0.897,2.407,0
-1.055,-0.679,1.789,0
-0.193,-0.237,0.658,0
0.311,0.068,0.143,0
0.971,0.519,-0.503,0
1.322,0.654,-0.821,0
1.33,0.557,-0.876,0
1.03,0.408,-0.52,0
0.563,0.062,0.22,0
0.385,-0.063,0.523,0
0.162,-0.093,0.597,0
0.116,-0.001,0.366,0
0.371,0.287,-0.57,0
0.509,0.372,-1.185,0
0.644,0.693,-2.288,0
0.613,0.777,-2.737,0
0.603,0.869,-3.151,0
0.513,0.904,-3.192,0
0.502,0.876,-3.186,0
-0.033,0.834,-2.239,0
-0.333,0.718,-1.507,0
-0.507,0.633,-1.211,0
-0.794,0.483,-0.871,0
-0.816,0.501,-0.747,0
-0.598,0.587,-0.617,0
-0.303,0.647,-0.567,0
0.167,0.843,-0.614,0
0.367,0.917,-0.65,0
0.465,0.906,-0.725,0
0.421,0.858,-0.759,0
0.154,0.739,-0.848,0
-0.015,0.694,-0.982,0
-0.201,0.602,-1.27,0
-0.257,0.607,-1.357,0
-0.231,0.563,-1.085,0
-0.149,0.584,-0.787,0
-0.011,0.736,0.23,0
0.045,0.814,0.801,0
0.125,0.739,1.619,0
0.115,0.664,1.805,0
0.096,0.655,1.807,0
0.356,0.869,2.191,0
0.226,1.042,2.233,0
0.129,1.12,2.023,0
0.156,1.123,1.206,0
0.08,1.042,0.734,1
0.089,1.014,0.741,0
-0.36,1.378,-0.038,0
-0.552,1.282,-0.529,0
-0.591,1.151,-0.656,0
-0.302,0.847,-0.296,0
0.293,0.602,0.344,0
0.9,0.19,2.205,0
0.904,0.02,3.518,0
0.489,-0.249,5.206,0
0.143,-0.227,5.471,0
-0.017,0.185,3.913,0
-0.102,0.254,2.421,0
-0.297,0.441,-0.614,0
-0.427,0.513,-1.961,0
-0.45,0.574,-3.732,0
-0.602,0.561,-4.239,0
-0.978,0.376,-3.871,0
-1.13,0.193,-3.007,0
-0.948,-0.119,-1.151,0
-0.906,-0.335,0.007,0
-1.059,-0.729,1.7,0
-1.164,-0.785,2.256,0
-0.981,-0.573,2.028,0
-0.741,-0.425,1.268,0
-0.446,-0.228,-0.224,0
-0.237,0.004,-1.086,0
-0.034,0.215,-1.991,0
-0.098,0.337,-2.294,0
-0.504,0.42,-2.431,0
-0.799,0.333,-2.328,0
-1.215,0.222,-1.894,0
-1.352,0.187,-1.533,0
-1.34,0.264,-1.062,0
-1.197,0.34,-0.837,0
-0.969,0.449,-0.437,0
-0.835,0.532,-0.216,0
-0.696,0.607,0.161,0
-0.714,0.546,0.286,0
-0.753,0.462,0.364,0
-0.721,0.432,0.305,0
-0.691,0.31,0.232,0
-0.778,0.25,0.23,0
-0.787,0.22,0.237,0
-0.888,0.194,0.311,0
-0.892,0.168,0.317,0
-0.802,0.3,0.63,0
-0.557,0.453,0.885,0
-0.445,0.47,0.88,0
-0.288,0.447,0.804,0
-0.181,0.438,0.727,0
-0.212,0.635,0.555,0
-0.285,0.838,0.603,0
-0.146,0.906,0.541,0
-0.084,0.794,0.546,0
-0.03,0.816,0.906,0
-0.019,0.926,1.024,1
-0.107,1.031,1.243,0
-0.15,0.981,1.372,0
-0.006,0.933,1.462,0
0.176,0.797,1.471,0
0.387,0.507,1.787,0
0.387,0.337,2.128,0
0.075,0.162,2.825,0
-0.279,0.023,3.169,0
-1.142,-0.431,3.223,0
-1.577,-0.729,2.94,0
-1.804,-1.011,2.14,0
-1.566,-1.057,1.334,0
-1.105,-0.915,0.037,0
-0.817,-0.707,-0.308,0
-0.225,-0.512,-0.442,0
0.116,-0.422,-0.538,0
0.258,-0.333,-0.559,0
0.186,-0.4,-0.582,0
-0.121,-0.668,-0.635,0
-0.252,-0.782,-0.702,0
-0.358,-0.869,-0.921,0
-0.295,-0.804,-1.116,0
-0.107,-0.561,-1.57,0
-0.007,-0.458,-1.724,0
0.095,-0.202,-1.779,0
0.105,-0.081,-1.811,0
0.094,0.005,-1.823,0
-0.032,-0.035,-1.887,0
-0.274,-0.092,-2.038,0
-0.419,-0.172,-2.003,0
-0.566,-0.197,-1.694,0
-0.56,-0.204,-1.39,0
-0.45,-0.175,-0.97,0
-0.344,-0.192,-0.824,0
-0.222,-0.164,-0.912,0
-0.064,-0.126,-1.019,0
-0.066,-0.139,-1.015,0
0.385,-0.049,-0.888,0
0.385,-0.065,-0.558,0
0.289,-0.142,-0.352,0
-0.148,-0.228,0.066,0
-0.302,-0.262,0.153,0
-0.422,-0.308,-0.001,0
-0.339,-0.294,-0.163,0
-0.136,-0.192,-0.529,0
-0.023,-0.139,-0.697,0
0.402,0.051,-0.655,0
0.729,0.2,-0.36,0
1.071,0.394,0.306,0
1.135,0.448,0.801,0
1.121,0.425,0.809,0
0.454,0.295,1.724,0
-0.202,0.22,1.655,0
-0.362,0.149,1.217,0
-0.339,0.121,1.227,0
-0.39,0.374,0.138,1
-0.392,0.723,-0.294,0
-0.261,0.729,-0.509,0
0.061,0.595,-0.695,0
0.269,0.424,-0.29,0
0.671,0.051,1.472,0
0.833,-0.192,2.695,0
0.352,-0.625,4.291,0
-0.264,-0.793,4.538,0
-1.148,-0.993,3.5,0
-1.376,-1.004,2.119,0
-1.328,-0.98,2.112,0
-1.475,-0.744,-0.79,0
-1.518,-0.765,-1.836,0
-1.463,-0.739,-1.902,0
-1.153,-0.647,-0.847,0
-0.771,-0.576,-0.029,0
-0.238,-0.765,1.498,0
-0.228,-0.987,1.957,0
-0.607,-1.406,2.23,0
-0.774,-1.47,2.044,0
-0.715,-1.494,1.289,0
-0.475,-1.422,0.705,0
-0.157,-1.14,-0.299,0
-0.01,-0.888,-0.938,0
0.131,-0.645,-1.823,0
0.203,-0.52,-2.361,0
0.068,-0.357,-2.718,0
0.001,-0.32,-2.77,0
0.023,-0.167,-2.603,0
-0.05,-0.084,-2.288,0
-0.107,0.007,-1.839,0
-0.113,0.089,-1.597,0
-0.104,0.181,-1.274,0
-0.09,0.201,-1.147,0
-0.12,0.173,-0.635,0
-0.128,0.128,-0.277,0
-0.143,0.13,-0.277,0
-0.073,0.006,0.613,0
-0.104,-0.054,0.941,0
-0.073,-0.097,1.09,0
0.027,-0.12,1.214,0
0.03,-0.062,1.225,0
0.062,0.007,1.13,0
0.033,-0.03,1.065,0
0.045,-0.057,1.05,0
0.148,-0.039,1.131,0
0.152,-0.054,1.136,0
0.574,-0.101,1.714,0
1.042,0.052,2.089,0
1.177,0.108,2.148,0
0.848,0.233,1.773,0
0.64,0.169,1.334,0
0.827,-0.081,0.943,0
1.053,-0.121,0.897,1
0.91,-0.047,1.44,0
0.725,-0.071,1.892,0
0.408,-0.141,2.253,0
0.136,-0.039,2.124,0
-0.07,0.326,1.279,0
-0.005,0.41,0.592,0
0.012,0.396,0.597,0
1.372,0.662,-0.381,0
1.937,0.654,-0.165,0
1.702,0.449,0.105,0
0.815,-0.187,0.724,0
0.32,-0.568,0.974,0
-0.205,-0.99,1.043,0
-0.382,-1.079,1.016,0
-0.446,-1.227,0.69,0
-0.346,-1.222,0.342,0
-0.321,-1.212,0.34,0
0.266,-0.867,-1.146,0
0.527,-0.805,-1.62,0
0.613,-0.906,-1.663,0
0.668,-0.893,-1.329,0
0.577,-0.88,-0.852,0
0.401,-0.883,-0.23,0
0.331,-0.876,-0.154,0
0.236,-0.748,-0.537,0
0.289,-0.631,-1.051,0
0.298,-0.639,-1.048,0
0.599,-0.197,-1.951,0
0.797,0.028,-1.924,0
0.881,0.188,-1.791,0
0.77,0.293,-1.423,0
0.592,0.221,-1.175,0
0.286,0.071,-1.063,0
0.131,-0.054,-1.193,0
-0.246,-0.348,-1.375,0
-0.328,-0.415,-1.429,0
-0.182,-0.472,-1.391,0
-0.034,-0.416,-1.155,0
0.254,-0.381,-0.63,0
0.437,-0.298,-0.437,0
0.497,-0.179,-0.342,0
0.422,-0.177,-0.194,0
0.093,-0.296,0.021,0
-0.025,-0.376,0.226,0
-0.185,-0.276,0.472,0
-0.287,-0.296,0.459,0
-0.259,-0.381,0.461,0
-0.133,-0.405,0.574,0
0.29,-0.356,1.055,0
0.611,-0.267,1.418,0
0.902,-0.308,1.765,0
0.944,-0.213,1.991,0
0.859,0.104,2.635,0
0.906,0.235,2.651,1
0.893,0.328,1.905,0
0.839,0.456,1.297,0
0.774,0.796,0.347,0
0.73,0.957,-0.095,0
0.791,0.893,-0.705,0
0.901,0.752,-1.109,0
0.931,0.331,-0.751,0
1.025,-0.269,0.509,0
1.039,-1.087,3.075,0
0.711,-1.583,4.705,0
0.187,-2.044,6.389,0
-0.076,-2.003,6.361,0
-0.363,-1.706,4.286,0
-0.361,-1.55,2.432,0
-0.198,-0.925,-0.468,0
-0.058,-0.766,-1.69,0
-0.313,-0.728,-2.98,0
-0.57,-0.687,-3.044,0
-0.532,-0.511,-1.9,0
-0.247,-0.468,-0.745,0
0.117,-0.706,1.095,0
0.189,-0.782,1.71,0
0.304,-0.71,1.752,0
0.4,-0.565,1.356,0
0.754,-0.413,0.237,0
0.906,-0.343,-0.686,0
0.774,-0.22,-1.581,0
0.662,-0.298,-1.8,0
0.287,-0.43,-1.575,0
0.027,-0.547,-1.112,0
-0.301,-0.624,-0.549,0
-0.378,-0.682,-0.52,0
-0.413,-0.545,-0.893,0
-0.265,-0.406,-1.228,0
-0.24,-0.434,-1.217,0
0.296,-0.062,-1.864,0
0.493,0.028,-1.856,0
0.467,-0.055,-1.61,0
0.198,-0.203,-0.893,0
0.057,-0.344,-0.521,0
-0.115,-0.562,-0.036,0
-0.069,-0.652,0.187,0
-0.078,-0.696,0.163,0
0.021,-0.686,0.198,0
0.455,-0.417,0.366,0
0.764,-0.246,0.491,0
0.787,-0.253,0.495,0
0.93,0.091,1.203,0
0.797,-0.065,1.665,0
0.632,-0.323,1.742,0
0.184,-0.629,1.475,0
0.143,-0.684,1.173,0
0.257,-0.376,0.635,0
0.207,-0.182,0.341,0
0.223,-0.217,0.356,0
0.598,0.05,-0.403,0
0.589,0.055,-0.347,0
0.342,0.165,0.058,0
0.09,0.202,1.24,0
0.013,0.225,1.835,1
-0.23,0.181,2.007,0
-0.18,0.006,1.325,0
0.245,-0.454,0.342,0
0.417,-0.728,0.119,0
0.418,-0.702,0.108,0
0.233,-1.171,1.749,0
-0.129,-1.279,2.948,0
-0.325,-1.342,3.231,0
-0.48,-1.575,2.952,0
-0.3,-1.57,2.246,0
0.302,-1.189,0.584,0
0.449,-1.097,-0.182,0
0.653,-1.292,-1.241,0
0.768,-1.362,-1.705,0
0.93,-1.308,-1.879,0
0.971,-1.175,-1.2,0
1.238,-0.943,0.47,0
1.433,-0.754,1.1,0
1.266,-0.509,1.589,0
1.207,-0.326,1.228,0
1.338,-0.094,-0.065,0
1.318,-0.039,-0.985,0
1.346,-0.06,-0.976,0
1.104,-0.09,-2.628,0
1.111,0.059,-2.64,0
1.097,0.041,-2.268,0
1.092,0.026,-2.263,0
0.905,0.117,-0.693,0
0.747,0.005,-0.319,0
0.629,-0.02,-0.335,0
0.559,-0.121,-0.569,0
0.562,-0.174,-0.777,0
0.542,-0.212,-0.998,0
0.545,-0.291,-0.975,0
0.584,-0.397,-0.77,0
0.638,-0.371,-0.479,0
0.731,-0.315,0.09,0
0.711,-0.247,0.283,0
0.443,-0.197,0.517,0
0.252,-0.248,0.647,0
-0.017,-0.242,0.963,0
-0.183,-0.19,1.239,0
-0.282,-0.165,1.495,0
-0.201,-0.205,1.497,0
0.127,-0.179,1.506,0
0.465,-0.105,1.532,0
0.458,-0.151,1.55,0
0.817,0.267,1.559,0
0.531,0.409,1.34,0
0.348,0.387,1.094,0
0.069,0.498,0.509,0
-0.146,0.67,0.182,0
-0.262,0.801,-0.424,0
-0.123,0.734,-0.703,1
0.17,0.609,-1.099,0
0.548,0.288,-1.225,0
0.885,-0.666,0.035,0
1.074,-1.193,1.32,0
0.703,-2.081,4.169,0
0.196,-2.373,5.539,0
-0.588,-2.297,6.518,0
-0.938,-2.181,5.976,0
-1.057,-2.145,2.975,0
-0.956,-1.863,0.769,0
-0.322,-1.181,-1.483,0
0.18,-0.957,-2.495,0
0.454,-0.637,-3.49,0
0.412,-0.491,-3.446,0
0.589,-0.448,-2.21,0
0.756,-0.554,-1.312,0
0.517,-0.879,-0.209,0
0.184,-1.121,0.116,0
-0.045,-1.277,-0.191,0
0.114,-1.255,-0.839,0
0.572,-1.077,-1.76,0
0.77,-0.946,-2.133,0
0.86,-0.823,-2.12,0
0.775,-0.765,-1.866,0
0.535,-0.746,-1.283,0
0.415,-0.695,-0.969,0
0.272,-0.575,-0.665,0
0.257,-0.486,-0.553,0
0.24,-0.477,-0.557,0
0.275,-0.414,-0.373,0
0.175,-0.378,-0.319,0
0.1,-0.409,-0.328,0
0.138,-0.359,-0.368,0
0.144,-0.297,-0.451,0
0.156,-0.203,-0.574,0
0.175,-0.193,-0.647,0
0.27,-0.188,-0.762,0
0.263,-0.185,-0.741,0
0.094,-0.236,-0.28,0
0.057,-0.168,0.168,0
-0.031,-0.115,0.87,0
-0.086,-0.234,1.064,0
-0.235,-0.186,1.435,0
-0.141,-0.138,1.599,0
0.136,-0.19,1.665,0
0.176,-0.282,1.599,0
0.001,-0.376,1.423,0
-0.233,-0.385,1.12,0
-0.767,-0.554,0.558,0
-1.009,-0.765,0.271,0
-1,-1.003,0.306,0
-0.938,-0.913,0.624,1
-0.7,-0.525,1.243,0
-0.58,-0.325,1.441,0
-0.602,-0.311,1.435,0
0.176,0.352,1.457,0
0.794,0.17,0.976,0
1.08,-0.168,0.834,0
0.826,-0.755,1.87,0
0.42,-1.007,2.784,0
-0.72,-1.544,4.225,0
-1.368,-1.811,4.698,0
-1.877,-2.009,4.518,0
-1.812,-1.946,3.698,0
-1.283,-1.706,1.884,0
-0.987,-1.382,0.714,0
-0.426,-0.875,-0.411,0
-0.044,-0.688,-0.911,0
0.401,-0.427,-1.541,0
0.449,-0.317,-1.62,0
0.35,-0.393,-1.027,0
0.205,-0.501,-0.645,0
0.038,-0.579,-0.097,0
0.035,-0.512,-0.123,0
0.3,-0.331,-0.911,0
0.327,-0.236,-1.441,0
0.461,-0.046,-2.034,0
0.669,0.082,-2.218,0
0.837,0.298,-2.172,0
0.717,0.342,-2.037,0
0.358,0.298,-1.588,0
0.176,0.173,-1.126,0
0.179,0.18,-1.128,0
-0.406,-0.192,-0.161,0
-0.448,-0.232,0.049,0
-0.304,-0.201,-0.027,0
0.1,-0.114,-0.762,0
0.236,-0.118,-1.257,0
0.237,-0.15,-1.246,0
0.408,-0.226,-1.892,0
0.273,-0.379,-1.371,0
0.034,-0.54,-0.689,0
0.026,-0.539,-0.689,0
-0.69,-0.818,0.509,0
-1.035,-0.925,0.978,0
-0.963,-0.965,1.148,0
-0.676,-0.707,1.114,0
-0.494,-0.573,0.948,0
-0.142,-0.45,0.752,0
0.063,-0.344,0.83,0
0.321,-0.228,1.169,0
0.391,-0.211,1.451,0
0.374,-0.122,1.731,0
0.263,0.006,1.764,0
0.068,0.1,1.563,0
0,0.077,1.294,0
-0.226,0.162,1.069,0
-0.361,0.286,1.109,0
-0.58,0.619,1.108,0
-0.771,0.642,0.843,1
-1.061,0.434,0.27,0
-1.109,0.171,-0.088,0
-0.896,-0.37,-0.173,0
-0.741,-0.817,0.63,0
-0.16,-1.224,2.373,0
-0.109,-1.366,3.423,0
-0.626,-1.526,4.336,0
-1.238,-1.572,4.062,0
-1.728,-1.531,2.286,0
-1.906,-1.559,1.027,0
-1.948,-1.181,-1.09,0
-1.927,-1.024,-1.951,0
-2.001,-0.997,-2.397,0
-2.089,-1.031,-2.003,0
-1.594,-0.948,-0.389,0
-1.253,-0.839,0.415,0
-0.719,-1.03,1.703,0
-0.629,-1.191,2.152,0
-0.658,-1.22,2.322,0
-0.683,-1.193,2.064,0
-0.665,-1.253,0.98,0
-0.65,-1.295,0.089,0
-0.561,-1.172,-1.391,0
-0.532,-1.012,-2.064,0
-0.428,-0.872,-2.676,0
-0.319,-0.769,-2.853,0
-0.133,-0.459,-2.773,0
-0.076,-0.245,-2.56,0
0.038,0.011,-2.192,0
0.061,0.035,-1.969,0
0.002,0.098,-1.574,0
0.053,0.185,-1.378,0
0.053,0.214,-0.985,0
-0.07,0.127,-0.755,0
-0.335,-0.046,-0.353,0
-0.481,-0.181,-0.127,0
-0.643,-0.34,0.267,0
-0.711,-0.439,0.568,0
-0.77,-0.579,0.947,0
-0.863,-0.631,1.2,0
-0.777,-0.445,1.521,0
-0.649,-0.327,1.643,0
-0.414,-0.076,1.684,0
-0.386,-0.087,1.441,0
-0.387,-0.061,0.97,0
-0.365,-0.097,0.791,0
-0.252,-0.235,0.683,0
-0.15,-0.363,0.718,0
0,-0.425,0.806,0
-0.175,-0.181,0.983,0
-0.21,0.099,1.181,0
0.103,0.058,1.21,0
0.615,0.067,1.272,0
0.535,0.138,1.515,1
0.18,0.137,2.221,0
-0.017,0.048,2.557,0
-0.399,-0.101,2.447,0
-0.605,-0.148,2.033,0
-0.588,-0.156,2.036,0
-0.529,-0.212,0.639,0
-0.4,-0.323,0.314,0
-0.48,-0.554,0.574,0
-0.6,-0.886,1.331,0
-0.657,-1.002,1.77,0
-0.854,-1.242,1.959,0
-0.942,-1.31,1.678,0
-0.923,-1.308,0.923,0
-0.77,-1.234,0.447,0
-0.651,-1.241,-0.511,0
-0.689,-1.254,-0.948,0
-0.767,-1.268,-1.56,0
-0.73,-1.357,-1.742,0
-0.583,-1.444,-1.785,0
-0.562,-1.377,-1.515,0
-0.485,-1.366,-0.922,0
-0.445,-1.313,-0.619,0
-0.423,-1.035,-0.548,0
-0.403,-0.901,-0.533,0
-0.345,-0.734,-0.805,0
-0.298,-0.553,-1.272,0
-0.078,-0.388,-1.835,0
0.14,-0.239,-2.14,0
0.267,-0.055,-2.296,0
0.212,0.017,-1.992,0
0.205,0.025,-1.995,0
-0.191,-0.297,-1.008,0
-0.198,-0.28,-1.014,0
-0.654,-0.546,-0.341,0
-0.757,-0.673,-0.449,0
-0.75,-0.69,-0.653,0
-0.739,-0.688,-0.653,0
-0.151,-0.353,-1.204,0
0.135,-0.146,-1.196,0
0.214,-0.08,-0.959,0
0.149,-0.046,-0.097,0
-0.033,-0.084,0.464,0
-0.452,-0.177,1.001,0
-0.83,-0.311,1.029,0
-1.067,-0.467,0.65,0
-0.965,-0.472,0.441,0
-0.622,-0.328,0.35,0
-0.353,-0.202,0.551,0
-0.36,-0.22,0.558,0
-0.139,-0.235,1.499,0
0.149,-0.177,2.16,0
0.101,-0.151,2.393,1
-0.168,-0.225,2.757,0
-0.28,-0.271,2.801,0
-0.398,-0.326,2.24,0
-0.538,-0.318,1.728,0
-0.83,0.001,1.107,0
-0.887,0.218,0.995,0
-0.671,0.362,0.973,0
-0.512,0.314,1.079,0
-0.196,0.17,1.55,0
0.054,-0.202,2.163,0
0.271,-0.913,3.388,0
0.159,-1.094,4.185,0
-0.295,-1.2,5.257,0
-0.584,-1.276,5.244,0
-0.767,-1.259,3.224,0
-0.891,-1.224,1.537,0
-0.958,-0.821,-1.188,0
-0.805,-0.82,-2.166,0
-0.837,-0.892,-3.088,0
-1.05,-0.913,-3.273,0
-1.135,-1.041,-2.542,0
-0.895,-1.095,-1.725,0
-0.456,-1.082,-0.328,0
-0.399,-1.216,0.345,0
-0.528,-1.518,0.843,0
-0.589,-1.562,0.757,0
-0.686,-1.564,0.077,0
-0.632,-1.565,-0.658,0
-0.563,-1.419,-1.56,0
-0.45,-1.263,-1.966,0
-0.281,-1.031,-2.403,0
-0.239,-0.884,-2.517,0
-0.233,-0.901,-2.51,0
-0.089,-0.366,-2.214,0
-0.097,-0.166,-1.766,0
-0.112,-0.06,-1.583,0
-0.138,0.007,-1.719,0
-0.218,0.014,-1.841,0
-0.254,0.019,-1.722,0
-0.259,-0.023,-1.475,0
-0.327,0.021,-0.687,0
-0.349,-0.01,-0.201,0
-0.363,-0.104,0.258,0
-0.441,-0.19,0.357,0
-0.577,-0.297,0.335,0
-0.579,-0.374,0.451,0
-0.575,-0.372,0.45,0
-0.422,-0.371,0.931,0
-0.472,-0.369,1.37,0
-0.38,-0.31,1.607,0
-0.388,-0.322,1.612,0
-0.22,-0.228,1.83,0
-0.125,-0.146,1.628,0
0.024,-0.035,1.489,0
0.04,0.285,1.246,0
-0.067,0.481,1.118,0
0.028,0.474,0.839,0
0.201,0.31,0.791,1
0.194,0.257,0.445,0
-0.053,0.253,0.477,0
-0.389,0.112,0.804,0
-0.631,-0.005,1.041,0
-1.046,0.03,1.349,0
-0.858,0.11,1.269,0
-0.035,0.006,0.961,0
0.434,0.033,0.942,0
0.436,0.059,0.932,0
0.572,-0.328,2.179,0
0.109,-0.851,3.265,0
-0.453,-1.108,3.622,0
-1.422,-1.759,3.372,0
-1.582,-1.906,2.752,0
-1.411,-1.715,1.484,0
-1.174,-1.578,0.635,0
-0.653,-1.251,-0.688,0
-0.281,-1.114,-1.326,0
0.212,-0.949,-2.19,0
0.359,-0.932,-2.526,0
0.386,-1.013,-2.503,0
0.266,-1.103,-2.178,0
0.099,-1.284,-1.362,0
0.1,-1.333,-0.868,0
0.061,-1.263,-0.368,0
0.166,-1.128,-0.317,0
0.297,-0.874,-0.536,0
0.32,-0.73,-0.734,0
0.319,-0.732,-0.733,0
0.232,-0.454,-1.494,0
-0.111,-0.513,-1.55,0
-0.315,-0.648,-1.588,0
-0.536,-0.578,-1.421,0
-0.536,-0.45,-1.143,0
-0.438,-0.364,-0.951,0
-0.302,-0.328,-1.049,0
-0.054,-0.166,-1.213,0
0.073,-0.145,-1.241,0
0.18,-0.195,-1.116,0
0.162,-0.238,-0.867,0
0.124,-0.346,-0.155,0
0.039,-0.372,0.394,0
-0.068,-0.387,1.419,0
-0.182,-0.411,1.675,0
-0.623,-0.319,1.356,0
-0.875,-0.372,0.927,0
-1.03,-0.518,0.162,0
-0.892,-0.418,-0.102,0
-0.359,0.013,0.099,0
-0.014,0.102,0.502,0
0.296,0.059,1.307,0
0.366,0.063,1.767,0
0.201,0.053,2.233,0
-0.072,-0.064,2.143,0
-0.331,-0.074,1.311,0
-0.326,-0.029,0.747,1
-0.384,0.129,0.281,0
-0.411,0.321,0.184,0
-0.186,0.551,0.155,0
-0.098,0.623,0.137,0
-0.266,0.525,0.726,0
-0.319,0.189,1.421,0
-0.218,-0.417,2.81,0
-0.323,-0.85,3.745,0
-0.483,-1.511,4.979,0
-0.556,-1.699,5.375,0
-0.537,-1.626,4.325,0
-0.454,-1.346,2.893,0
-0.435,-1.079,0.689,0
-0.269,-0.967,-0.438,0
-0.256,-0.844,-2.072,0
-0.497,-0.76,-2.711,0
-0.845,-0.884,-3.02,0
-0.941,-0.978,-2.779,0
-0.841,-0.898,-1.819,0
-0.594,-0.877,-1.16,0
-0.337,-1.045,0,0
-0.249,-1.115,0.35,0
-0.171,-1.024,0.459,0
-0.169,-0.998,0.357,0
-0.212,-1.028,-0.143,0
-0.307,-1.066,-0.633,0
-0.45,-1.077,-1.473,0
-0.461,-1.052,-1.834,0
-0.383,-0.862,-1.825,0
-0.37,-0.7,-1.571,0
-0.348,-0.442,-0.983,0
-0.418,-0.304,-0.637,0
-0.515,-0.244,-0.354,0
-0.587,-0.231,-0.381,0
-0.652,-0.184,-0.624,0
-0.57,-0.126,-0.796,0
-0.397,-0.071,-1.074,0
-0.256,-0.034,-1.02,0
0.028,0.014,-0.647,0
0.114,0.023,-0.299,0
0.05,-0.101,0.432,0
-0.055,-0.132,0.738,0
-0.062,-0.132,0.739,0
-0.321,-0.459,1.15,0
-0.445,-0.411,1.164,0
-0.286,-0.364,1.189,0
-0.065,-0.295,1.114,0
0.019,-0.256,1.101,0
0.304,-0.139,1.16,0
0.501,-0.047,1.212,0
0.526,0.069,1.163,0
0.372,0.149,1.012,0
-0.227,0.209,0.539,0
-0.399,0.056,0.199,0
-0.29,-0.313,0.24,0
-0.117,-0.29,0.593,1
-0.311,-0.013,1.25,0
-0.409,-0.016,1.735,0
-0.535,-0.016,1.826,0
-0.67,0.078,1.386,0
-0.39,0.005,0.356,0
0.162,-0.163,-0.156,0
0.693,-0.459,0.108,0
0.633,-0.651,0.937,0
0.063,-1.122,2.68,0
-0.457,-1.402,3.22,0
-1.378,-1.737,3.365,0
-1.647,-1.852,3.13,0
-1.609,-1.804,3.111,0
-1.057,-1.756,1.361,0
-0.379,-1.261,-0.097,0
0.097,-0.997,-0.87,0
0.74,-0.756,-1.502,0
0.903,-0.726,-1.623,0
0.759,-0.692,-1.333,0
0.527,-0.835,-0.988,0
0.141,-1.021,-0.488,0
0.028,-0.991,-0.332,0
-0.168,-1.058,-0.29,0
-0.233,-1.044,-0.459,0
-0.218,-0.757,-0.833,0
-0.08,-0.601,-1.075,0
0.245,-0.267,-1.527,0
0.258,-0.054,-1.651,0
0.222,0.079,-1.712,0
0.075,0.063,-1.667,0
-0.364,-0.086,-1.498,0
-0.59,-0.227,-1.244,0
-0.742,-0.398,-0.608,0
-0.746,-0.401,-0.277,0
-0.632,-0.295,0.185,0
-0.457,-0.282,0.369,0
-0.071,-0.233,0.271,0
0.122,-0.188,-0.029,0
0.123,-0.21,-0.02,0
-0.005,-0.274,-0.437,0
-0.345,-0.439,-0.348,0
-0.57,-0.566,-0.268,0
-0.922,-0.613,-0.075,0
-1.036,-0.646,-0.03,0
-0.928,-0.589,0.094,0
-0.756,-0.405,0.271,0
-0.42,-0.099,0.603,0
-0.323,0.024,0.735,0
-0.381,0.011,0.79,0
-0.385,0.065,0.841,0
-0.18,0.163,1.207,0
-0.086,0.248,1.496,0
-0.267,0.577,1.687,0
-0.31,0.654,1.563,0
-0.156,0.575,1.134,0
-0.271,0.637,0.954,1
-0.903,1.071,0.859,0
-1.159,1.151,0.803,0
-1.302,0.928,0.729,0
-1.352,0.781,0.678,0
-0.974,0.332,0.661,0
-0.514,-0.1,0.832,0
-0.044,-0.839,2.272,0
0.045,-0.938,3.132,0
-0.352,-1.194,4.139,0
-0.754,-1.315,3.827,0
-1.168,-1.445,2.112,0
-1.202,-1.407,1.095,0
-1.12,-1.134,-0.399,0
-1.102,-1.12,-1.113,0
-1.44,-1.159,-2.162,0
-1.613,-1.197,-2.506,0
-1.4,-1.3,-2.454,0
-1.019,-1.294,-2.274,0
-0.43,-1.228,-2.032,0
-0.223,-1.233,-1.83,0
0.065,-1.237,-1.25,0
0.118,-1.243,-0.891,0
-0.084,-1.329,-0.469,0
-0.309,-1.333,-0.339,0
-0.499,-1.326,-0.475,0
-0.61,-1.235,-0.696,0
-0.762,-1.048,-1.007,0
-0.85,-0.879,-1.18,0
-0.86,-0.666,-1.362,0
-0.995,-0.576,-1.312,0
-1.116,-0.454,-1.089,0
-1.075,-0.358,-0.908,0
-1.013,-0.211,-0.61,0
-0.925,-0.128,-0.39,0
-0.664,0.103,-0.037,0
-0.472,0.215,0.249,0
-0.375,0.284,0.378,0
-0.374,0.262,0.385,0
-0.48,0.214,0.459,0
-0.519,0.175,0.561,0
-0.599,0.072,0.839,0
-0.745,-0.016,1.131,0
-0.893,-0.107,1.274,0
-1.021,-0.121,1.29,0
-1.105,-0.202,1.372,0
-0.801,-0.236,1.253,0
-0.447,-0.225,1.25,0
-0.343,-0.17,1.344,0
-0.163,-0.074,1.7,0
-0.162,0.045,1.992,1
-0.428,0.375,1.912,0
-0.546,0.378,1.283,0
-0.525,0.355,1.29,0
-0.251,-0.007,0.516,0
-0.414,0.134,0.905,0
-0.494,0.062,1.254,0
-0.689,-0.001,1.632,0
-0.841,0.054,1.531,0
-0.731,-0.04,0.922,0
-0.445,-0.326,0.51,0
0.057,-0.729,0.359,0
0.151,-0.814,0.968,0
0.079,-1.071,2.255,0
-0.285,-1.223,2.72,0
-1.017,-1.7,2.947,0
-1.151,-1.673,2.574,0
-1.153,-1.685,1.429,0
-1.041,-1.777,0.523,0
-0.871,-1.577,-0.727,0
-0.694,-1.45,-1.218,0
-0.429,-1.416,-1.361,0
-0.245,-1.324,-1.185,0
0.065,-1.054,-0.652,0
0.182,-0.964,-0.286,0
0.191,-0.879,0.083,0
0.108,-0.822,0.057,0
0.121,-0.795,0.048,0
0,-0.685,-0.759,0
-0.008,-0.553,-1.309,0
0.014,-0.462,-1.445,0
0.018,-0.266,-1.433,0
-0.078,-0.206,-1.337,0
-0.232,-0.197,-0.971,0
-0.328,-0.182,-0.784,0
-0.527,-0.177,-0.706,0
-0.599,-0.164,-0.848,0
-0.657,-0.044,-1.139,0
-0.619,-0.011,-1.368,0
-0.551,-0.041,-1.781,0
-0.459,0.052,-1.877,0
-0.21,0.132,-1.894,0
-0.054,0.093,-1.721,0
-0.023,0.117,-0.969,0
-0.034,0.084,-0.528,0
-0.253,0.042,-0.015,0
-0.679,-0.144,0.517,0
-0.965,-0.329,1.102,0
-1.003,-0.258,1.127,0
-0.987,-0.265,1.129,0
-0.988,-0.299,0.348,0
-0.838,-0.067,0.223,0
-0.721,0.013,0.301,0
-0.796,-0.13,0.59,0
-0.878,-0.231,0.906,0
-0.673,-0.234,1.749,0
-0.563,-0.118,2.346,0
-0.8,0.095,2.56,0
-0.925,0.325,2.319,0
-0.744,0.559,1.619,0
-0.736,0.621,1.15,1
-1.049,0.951,0.33,0
-1.077,1.114,-0.129,0
-0.846,0.957,-0.657,0
-0.554,0.715,-0.646,0
-0.019,0.129,-0.035,0
0.155,-0.368,0.981,0
0.178,-1.001,3.234,0
-0.366,-1.47,4.582,0
-1.771,-2.019,5.788,0
-2.421,-2.127,5.482,0
-2.845,-2.276,3.686,0
-2.558,-2.069,1.992,0
-2.185,-1.502,-0.392,0
-1.877,-1.355,-1.445,0
-1.711,-1.058,-2.267,0
-1.682,-0.883,-2.4,0
-1.086,-0.845,-1.875,0
-0.698,-0.837,-1.255,0
-0.265,-0.777,-0.261,0
-0.184,-0.844,0.437,0
-0.005,-1.048,1.224,0
0.063,-1.012,1.275,0
-0.02,-0.751,0.623,0
-0.1,-0.695,0.007,0
-0.205,-0.708,-1.064,0
-0.293,-0.656,-1.44,0
-0.398,-0.466,-1.832,0
-0.483,-0.467,-1.944,0
-0.564,-0.394,-1.998,0
-0.569,-0.342,-1.909,0
-0.486,-0.171,-1.618,0
-0.495,-0.154,-1.448,0
-0.622,-0.13,-1.257,0
-0.695,-0.133,-1.223,0
-0.775,-0.219,-1.215,0
-0.823,-0.208,-1.213,0
-0.783,-0.143,-1.204,0
-0.746,-0.164,-1.044,0
-0.754,-0.171,-1.041,0
-0.809,-0.352,-0.454,0
-0.829,-0.476,0.749,0
-0.789,-0.452,1.446,0
-0.887,-0.382,2.112,0
-1.117,-0.408,2.16,0
-1.358,-0.625,1.881,0
-1.284,-0.677,1.412,0
-1.012,-0.409,0.779,0
-0.77,-0.278,0.775,0
-0.331,-0.238,0.956,0
-0.007,-0.08,1.277,0
0.037,0.399,1.466,0
0.031,0.549,1.337,0
0.041,0.527,1.344,0
0.211,0.408,0.546,0
-0.333,0.378,0.4,0
-0.498,0.384,0.415,1
-0.471,0.378,0.415,0
-0.863,0.506,0.546,0
-0.718,0.7,0.479,0
-0.162,0.688,0.394,0
0.525,0.514,0.458,0
0.499,0.268,1.091,0
0.086,-0.366,2.508,0
-0.585,-0.826,3.32,0
-1.858,-1.548,3.948,0
-2.417,-1.759,3.952,0
-2.544,-1.938,3.562,0
-2.237,-1.931,2.656,0
-1.651,-1.56,0.958,0
-1.218,-1.132,-0.015,0
-0.502,-0.737,-0.984,0
-0.143,-0.723,-1.439,0
-0.012,-0.736,-2.066,0
-0.105,-0.819,-2.157,0
-0.291,-1.051,-1.898,0
-0.395,-1.155,-1.589,0
-0.467,-1.093,-1.046,0
-0.412,-0.991,-0.906,0
-0.189,-0.713,-1.11,0
-0.11,-0.521,-1.336,0
-0.157,-0.363,-1.602,0
-0.026,-0.245,-1.797,0
0.006,-0.016,-2.154,0
-0.165,0.028,-2.317,0
-0.374,0.001,-2.211,0
-0.46,0.033,-1.932,0
-0.503,0.06,-1.556,0
-0.519,0.063,-1.246,0
-0.543,-0.064,-0.867,0
-0.631,-0.03,-0.637,0
-0.643,-0.082,-0.433,0
-0.612,-0.126,-0.47,0
-0.623,-0.18,-0.709,0
-0.686,-0.275,-0.772,0
-0.694,-0.292,-0.766,0
-0.981,-0.407,-0.471,0
-1.13,-0.388,-0.03,0
-1.159,-0.338,0.265,0
-1.031,-0.223,0.49,0
-0.969,-0.162,0.727,0
-0.902,-0.174,0.959,0
-0.776,-0.156,1.119,0
-0.53,0.005,1.644,0
-0.316,0.12,2.01,0
-0.062,0.113,2.372,0
0.108,0.096,2.537,0
0.072,0.203,2.614,0
0.071,0.436,2.431,0
0.066,0.4,2.445,0
0.063,0.847,0.818,1
-0.262,1.167,0.144,0
-0.481,1.289,0.04,0
-0.728,1.479,-0.086,0
-0.829,1.344,-0.215,0
-0.775,0.909,-0.707,0
-0.675,0.495,-0.535,0
-0.709,0.507,-0.536,0
-0.052,-0.489,2.225,0
-0.189,-0.89,4.224,0
-0.46,-1.092,4.757,0
-1.075,-1.277,4.065,0
-1.456,-1.219,2.548,0
-1.734,-1.28,0.392,0
-1.76,-1.117,-0.78,0
-2.194,-1.093,-2.036,0
-2.425,-1.112,-2.424,0
-2.477,-1.122,-2.154,0
-2.123,-1.017,-1.466,0
-1.281,-0.674,-0.043,0
-1.037,-0.598,0.658,0
-0.646,-0.823,1.233,0
-0.633,-0.938,1.129,0
-0.807,-1.027,0.353,0
-0.867,-1.074,-0.336,0
-0.799,-1.086,-1.151,0
-0.681,-0.945,-1.384,0
-0.459,-0.538,-1.582,0
-0.415,-0.43,-1.549,0
-0.399,-0.182,-1.392,0
-0.382,0.001,-1.36,0
-0.386,-0.002,-1.358,0
-0.646,0.001,-1.188,0
-0.966,-0.056,-0.741,0
-1.081,-0.08,-0.295,0
-1.082,-0.07,-0.298,0
-1.281,-0.116,0.691,0
-1.407,-0.092,0.967,0
-1.34,-0.07,0.945,0
-1.071,-0.121,0.471,0
-0.849,-0.144,-0.161,0
-0.649,-0.116,-0.694,0
-0.587,-0.149,-0.719,0
-0.798,-0.196,-0.163,0
-0.982,-0.234,0.343,0
-1.225,-0.306,0.969,0
-1.308,-0.327,1.211,0
-1.298,-0.335,1.214,0
-1.053,-0.271,1.23,0
-0.824,-0.081,0.809,0
-0.63,0.055,0.661,0
-0.622,0.026,0.671,0
-0.514,0.637,0.404,0
-0.309,0.708,0.047,0
-0.113,0.68,-0.144,0
-0.21,0.732,0.097,0
-0.319,0.723,0.564,1
-0.322,0.727,0.563,0
-0.411,0.818,1.849,0
-0.646,0.837,2.086,0
-0.501,0.72,1.777,0
-0.106,0.566,0.804,0
0.084,0.305,0.516,0
0.102,0.317,0.51,0
-0.141,-0.555,2.185,0
-0.786,-0.905,3.255,0
-1.453,-1.187,3.487,0
-1.806,-1.599,2.925,0
-1.611,-1.603,2.195,0
-1.191,-1.373,0.619,0
-1.013,-1.277,-0.279,0
-0.789,-1.119,-1.165,0
-0.636,-1.007,-1.309,0
-0.519,-1.014,-1.464,0
-0.617,-1.071,-1.402,0
-0.733,-1.189,-1.119,0
-0.737,-1.254,-1.027,0
-0.736,-1.245,-1.03,0
-0.561,-1.124,-1.262,0
-0.445,-1.085,-1.765,0
-0.396,-0.935,-1.832,0
-0.411,-0.945,-1.828,0
-0.023,-0.484,-1.966,0
-0.165,-0.341,-1.976,0
-0.344,-0.26,-1.838,0
-0.459,-0.199,-1.727,0
-0.519,-0.208,-1.65,0
-0.536,-0.206,-1.489,0
-0.583,-0.182,-1.298,0
-0.605,-0.147,-0.883,0
-0.562,-0.128,-0.714,0
-0.559,-0.111,-0.72,0
-0.454,-0.258,-0.38,0
-0.588,-0.231,0.013,0
-0.615,-0.218,0.166,0
-0.543,-0.26,-0.032,0
-0.52,-0.188,-0.309,0
-0.458,0.015,-0.681,0
-0.389,0.12,-0.883,0
-0.494,0.307,-1.183,0
-0.639,0.321,-0.999,0
-0.936,0.213,-0.026,0
-1.032,0.207,0.73,0
-1.036,0.218,0.726,0
-0.983,0.115,1.545,0
-0.893,0.141,1.774,0
-0.795,0.182,2.032,0
-0.647,0.253,2.352,0
-0.644,0.269,2.374,0
-0.439,0.476,1.834,0
-0.317,0.496,1.457,1
-0.3,0.493,1.457,0
-0.36,0.777,0.941,0
-0.395,1.04,1.091,0
-0.388,1.09,1.053,0
-0.391,0.883,0.914,0
-0.35,0.656,0.922,0
-0.371,0.678,0.916,0
-0.146,-0.471,2.778,0
-0.485,-1.104,4.244,0
-0.898,-1.422,4.864,0
-1.665,-1.703,4.844,0
-1.783,-1.537,4.019,0
-1.417,-1.137,1.762,0
-1.164,-0.807,0.295,0
-0.869,-0.377,-1.537,0
-0.745,-0.181,-2.208,0
-0.846,-0.032,-2.421,0
-0.916,-0.034,-2.157,0
-1.054,-0.291,-1.187,0
-1.053,-0.503,-0.47,0
-0.987,-0.744,0.438,0
-1.024,-0.907,0.866,0
-0.913,-0.917,0.981,0
-0.801,-0.771,0.738,0
-0.692,-0.631,-0.233,0
-0.699,-0.579,-0.791,0
-0.73,-0.518,-1.656,0
-0.712,-0.44,-2.078,0
-0.658,-0.377,-2.23,0
-0.678,-0.33,-2.101,0
-0.686,-0.341,-2.097,0
-0.616,-0.183,-1.421,0
-0.702,-0.077,-0.957,0
-0.76,-0.025,-0.83,0
-0.914,0.017,-1.048,0
-1.011,-0.028,-1.262,0
-1.16,-0.1,-1.437,0
-1.13,-0.075,-1.433,0
-0.906,0.072,-1.231,0
-0.762,0.126,-0.988,0
-0.436,0.16,-0.532,0
-0.375,0.157,-0.32,0
-0.538,-0.012,0.102,0
-0.646,-0.095,0.336,0
-0.874,-0.096,0.974,0
-0.824,-0.014,1.478,0
-0.619,0.123,1.479,0
-0.574,0.162,1.21,0
-0.604,0.203,0.629,0
-0.573,0.257,0.431,0
-0.468,0.44,0.499,0
-0.392,0.468,0.651,0
-0.279,0.667,0.94,0
-0.415,0.84,1.084,0
-0.568,0.895,0.975,0
-0.515,0.743,0.747,0
-0.535,0.428,0.704,0
-0.618,0.308,0.864,1
-0.607,0.313,0.861,0
-0.975,0.279,1.473,0
-1.184,0.446,1.138,0
-1.253,0.558,0.785,0
-0.847,0.502,-0.031,0
-0.212,0.382,-0.224,0
0.054,0.19,0.429,0
-0.174,-0.022,1.232,0
-0.774,-0.474,2.47,0
-1.413,-0.811,3.001,0
-2.328,-1.291,3.017,0
-2.465,-1.313,2.49,0
-1.916,-1.092,1.184,0
-1.461,-0.91,0.352,0
-0.787,-0.306,-0.943,0
-0.335,-0.126,-1.413,0
0.204,0.005,-1.919,0
-0.02,-0.024,-1.783,0
-0.603,-0.469,-0.962,0
-0.806,-0.778,-0.298,0
-1.277,-1.236,0.635,0
-1.552,-1.382,0.753,0
-1.804,-1.523,0.507,0
-1.644,-1.474,-0.054,0
-0.928,-0.941,-1.428,0
-0.579,-0.629,-2.07,0
0.055,-0.11,-2.781,0
0.413,0.231,-2.908,0
0.472,0.521,-2.917,0
0.147,0.52,-2.716,0
-0.511,0.209,-2.06,0
-0.793,-0.002,-1.651,0
-1.113,-0.114,-1.132,0
-1.13,-0.076,-0.925,0
-0.969,-0.026,-0.572,0
-0.746,0.134,-0.39,0
-0.459,0.156,-0.379,0
-0.386,0.24,-0.351,0
-0.012,0.417,-0.233,0
0.142,0.495,-0.136,0
0.063,0.538,0.075,0
-0.236,0.427,0.273,0
-0.705,0.155,0.517,0
-1.006,0.08,0.507,0
-1.345,-0.052,0.529,0
-1.4,-0.156,0.609,0
-1.375,-0.083,0.932,0
-1.249,-0.007,1.207,0
-1.255,-0.03,1.215,0
-0.896,0.109,1.563,0
-0.51,0.286,1.382,0
-0.134,0.349,1.332,0
0.232,0.455,1.245,0
0.289,0.561,1.088,1
0.322,0.823,0.753,0
0.369,0.898,0.537,0
0.217,0.844,0.202,0
-0.05,0.887,0.081,0
-0.788,0.999,0.086,0
-1.051,1.008,0.088,0
-0.996,1.071,0.026,0
-0.692,1.089,-0.169,0
0.175,0.88,-0.611,0
0.622,0.73,-0.395,0
0.639,0.302,1.336,0
0.441,-0.037,2.539,0
-0.57,-0.607,4.053,0
-1.217,-0.764,3.899,0
-1.873,-0.932,1.991,0
-2.034,-0.923,0.783,0
-1.891,-0.619,-1.163,0
-1.773,-0.46,-2.057,0
-1.6,-0.266,-2.909,0
-1.553,-0.16,-3.106,0
-1.461,-0.149,-2.456,0
-1.265,-0.202,-1.722,0
-1.039,-0.435,-0.516,0
-1.155,-0.691,0.059,0
-1.28,-1.094,0.591,0
-1.192,-1.212,0.609,0
-0.971,-1.266,0.213,0
-0.876,-1.163,-0.254,0
-0.676,-0.889,-0.724,0
-0.499,-0.71,-0.867,0
-0.513,-0.703,-0.868,0
-0.654,-0.355,-0.823,0
-0.942,-0.281,-0.732,0
-1.049,-0.285,-0.754,0
-1.134,-0.265,-0.91,0
-1.164,-0.186,-0.949,0
-1.162,-0.181,-0.951,0
-0.922,0.023,-1.076,0
-0.717,0.201,-0.953,0
-0.561,0.347,-0.827,0
-0.373,0.503,-0.795,0
-0.379,0.502,-0.794,0
-0.499,0.475,-0.451,0
-0.403,0.4,-0.259,0
-0.336,0.386,0.135,0
-0.33,0.363,0.324,0
-0.599,0.208,0.844,0
-0.836,0.046,1.348,0
-0.986,0.047,2.003,0
-0.969,0.038,2.055,0
-0.772,0.026,1.827,0
-0.431,0.131,1.621,0
0.192,0.417,1.209,0
0.421,0.498,0.977,0
0.425,0.465,0.988,0
0.207,0.894,0.489,0
0.266,0.843,0.199,0
0.241,0.71,0.074,0
-0.134,0.59,0.062,0
-0.434,0.505,0.413,1
-0.43,0.505,0.413,0
-1.021,0.24,1.483,0
-1.321,0.438,1.614,0
-1.128,0.543,1.313,0
-1.113,0.55,1.31,0
0.259,0.663,0.304,0
0.616,0.559,0.973,0
0.367,0.319,1.58,0
-0.464,-0.394,2.564,0
-1.064,-0.746,2.636,0
-1.662,-0.878,2.4,0
-1.595,-0.851,2.052,0
-1.492,-0.893,0.877,0
-1.388,-0.69,0.156,0
-0.845,-0.302,-1.018,0
-0.517,-0.172,-1.63,0
-0.313,-0.183,-2.362,0
-0.384,-0.174,-2.518,0
-0.382,-0.183,-2.516,0
-0.738,-0.529,-1.413,0
-0.75,-0.513,-1.419,0
-1.053,-0.749,-0.328,0
-1.295,-0.816,-0.045,0
-1.243,-0.814,-0.137,0
-0.686,-0.439,-0.793,0
-0.693,-0.449,-0.789,0
-0.291,-0.198,-1.314,0
-0.171,0.224,-1.299,0
-0.511,0.182,-0.562,0
-0.777,0.051,-0.155,0
-0.969,0.078,0.095,0
-1.022,0.133,0.181,0
-0.759,0.081,0.03,0
-0.564,0.198,-0.426,0
-0.419,0.362,-1.334,0
-0.323,0.344,-1.709,0
-0.265,0.266,-1.824,0
-0.207,0.269,-1.552,0
-0.223,0.27,-0.76,0
-0.296,0.153,-0.275,0
-0.469,0.05,0.26,0
-0.586,-0.051,0.394,0
-0.573,-0.054,0.394,0
-0.784,0.026,-0.205,0
-0.806,0.013,-0.522,0
-0.77,0.077,-0.428,0
-0.706,0.246,0.091,0
-0.686,0.248,0.517,0
-0.848,0.2,1.231,0
-0.93,0.181,1.48,0
-0.607,0.172,1.8,0
-0.458,0.251,1.942,0
-0.404,0.532,1.869,0
-0.289,0.721,1.634,0
-0.036,0.799,1.144,0
-0.148,0.886,0.938,1
-0.597,1.196,0.733,0
-0.821,1.253,0.474,0
-1.194,1.088,-0.027,0
-1.365,0.958,-0.252,0
-0.974,0.39,-0.579,0
-0.505,-0.099,-0.33,0
-0.1,-0.548,1.363,0
0.13,-0.441,2.552,0
0.212,-0.466,4.132,0
-0.148,-0.431,4.055,0
-0.828,-0.523,1.834,0
-1.058,-0.606,0.138,0
-1.133,-0.261,-1.96,0
-1.094,-0.207,-2.724,0
-1.352,-0.24,-3.536,0
-1.61,-0.267,-3.507,0
-1.609,-0.32,-2.569,0
-1.27,-0.287,-1.552,0
-0.761,-0.352,0.071,0
-0.733,-0.55,0.846,0
-0.772,-0.726,1.403,0
-0.727,-0.738,1.268,0
-0.688,-0.744,0.315,0
-0.632,-0.722,-0.4,0
-0.485,-0.621,-1.533,0
-0.302,-0.545,-1.966,0
-0.263,-0.476,-2.094,0
-0.284,-0.324,-1.826,0
-0.302,-0.092,-1.021,0
-0.388,0.007,-0.578,0
-0.71,0.11,-0.09,0
-0.841,0.133,-0.164,0
-0.996,0.225,-0.512,0
-1.105,0.133,-0.776,0
-1.139,0.141,-1.007,0
-1.035,0.199,-0.95,0
-0.847,0.282,-0.529,0
-0.703,0.355,-0.157,0
-0.464,0.383,0.393,0
-0.453,0.379,0.621,0
-0.65,0.305,0.84,0
-0.756,0.193,1.015,0
-0.761,0.18,0.951,0
-0.773,0.224,0.809,0
-0.771,0.173,0.535,0
-0.755,0.095,0.453,0
-0.538,0.049,0.625,0
-0.44,0.12,1.006,0
-0.139,0.454,1.7,0
0.165,0.658,1.895,0
0.145,0.633,1.906,0
0.153,1.24,1.116,1
0.161,0.923,0.169,0
0.216,0.687,-0.062,0
0.25,0.684,-0.064,0
-0.37,0.558,0.863,0
-0.355,0.57,0.858,0
-1.006,0.272,1.995,0
-1.554,0.25,1.247,0
-1.483,0.139,0.573,0
-0.697,0.107,-0.405,0
-0.3,0.141,-0.519,0
-0.145,0.075,0.23,0
-0.289,-0.07,0.954,0
-0.737,-0.443,1.975,0
-1.043,-0.609,2.182,0
-1.385,-0.836,1.926,0
-1.224,-0.839,1.455,0
-0.911,-0.785,0.29,0
-0.787,-0.811,-0.356,0
-0.591,-0.8,-0.873,0
-0.436,-0.708,-0.604,0
-0.142,-0.555,0.215,0
-0.082,-0.523,0.749,0
-0.23,-0.59,1.302,0
-0.397,-0.619,1.235,0
-0.563,-0.542,0.49,0
-0.485,-0.467,-0.136,0
-0.322,-0.352,-1.303,0
-0.257,-0.221,-1.927,0
-0.414,0.012,-2.476,0
-0.421,0.021,-2.612,0
-0.439,0.19,-2.205,0
-0.43,0.353,-1.681,0
-0.35,0.52,-0.922,0
-0.377,0.502,-0.729,0
-0.555,0.411,-0.88,0
-0.684,0.333,-1.145,0
-0.786,0.195,-1.477,0
-0.725,0.184,-1.523,0
-0.558,0.327,-1.357,0
-0.345,0.368,-1.257,0
0.042,0.481,-0.903,0
0.147,0.545,-0.552,0
0.124,0.548,-0.551,0
0.125,0.516,0.069,0
-0.1,0.562,0.436,0
-0.176,0.593,0.458,0
-0.245,0.638,0.102,0
-0.315,0.612,-0.157,0
-0.247,0.718,-0.416,0
-0.111,0.784,-0.302,0
0.119,0.815,0.196,0
0.168,0.761,0.63,0
0.256,0.845,1.105,0
0.332,0.877,1.409,0
0.6,0.714,1.674,0
0.598,0.665,1.822,0
0.289,0.822,2.045,0
0.206,0.917,1.896,0
0.389,0.742,1.333,0
0.426,0.58,0.985,1
0.087,0.772,0.71,0
-0.056,0.911,0.524,0
-0.198,0.806,0.062,0
-0.308,0.692,-0.16,0
-0.306,0.624,-0.498,0
-0.058,0.374,-0.436,0
0.301,-0.013,0.449,0
0.261,-0.369,1.427,0
0.083,-0.647,2.489,0
-0.224,-0.672,2.711,0
-0.757,-0.821,1.778,0
-1.032,-0.875,0.758,0
-1.382,-0.971,-0.62,0
-1.479,-0.932,-1.252,0
-1.61,-0.91,-1.821,0
-1.631,-0.804,-1.911,0
-1.446,-0.664,-1.897,0
-1.218,-0.62,-1.87,0
-0.804,-0.683,-1.915,0
-0.756,-0.733,-1.928,0
-0.694,-0.827,-1.837,0
-0.718,-0.988,-1.499,0
-0.713,-0.964,-0.204,0
-0.588,-0.851,0.614,0
-0.312,-0.66,1.494,0
-0.173,-0.411,1.705,0
0.161,-0.117,1.264,0
0.312,0.076,0.469,0
0.4,0.265,-1.091,0
0.373,0.3,-1.705,0
0.264,0.365,-1.799,0
0.176,0.352,-1.558,0
-0.016,0.445,-0.45,0
-0.122,0.421,0.296,0
-0.194,0.346,0.889,0
-0.275,0.362,0.711,0
-0.249,0.411,-0.1,0
-0.175,0.441,-0.731,0
-0.164,0.422,-0.726,0
-0.039,0.496,-1.773,0
-0.161,0.514,-1.354,0
-0.282,0.467,-0.863,0
-0.587,0.29,0.096,0
-0.871,0.234,0.525,0
-1.072,0.257,0.934,0
-0.924,0.254,1.004,0
-0.627,0.214,0.935,0
-0.435,0.337,0.939,0
-0.026,0.531,1.126,0
0.175,0.635,1.192,0
0.172,0.611,1.2,0
0.008,0.946,1.181,0
0.058,0.822,0.719,0
0.175,0.642,0.458,1
-0.013,0.514,0.486,0
-0.232,0.555,0.746,0
-0.318,0.714,1.276,0
-0.123,0.829,1.488,0
0.176,1.076,1.466,0
0.196,1.076,1.465,0
1.048,1.192,0.686,0
1.537,1.08,0.47,0
1.832,0.809,0.585,0
1.615,0.613,0.847,0
0.578,-0.079,1.409,0
-0.02,-0.491,1.321,0
-0.675,-0.744,0.91,0
-0.835,-0.958,0.516,0
-1.053,-1.295,-0.289,0
-1.12,-1.289,-0.581,0
-1.104,-1.234,-0.515,0
-0.812,-1.093,-0.014,0
-0.437,-0.932,0.904,0
-0.382,-0.87,1.133,0
-0.511,-0.962,0.935,0
-0.509,-0.981,0.587,0
-0.438,-0.992,-0.432,0
-0.417,-0.882,-1.169,0
-0.444,-0.858,-2.236,0
-0.302,-0.675,-2.735,0
0.01,-0.179,-2.662,0
0.321,0.028,-2.241,0
0.904,0.537,-1.341,0
0.993,0.706,-0.829,0
0.885,0.836,-0.176,0
0.791,0.807,-0.01,0
0.286,0.523,-0.235,0
-0.184,0.275,-0.617,0
-0.773,-0.052,-1.476,0
-0.871,-0.089,-1.92,0
-0.86,-0.119,-1.911,0
-0.426,0.317,-2.056,0
-0.027,0.601,-1.705,0
0.182,0.684,-1.356,0
0.351,0.635,-0.495,0
0.471,0.598,0.234,0
0.579,0.629,1.224,0
0.348,0.498,1.856,0
-0.276,0.162,2.424,0
-0.672,0.057,1.951,0
-1.1,-0.043,0.441,0
-0.99,-0.044,-0.367,0
-0.323,0.394,-1.447,0
0.161,0.596,-1.366,0
0.646,0.708,-0.261,0
0.671,0.689,0.436,0
0.408,0.646,1.587,0
0.249,0.452,2.212,0
0.08,0.401,2.339,0
-0.161,0.388,2.026,0
-0.348,0.233,0.758,0
-0.234,0.296,-0.083,1
-0.048,0.608,-0.966,0
0.113,0.945,-1.113,0
0.371,1.519,-0.933,0
0.282,1.636,-0.693,0
-0.103,1.338,-0.308,0
-0.101,0.937,-0.152,0
0.147,0.147,0.593,0
0.107,-0.384,1.679,0
-0.209,-1.206,3.616,0
-0.664,-1.406,4.384,0
-1.189,-1.344,4.771,0
-1.038,-1.115,3.894,0
-0.62,-0.887,1.27,0
-0.438,-0.442,-0.548,0
-0.315,-0.098,-1.991,0
-0.384,-0.177,-2.423,0
-1.074,-0.346,-2.436,0
-1.481,-0.4,-1.894,0
-1.585,-0.73,-0.441,0
-1.467,-0.864,0.379,0
-1.107,-0.711,1.142,0
-0.747,-0.559,1.029,0
0.19,-0.146,-0.064,0
0.49,-0.001,-0.922,0
0.662,0.058,-1.951,0
0.636,-0.036,-2.365,0
0.102,-0.366,-2.534,0
-0.269,-0.56,-2.172,0
-0.529,-0.783,-1.075,0
-0.566,-0.758,-0.39,0
-0.493,-0.567,0.362,0
-0.223,-0.38,0.247,0
0.237,0.025,-0.856,0
0.325,0.19,-1.676,0
0.17,0.225,-2.704,0
0.105,0.242,-2.959,0
-0.078,0.133,-2.592,0
-0.146,0.018,-2.187,0
-0.253,-0.12,-1.043,0
-0.267,-0.131,-0.333,0
-0.167,-0.063,0.534,0
-0.087,-0.007,0.694,0
0.093,0.148,0.858,0
0.298,0.344,0.863,0
0.54,0.473,0.669,0
0.526,0.426,0.48,0
0.575,0.492,0.44,0
0.68,0.447,0.634,0
0.714,0.379,1.09,0
0.704,0.442,1.359,0
0.538,0.471,1.522,0
0.411,0.456,1.373,0
0.43,0.453,1.374,0
0.234,0.514,0.808,0
0.159,0.607,0.997,0
0.07,0.745,1.288,0
-0.034,0.875,1.766,0
-0.179,0.964,1.853,1
-0.411,1.139,1.177,0
-0.282,1.132,0.55,0
0.469,0.734,-0.178,0
0.984,0.536,-0.206,0
1.157,0.303,0.885,0
0.884,0.014,1.678,0
0.118,-0.6,3.012,0
-0.248,-0.732,3.149,0
-0.545,-0.832,2.252,0
-0.477,-0.748,1.177,0
-0.063,-0.389,0.011,0
0.196,-0.257,-0.779,0
0.044,-0.257,-1.625,0
-0.15,-0.381,-1.837,0
-0.362,-0.652,-1.816,0
-0.373,-0.772,-1.569,0
-0.375,-0.757,-1.574,0
-0.086,-0.942,-0.264,0
0.272,-0.748,0.611,0
0.456,-0.552,0.813,0
0.537,-0.385,0.782,0
0.526,-0.316,0.547,0
0.639,-0.15,-0.256,0
0.615,-0.057,-0.79,0
0.475,-0.005,-1.533,0
0.398,0.029,-1.745,0
0.339,0.047,-1.774,0
0.24,0.103,-1.496,0
0.207,0.201,-1.029,0
0.227,0.278,-0.834,0
0.342,0.322,-0.727,0
0.386,0.311,-0.646,0
0.362,0.446,-0.643,0
0.488,0.5,-0.849,0
0.546,0.446,-1.23,0
0.524,0.394,-1.455,0
0.507,0.325,-1.4,0
0.508,0.286,-1.052,0
0.423,0.214,-0.403,0
0.273,0.15,-0.071,0
-0.143,0.192,0.318,0
-0.294,0.137,0.475,0
-0.393,0.012,0.69,0
-0.403,0.01,0.695,0
-0.21,0.086,0.538,0
-0.001,0.115,0.607,0
0.196,0.188,0.806,0
0.235,0.274,0.978,0
0.297,0.491,1.154,0
0.244,0.533,1.049,0
0.177,0.44,0.68,0
0.246,0.402,0.535,0
0.235,0.484,0.792,0
0.124,0.648,1.068,1
-0.03,0.766,1.142,0
-0.125,0.791,0.98,0
-0.254,0.829,0.506,0
-0.262,0.837,0.503,0
-0.148,0.626,0.083,0
0.335,-0.431,0.985,0
0.505,-0.886,3.274,0
0.166,-1.106,4.576,0
-0.534,-1.238,5.097,0
-0.752,-1.229,4.28,0
-0.522,-0.946,1.645,0
-0.482,-0.698,0.238,0
-0.155,-0.387,-1.565,0
0.029,-0.276,-2.413,0
-0.243,-0.235,-3.13,0
-0.445,-0.266,-3.062,0
-0.262,-0.274,-2.173,0
0.099,-0.273,-1.263,0
0.504,-0.211,-0.191,0
0.507,-0.192,0.331,0
0.659,-0.117,0.495,0
0.684,-0.076,0.176,0
0.63,-0.145,-0.839,0
0.533,-0.198,-1.451,0
0.388,-0.321,-2.067,0
0.271,-0.359,-2.031,0
-0.02,-0.328,-1.276,0
-0.033,-0.21,-0.568,0
-0.017,-0.072,0.023,0
-0.229,0.011,0.011,0
-0.298,0.279,-0.516,0
-0.225,0.34,-0.928,0
-0.228,0.437,-1.348,0
-0.349,0.339,-1.498,0
-0.377,0.349,-1.393,0
-0.342,0.32,-1.018,0
-0.354,0.307,-1.014,0
-0.125,0.324,-0.058,0
0.074,0.333,0.095,0
0.058,0.316,0.101,0
0.088,0.372,0.166,0
0.345,0.491,0.307,0
0.481,0.575,0.453,0
0.24,0.512,0.505,0
0.251,0.495,0.511,0
0.09,0.092,0.572,0
0.186,-0.134,0.929,0
0.284,-0.163,1.181,0
0.391,0.032,1.677,0
0.406,0.101,1.832,0
0.211,0.258,1.516,0
0.16,0.273,1.004,0
0.078,0.23,0.241,0
-0.124,0.231,0.05,0
-0.421,0.391,0.111,0
-0.524,0.461,0.228,1
-0.821,0.62,0.406,0
-0.948,0.694,0.23,0
-0.254,0.484,-0.346,0
0.522,0.249,-0.567,0
1.31,-0.005,0.905,0
1.445,-0.211,1.944,0
0.66,-0.839,4.203,0
-0.184,-1.181,5.016,0
-0.928,-1.546,5.026,0
-1.039,-1.568,4.038,0
-0.846,-1.345,2.151,0
-0.557,-1.139,1.149,0
0.047,-0.612,-0.22,0
0.301,-0.346,-0.734,0
0.431,-0.178,-1.33,0
0.436,-0.134,-1.664,0
0.619,-0.063,-2.109,0
0.743,-0.104,-2.26,0
0.697,-0.2,-2.193,0
0.605,-0.269,-1.987,0
0.364,-0.355,-1.409,0
0.226,-0.463,-1.074,0
-0.047,-0.475,-0.804,0
-0.129,-0.423,-0.915,0
-0.164,-0.279,-1.358,0
-0.132,-0.178,-1.742,0
-0.003,0.043,-2.168,0
0.041,0.16,-2.14,0
0.049,0.334,-1.641,0
0.098,0.399,-1.195,0
0.182,0.494,-0.404,0
0.118,0.487,-0.032,0
0.053,0.457,0.14,0
0.095,0.363,-0.031,0
0.084,0.184,-0.539,0
0.023,0.107,-0.824,0
-0.063,0.007,-0.975,0
-0.083,-0.049,-0.809,0
-0.071,-0.061,-0.805,0
-0.128,-0.067,-0.031,0
-0.24,0.022,0.135,0
-0.272,0.117,0.126,0
-0.182,0.322,-0.172,0
-0.098,0.424,-0.485,0
-0.345,0.4,-0.635,0
-0.534,0.287,-0.457,0
-0.528,0.231,0.111,0
-0.411,0.142,0.6,0
-0.415,0.128,0.605,0
-0.242,0.283,2.011,0
-0.087,0.647,2.318,0
-0.076,0.81,2.18,0
0.011,0.944,1.334,0
-0.028,1.027,0.833,1
-0.431,1.168,0.304,0
-0.717,1.181,0.085,0
-0.825,1.163,-0.126,0
-0.724,1.145,-0.148,0
-0.222,0.958,-0.214,0
0.132,0.665,0.04,0
0.437,-0.211,1.605,0
0.31,-0.559,2.723,0
-0.542,-1.058,4.054,0
-1.289,-1.413,4.355,0
-1.907,-1.482,3.453,0
-1.783,-1.271,2.323,0
-1.485,-0.98,0.328,0
-1.278,-0.707,-0.741,0
-0.861,-0.287,-1.913,0
-0.439,-0.086,-2.285,0
-0.23,0.082,-2.438,0
-0.336,0.039,-2.075,0
-0.3,-0.296,-0.955,0
-0.351,-0.498,-0.291,0
-0.545,-0.994,0.625,0
-0.617,-1.073,0.833,0
-0.605,-1.037,0.725,0
-0.493,-0.968,0.319,0
-0.505,-0.962,0.317,0
-0.234,-0.516,-1.389,0
-0.135,-0.275,-2.404,0
-0.15,-0.181,-2.793,0
-0.228,-0.056,-3.007,0
-0.308,0.05,-2.843,0
-0.475,0.147,-2.329,0
-0.595,0.149,-1.973,0
-0.62,0.158,-1.975,0
-0.925,0.112,-0.872,0
-0.872,0.149,-0.594,0
-0.719,0.252,-0.585,0
-0.42,0.409,-0.556,0
-0.295,0.44,-0.389,0
-0.315,0.415,0.075,0
-0.463,0.257,0.331,0
-0.479,0.259,0.332,0
-0.837,0.018,0.718,0
-1.128,-0.095,0.897,0
-1.198,-0.146,0.998,0
-1.008,0.008,0.987,0
-0.795,0.118,0.762,0
-0.251,0.37,0.601,0
-0.051,0.535,0.841,0
0.1,0.739,1.506,0
0.137,0.752,1.803,0
-0.041,1.046,1.903,0
-0.221,1.087,1.515,0
-0.221,0.946,0.646,0
-0.156,0.8,0.329,1
-0.133,0.779,0.335,0
-0.215,0.787,0.418,0
-0.496,0.687,1.223,0
-0.726,0.64,1.788,0
-0.784,0.64,2.106,0
-0.553,0.549,1.944,0
-0.161,0.292,1.986,0
-0.058,0.069,2.405,0
-0.151,-0.304,3.013,0
-0.616,-0.695,3.482,0
-1.53,-1.141,3.477,0
-1.834,-1.284,3.046,0
-1.776,-1.269,3.039,0
-1.794,-1.24,1.885,0
-1.532,-0.972,-0.337,0
-1.34,-0.751,-1.113,0
-1.014,-0.621,-1.988,0
-0.834,-0.596,-2.345,0
-0.504,-0.581,-2.434,0
-0.269,-0.578,-2.234,0
-0.273,-0.574,-2.236,0
0.032,-0.714,-0.848,0
-0.027,-0.903,0.098,0
-0.077,-0.965,0.252,0
-0.226,-0.865,-0.21,0
-0.282,-0.787,-0.843,0
-0.21,-0.596,-1.964,0
-0.116,-0.435,-2.371,0
0.136,-0.04,-2.773,0
0.199,0.009,-2.699,0
0.189,0.116,-2.25,0
0.122,0.194,-1.791,0
-0.133,0.042,-0.985,0
-0.384,-0.146,-0.632,0
-0.591,-0.224,-0.468,0
-0.663,-0.326,-0.569,0
-0.668,-0.406,-0.912,0
-0.561,-0.322,-1.251,0
-0.56,-0.331,-1.249,0
-0.061,-0.112,-1.774,0
0.239,0.022,-1.418,0
0.313,0.11,-0.95,0
0.28,0.127,-0.14,0
0.056,0.114,0.263,0
0.056,0.126,0.259,0
-0.15,0.112,0.475,0
-0.146,0.255,0.113,0
-0.184,0.303,-0.173,0
-0.113,0.389,-0.433,0
-0.01,0.466,-0.333,0
0.309,0.548,0.22,0
0.293,0.539,0.224,0
0.315,0.495,1.718,0
0.062,0.422,2.384,0
-0.297,0.44,3.031,0
-0.437,0.503,3.114,1
-0.506,0.583,2.332,0
-0.679,0.608,1.597,0
-0.664,0.579,1.607,0
-0.877,0.884,0.268,0
-0.85,0.734,-0.239,0
-0.748,0.577,-0.475,0
-0.539,0.211,0.231,0
-0.463,-0.212,1.442,0
-0.329,-0.759,3.555,0
-0.514,-1.029,4.765,0
-0.838,-1.315,5.559,0
-0.804,-1.146,4.889,0
-0.789,-0.896,2.175,0
-0.917,-0.723,0.36,0
-0.712,-0.361,-1.469,0
-0.489,-0.334,-2.135,0
-0.839,-0.517,-2.993,0
-1.221,-0.617,-3.136,0
-1.484,-0.763,-2.52,0
-1.294,-0.803,-1.753,0
-0.77,-0.733,-0.361,0
-0.772,-0.779,0.321,0
-0.767,-0.816,0.736,0
-0.719,-0.815,0.711,0
-0.793,-0.823,0.285,0
-0.913,-0.852,-0.138,0
-1.034,-0.895,-0.784,0
-1.103,-0.895,-0.997,0
-1.112,-0.901,-0.994,0
-1.126,-0.615,-1.084,0
-1.036,-0.324,-1.014,0
-0.942,-0.15,-1.033,0
-0.938,-0.147,-1.034,0
-0.776,0.159,-1.317,0
-0.728,0.234,-1.433,0
-0.697,0.24,-1.472,0
-0.663,0.176,-1.336,0
-0.574,0.142,-1.128,0
-0.581,0.139,-1.127,0
-0.762,-0.137,-0.21,0
-1.042,-0.333,0.452,0
-1.121,-0.426,0.667,0
-1.229,-0.347,0.541,0
-1.364,-0.439,0.89,0
-1.019,-0.396,0.976,0
-0.903,-0.291,0.875,0
-0.622,-0.052,0.661,0
-0.244,0.129,0.533,0
0.103,0.315,0.473,0
0.022,0.243,0.607,0
-0.225,0.056,0.971,0
-0.377,0.074,1.111,0
-0.687,0.386,0.869,0
-0.786,0.602,0.548,0
-0.627,0.771,0.182,0
-0.414,0.835,0.058,0
-0.087,1.051,0.054,0
0.021,1.127,0.281,1
0.393,1.009,0.909,0
0.678,0.929,1.355,0
0.904,0.976,2.124,0
0.982,0.981,2.55,0
0.843,0.533,3.33,0
0.62,0.215,3.414,0
-0.166,-0.278,2.924,0
-0.752,-0.652,2.617,0
-1.542,-1.194,2.199,0
-1.805,-1.442,1.772,0
-2.165,-1.668,0.732,0
-2.177,-1.736,0.149,0
-1.966,-1.738,-0.683,0
-1.731,-1.684,-0.974,0
-1.274,-1.46,-1.17,0
-0.906,-1.27,-1.146,0
-0.918,-1.272,-1.145,0
-0.135,-0.839,-0.316,0
-0.159,-0.792,0.085,0
-0.297,-0.79,0.06,0
-0.442,-0.766,-0.397,0
-0.424,-0.731,-0.827,0
-0.273,-0.493,-1.338,0
-0.039,-0.272,-1.504,0
0.146,0.009,-1.621,0
0.119,0.107,-1.585,0
-0.041,0.19,-1.306,0
-0.213,0.087,-1.207,0
-0.216,0.091,-1.208,0
-0.845,-0.276,-1.381,0
-0.837,-0.268,-1.383,0
-0.864,-0.483,-1.155,0
-0.55,-0.344,-0.775,0
-0.389,-0.281,-0.597,0
-0.327,-0.299,-0.246,0
-0.392,-0.399,-0.149,0
-0.449,-0.493,-0.132,0
-0.461,-0.516,-0.096,0
-0.497,-0.526,0.19,0
-0.43,-0.429,0.364,0
-0.224,-0.202,0.392,0
-0.057,-0.05,0.355,0
0.133,0.155,-0.034,0
0.172,0.284,-0.379,0
0.141,0.408,-0.884,0
0.168,0.406,-0.996,0
0.258,0.4,-0.611,0
0.283,0.37,-0.077,0
0.268,0.351,-0.07,0
0.415,0.303,1.08,0
0.254,0.268,1.966,0
0.291,0.356,2.278,0
0.363,0.625,1.993,0
0.319,0.611,1.285,1
0.16,0.607,0.05,0
-0.02,0.585,-0.454,0
-0.454,0.818,-0.845,0
-0.614,0.847,-0.828,0
-0.572,0.776,-0.658,0
-0.588,0.742,-0.244,0
-0.54,0.45,1.18,0
-0.361,0.18,2.053,0
-0.52,-0.382,3.354,0
-0.904,-0.676,3.785,0
-1.55,-0.936,3.539,0
-1.883,-1.032,2.746,0
-1.989,-0.959,0.989,0
-1.995,-0.968,0.191,0
-1.943,-0.938,-1.125,0
-1.966,-0.9,-1.415,0
-1.817,-0.81,-0.947,0
-1.597,-0.683,-0.267,0
-1.26,-0.655,0.88,0
-1.125,-0.678,1.199,0
-1.183,-0.953,1.351,0
-1.148,-0.998,1.154,0
-0.956,-0.994,0.497,0
-0.912,-1.005,0.011,0
-0.683,-0.902,-0.846,0
-0.566,-0.818,-1.16,0
-0.629,-0.729,-1.244,0
-0.836,-0.739,-1.12,0
-1.066,-0.701,-0.983,0
-1.125,-0.645,-1.035,0
-1.186,-0.375,-1.188,0
-1.059,-0.173,-1.271,0
-1.048,-0.177,-1.27,0
-0.695,0.443,-1.441,0
-0.581,0.756,-1.346,0
-0.543,0.783,-1.174,0
-0.709,0.721,-0.712,0
-0.845,0.569,-0.4,0
-0.881,0.279,0.073,0
-0.861,0.131,0.376,0
-0.823,0.064,0.851,0
-0.678,0.038,1.072,0
-0.68,0.025,1.076,0
-0.303,0.195,1.144,0
0.047,0.291,1.157,0
0.049,0.262,1.167,0
0.268,0.417,1.289,0
0.331,0.344,1.416,0
0.495,0.357,1.557,0
0.579,0.359,1.516,0
0.652,0.308,1.187,0
0.677,0.208,0.879,0
0.412,0.309,0.334,0
0.306,0.42,0.022,0
0.668,0.325,-0.409,0
0.83,0.304,-0.267,0
0.611,0.36,0.375,0
0.271,0.254,0.762,1
-0.141,0.159,1.398,0
-0.356,0.031,1.601,0
-0.43,0.191,1.432,0
-0.235,0.086,1.043,0
0.156,-0.158,0.573,0
0.211,-0.352,0.836,0
0.227,-0.328,0.826,0
-0.313,-0.965,2.217,0
-0.854,-1.131,2.023,0
-1.172,-1.253,1.626,0
-1.179,-1.384,0.708,0
-0.999,-1.334,0.015,0
-0.817,-1.199,-1.174,0
-0.711,-1.15,-1.55,0
-0.487,-0.938,-1.68,0
-0.337,-0.791,-1.425,0
-0.075,-0.644,-0.939,0
0.012,-0.612,-0.661,0
0.013,-0.662,-0.46,0
-0.025,-0.78,-0.49,0
-0.212,-0.912,-0.513,0
-0.345,-1.037,-0.441,0
-0.459,-1.108,-0.321,0
-0.423,-0.996,-0.27,0
-0.088,-0.632,-0.496,0
0.195,-0.349,-0.752,0
0.431,0.009,-1.156,0
0.38,0.119,-1.408,0
0.157,0.119,-1.844,0
-0.001,0.069,-1.972,0
-0.252,0.041,-1.921,0
-0.269,0.048,-1.662,0
-0.117,0.076,-1.049,0
0.011,0.119,-0.799,0
0.167,0.225,-0.57,0
0.279,0.241,-0.512,0
0.293,0.205,-0.381,0
0.306,0.248,-0.426,0
0.33,0.235,-0.599,0
0.32,0.239,-0.625,0
0.226,0.23,-0.595,0
0.157,0.23,-0.461,0
0.045,0.254,-0.237,0
-0.102,0.269,0.011,0
-0.508,0.208,0.751,0
-0.602,0.201,1.188,0
-0.544,0.17,1.588,0
-0.51,0.111,1.637,0
-0.192,0.171,1.466,0
0.108,0.207,1.185,0
0.299,0.293,0.697,0
0.272,0.409,0.606,0
0.259,0.544,0.767,0
0.209,0.495,0.931,1
0.211,0.479,0.939,0
-0.357,0.541,1.126,0
-0.356,0.532,1.13,0
-0.576,1.003,0.487,0
-0.224,1.115,-0.209,0
0.423,1.024,-0.547,0
1.147,0.821,0.202,0
1.067,0.328,1.621,0
0.667,-0.711,3.785,0
0.156,-1.093,4.449,0
-1.102,-1.733,4.672,0
-1.575,-1.921,3.899,0
-1.567,-1.623,1.121,0
-1.444,-1.523,-0.247,0
-0.963,-1.164,-2.412,0
-0.55,-0.796,-3.293,0
-0.045,-0.027,-3.989,0
0.159,0.223,-3.651,0
0.483,0.291,-1.985,0
0.553,0.14,-0.89,0
0.291,-0.458,0.533,0
-0.101,-0.876,1.043,0
-0.426,-1.097,1.098,0
-0.39,-1.073,0.915,0
0.002,-0.92,0.271,0
0.316,-0.685,-0.327,0
0.553,-0.365,-1.328,0
0.497,-0.348,-1.694,0
0.18,-0.317,-1.942,0
-0.092,-0.427,-1.707,0
-0.487,-0.616,-1.177,0
-0.613,-0.604,-1.01,0
-0.694,-0.517,-0.738,0
-0.667,-0.417,-0.629,0
-0.379,-0.128,-0.817,0
-0.144,0.084,-1.058,0
0.207,0.26,-1.487,0
0.302,0.311,-1.685,0
0.299,0.423,-1.465,0
0.149,0.275,-0.967,0
-0.058,-0.016,-0.17,0
-0.258,-0.109,0.231,0
-0.321,-0.21,0.815,0
-0.263,-0.206,1.045,0
-0.072,-0.094,1.074,0
-0.037,-0.045,0.94,0
0.052,0.121,0.728,0
0.163,0.208,0.642,0
0.252,0.272,0.661,0
0.228,0.205,0.79,0
0.114,0.151,1.139,0
0.151,0.21,1.28,0
0.097,0.268,1.34,0
0.072,0.351,1.141,0
0.256,0.41,0.422,0
0.479,0.283,0.046,1
0.528,0.102,0.323,0
0.289,0.113,1.009,0
-0.041,0.109,2,0
-0.261,0.099,2.289,0
-0.439,0.296,1.953,0
-0.301,0.4,1.353,0
0.211,0.149,0.384,0
0.566,-0.087,0.168,0
0.559,-0.064,0.159,0
0.35,-0.684,1.882,0
-0.386,-0.97,2.938,0
-0.895,-1.209,3.363,0
-0.981,-1.151,2.71,0
-0.762,-0.858,1.895,0
-0.382,-0.52,0.289,0
-0.177,-0.325,-0.511,0
0.082,-0.05,-1.095,0
0.199,0.048,-1.24,0
0.074,-0.139,-1.382,0
-0.077,-0.337,-1.382,0
-0.215,-0.475,-1.039,0
-0.203,-0.575,-0.721,0
0.013,-0.609,-0.379,0
0.173,-0.501,-0.231,0
0.421,-0.368,-0.272,0
0.509,-0.373,-0.514,0
0.404,-0.359,-0.753,0
0.242,-0.345,-0.708,0
0.02,-0.256,-0.471,0
-0.146,-0.196,-0.383,0
-0.296,-0.106,-0.473,0
-0.296,-0.01,-0.639,0
-0.177,0.149,-0.941,0
-0.06,0.205,-0.991,0
-0.056,0.182,-1.025,0
0.013,0.158,-1.053,0
0.061,0.104,-0.941,0
0.029,-0.004,-0.684,0
-0.045,-0.231,-0.206,0
-0.114,-0.341,0.083,0
-0.128,-0.364,0.091,0
-0.112,-0.545,0.552,0
-0.172,-0.479,0.228,0
-0.193,-0.449,-0.051,0
-0.173,-0.481,-0.038,0
-0.168,-0.331,-1.306,0
-0.288,-0.217,-1.774,0
-0.221,-0.196,-1.649,0
-0.317,-0.083,-0.562,0
-0.358,-0.131,0.223,0
-0.22,-0.228,0.873,0
-0.302,-0.139,1.12,0
-0.426,-0.093,1.677,0
-0.327,0.002,1.82,0
0.154,0.317,1.731,0
0.604,0.464,1.081,0
0.903,0.771,0.152,0
0.914,0.994,-0.049,0
0.797,1.193,0.05,0
0.612,1.187,0.308,1
0.095,0.811,0.713,0
-0.055,0.467,0.881,0
0.086,-0.39,1.49,0
0.053,-0.924,2.129,0
-0.409,-1.522,3.595,0
-0.72,-1.825,4.515,0
-1.112,-1.821,4.869,0
-1.26,-1.666,3.964,0
-1.289,-1.585,1.399,0
-1.096,-1.233,-0.155,0
-0.989,-0.913,-1.671,0
-0.992,-0.9,-2.159,0
-0.945,-0.606,-2.68,0
-0.886,-0.337,-2.762,0
-0.596,-0.206,-2.04,0
-0.29,-0.195,-1.315,0
0.185,-0.076,-0.239,0
0.237,-0.153,0.311,0
0.374,-0.312,0.701,0
0.541,-0.271,0.568,0
0.633,-0.137,0.061,0
0.469,-0.234,-0.245,0
-0.095,-0.449,-0.736,0
-0.408,-0.576,-0.944,0
-0.782,-0.679,-0.939,0
-0.849,-0.637,-0.891,0
-0.895,-0.501,-0.876,0
-0.868,-0.395,-0.826,0
-0.869,-0.391,-0.828,0
-0.372,0.167,-0.798,0
-0.058,0.313,-0.786,0
0.041,0.345,-0.788,0
-0.009,0.301,-0.736,0
-0.091,0.213,-0.52,0
-0.249,0.089,-0.12,0
-0.363,-0.055,0.1,0
-0.544,-0.261,0.363,0
-0.612,-0.32,0.328,0
-0.7,-0.334,0.263,0
-0.698,-0.325,0.233,0
-0.507,-0.165,0.236,0
-0.248,-0.081,0.286,0
0.006,0.046,0.61,0
0.176,0.105,0.939,0
0.397,0.088,1.444,0
0.314,-0.04,1.654,0
0.209,-0.048,1.862,0
0.346,-0.049,1.784,0
0.282,0.206,1.416,0
-0.068,0.489,0.926,0
-0.266,0.371,0.107,0
-0.123,0.148,-0.179,0
-0.194,0.365,-0.339,0
-0.409,0.526,-0.132,1
-0.746,0.503,0.415,0
-0.758,0.5,0.417,0
-0.818,0.5,1.018,0
-0.42,0.449,0.812,0
0.468,0.126,0.617,0
0.608,-0.148,1.063,0
0.449,-0.621,2.057,0
-0.238,-0.957,2.853,0
-1.49,-1.601,3.693,0
-1.939,-1.818,3.651,0
-2.221,-1.894,2.866,0
-2.128,-1.851,2.021,0
-1.717,-1.512,0.565,0
-1.209,-1.018,-0.394,0
-0.384,-0.368,-1.224,0
-0.001,-0.119,-1.63,0
0.26,0.089,-2.196,0
0.258,0.11,-2.31,0
0.002,-0.162,-2.176,0
-0.324,-0.457,-1.949,0
-0.309,-0.434,-1.958,0
-0.901,-0.855,-0.878,0
-1.027,-0.892,-0.33,0
-0.848,-0.651,-0.071,0
-0.213,-0.126,0.076,0
0.175,0.116,-0.131,0
0.139,0.099,-0.124,0
0.023,0.278,-0.869,0
-0.392,0.085,-1.055,0
-0.629,-0.079,-0.959,0
-0.83,-0.237,-0.732,0
-0.908,-0.292,-0.554,0
-0.89,-0.287,-0.557,0
-0.705,-0.328,-0.434,0
-0.439,-0.246,-0.708,0
-0.295,-0.185,-0.943,0
-0.038,-0.064,-1.255,0
0.098,-0.014,-1.353,0
0.032,0.035,-1.225,0
-0.16,-0.055,-0.787,0
-0.569,-0.25,-0.17,0
-0.773,-0.297,0.018,0
-0.955,-0.216,0.088,0
-0.956,-0.154,0.027,0
-0.835,-0.122,-0.024,0
-0.82,-0.052,-0.015,0
-0.794,0.213,0.188,0
-0.755,0.264,0.478,0
-0.645,0.281,1.016,0
-0.53,0.222,1.351,0
-0.536,0.146,1.76,0
-0.723,0.073,2.207,0
-0.742,0.054,2.216,0
-0.669,0.46,2.123,0
-0.457,0.491,1.292,0
-0.353,0.494,0.666,1
-0.56,0.747,-0.168,0
-0.808,0.883,-0.528,0
-1.075,0.834,-0.799,0
-1.26,0.711,-0.688,0
-1.302,0.326,-0.393,0
-0.939,-0.017,-0.098,0
-0.391,-0.498,1.311,0
-0.251,-0.685,2.518,0
-0.272,-0.866,4.072,0
-0.591,-0.987,4.347,0
-0.622,-0.944,4.332,0
-1.569,-1.08,1.684,0
-1.592,-0.735,-0.307,0
-1.415,-0.612,-1.226,0
-1.426,-0.604,-2.383,0
-1.626,-0.574,-2.735,0
-1.775,-0.519,-2.49,0
-1.709,-0.599,-1.896,0
-1.593,-0.758,-0.721,0
-1.529,-0.824,0.024,0
-1.175,-0.872,0.589,0
-0.958,-0.801,0.694,0
-0.6,-0.601,0.308,0
-0.386,-0.488,-0.117,0
-0.263,-0.416,-0.79,0
-0.318,-0.475,-1.079,0
-0.51,-0.509,-1.236,0
-0.632,-0.498,-1.161,0
-0.782,-0.443,-0.839,0
-0.924,-0.413,-0.556,0
-1.202,-0.385,-0.168,0
-1.251,-0.351,-0.101,0
-1.206,-0.258,-0.22,0
-1.126,-0.172,-0.284,0
-0.937,0.052,-0.326,0
-0.724,0.182,-0.39,0
-0.324,0.337,-0.573,0
-0.246,0.366,-0.563,0
-0.361,0.251,-0.249,0
-0.399,0.133,0.036,0
-0.399,0.133,0.036,0
-0.531,-0.114,0.686,0
-0.653,-0.378,0.914,0
-0.769,-0.442,1.01,0
-0.833,-0.509,0.828,0
-0.84,-0.462,0.722,0
-0.79,-0.243,0.505,0
-0.608,-0.137,0.33,0
-0.431,-0.012,0.222,0
-0.364,0.029,0.217,0
-0.362,0.006,0.225,0
-0.278,0.103,0.373,0
-0.52,0.261,0.472,0
-0.494,0.248,0.373,0
-0.205,0.095,0.263,0
-0.197,0.026,0.505,1
-0.385,-0.01,1.422,0
-0.489,-0.072,2.058,0
-0.842,-0.095,2.608,0
-0.981,0.05,2.539,0
-0.427,0.319,1.936,0
0.256,0.38,1.467,0
1.313,0.586,1.318,0
1.539,0.678,1.573,0
1.069,0.488,2.523,0
0.284,-0.003,2.911,0
-0.956,-0.79,2.696,0
-1.499,-1.032,2.243,0
-1.917,-1.293,1.561,0
-1.856,-1.391,1.026,0
-1.837,-1.321,0.249,0
-1.499,-1.093,-0.421,0
-0.924,-0.832,-1.258,0
-0.598,-0.766,-1.618,0
-0.3,-0.706,-1.788,0
-0.204,-0.703,-1.539,0
-0.284,-0.81,-0.693,0
-0.376,-0.862,-0.136,0
-0.496,-0.802,0.007,0
-0.601,-0.774,-0.058,0
-0.696,-0.713,-0.387,0
-0.619,-0.661,-0.832,0
-0.618,-0.673,-0.828,0
-0.349,-0.214,-2.453,0
-0.303,-0.049,-2.696,0
-0.388,-0.013,-2.446,0
-0.575,-0.068,-1.701,0
-0.648,-0.025,-1.186,0
-0.738,-0.086,-0.648,0
-0.867,-0.116,-0.513,0
-0.858,-0.101,-0.518,0
-1.087,-0.266,-0.692,0
-0.867,-0.371,-0.992,0
-0.738,-0.285,-1.199,0
-0.736,-0.294,-1.197,0
-0.3,-0.176,-1.047,0
-0.274,-0.105,-0.382,0
-0.336,-0.11,0.042,0
-0.403,-0.026,0.566,0
-0.419,0.071,0.722,0
-0.426,0.123,0.617,0
-0.414,0.163,0.45,0
-0.274,0.236,0.133,0
-0.075,0.249,0.001,0
0.004,0.318,0.253,0
0.059,0.28,0.504,0
0.427,0.339,1.035,0
0.715,0.382,1.37,0
0.731,0.28,2.151,0
0.546,0.351,2.525,0
0.299,0.567,2.598,0
0.317,0.526,2.303,1
0.183,0.406,1.337,0
-0.125,0.468,0.795,0
-0.509,0.58,0.246,0
-0.539,0.723,-0.223,0
-0.737,0.713,-0.932,0
-0.78,0.524,-1.37,0
-0.71,0.004,-1.299,0
-0.569,-0.618,-0.203,0
-0.353,-1.188,2.172,0
-0.319,-1.412,3.826,0
-0.458,-1.503,5.796,0
-0.423,-1.281,5.792,0
-0.355,-0.925,3.467,0
-0.586,-0.978,1.625,0
-0.637,-0.669,-1.052,0
-0.396,-0.524,-2.275,0
-0.53,-0.678,-3.218,0
-0.85,-0.828,-3.222,0
-0.95,-0.99,-2.342,0
-0.689,-0.893,-1.444,0
-0.151,-0.701,-0.082,0
-0.053,-0.717,0.491,0
0.079,-0.507,0.277,0
0.033,-0.413,-0.173,0
-0.162,-0.476,-1.28,0
-0.224,-0.554,-1.865,0
-0.211,-0.454,-1.914,0
-0.223,-0.543,-1.71,0
-0.241,-0.54,-1.711,0
-0.44,-0.433,-1.176,0
-0.41,-0.24,-0.358,0
-0.287,-0.127,0.063,0
-0.254,0.259,-0.022,0
-0.285,0.41,-0.12,0
-0.199,0.434,-0.561,0
-0.115,0.458,-0.954,0
-0.038,0.508,-1.173,0
-0.084,0.498,-0.9,0
-0.106,0.393,-0.256,0
-0.15,0.289,0.12,0
-0.322,0.218,0.673,0
-0.291,0.166,0.783,0
-0.087,0,0.857,0
-0.064,0.027,0.86,0
0.057,0.089,0.512,0
0.179,0.05,0.259,0
0.2,0.15,0.238,0
0.336,0.093,0.245,0
0.458,0.072,0.577,0
0.361,-0.001,0.932,0
0.295,-0.031,1.321,0
0.246,-0.039,1.476,0
0.076,-0.183,1.199,0
-0.099,-0.132,0.805,0
-0.187,-0.084,0.023,0
0.031,-0.266,-0.252,0
0.242,-0.349,-0.138,0
0.073,-0.253,0.302,1
-0.321,-0.198,1.302,0
-0.439,-0.185,1.604,0
-0.602,0.136,1.599,0
-0.428,0.351,1.157,0
-0.412,0.369,1.15,0
0.685,0.322,0.106,0
1.002,0.086,0.635,0
0.89,-0.212,1.405,0
0.391,-0.754,2.478,0
-0.19,-0.911,2.752,0
-0.929,-1.181,2.942,0
-0.869,-1.316,2.657,0
-0.338,-1.05,1.334,0
-0.03,-0.735,0.313,0
0.248,-0.451,-0.928,0
0.35,-0.366,-1.305,0
0.495,-0.387,-1.644,0
0.49,-0.465,-1.793,0
0.373,-0.673,-1.568,0
0.392,-0.757,-1.198,0
0.39,-0.741,-1.204,0
0.533,-0.765,-0.46,0
0.496,-0.734,-0.64,0
0.395,-0.692,-0.824,0
0.253,-0.632,-1.177,0
0.182,-0.602,-1.417,0
0.183,-0.612,-1.414,0
0.237,-0.275,-1.855,0
0.369,-0.042,-1.915,0
0.292,0.032,-1.705,0
0.065,0.038,-1.382,0
-0.079,0.005,-1.168,0
-0.24,-0.091,-0.807,0
-0.268,-0.084,-0.61,0
-0.27,-0.079,-0.612,0
-0.048,0.061,0.09,0
0.428,0.236,0.417,0
0.597,0.3,0.351,0
0.635,0.306,0.123,0
0.736,0.281,-0.136,0
0.661,0.252,-0.222,0
0.465,0.241,-0.109,0
0.486,0.235,-0.107,0
0.014,0.127,0.061,0
-0.179,0.174,0.175,0
-0.119,0.204,0.174,0
-0.024,0.265,0.28,0
0.012,0.382,0.385,0
0.115,0.377,0.375,0
0.148,0.321,0.583,0
0.238,0.301,1.282,0
0.203,0.351,1.759,0
0.217,0.497,2.156,0
0.307,0.544,1.933,1
0.463,0.2,2.263,0
0.473,0.223,2.076,0
0.47,0.208,2.082,0
-0.243,0.451,1.345,0
-1.144,0.234,-0.26,0
-1.193,0.36,-0.539,0
-0.588,0.432,-0.954,0
-0.021,0.164,-0.714,0
0.736,-0.266,1.016,0
1.05,-0.424,2.334,0
0.905,-0.813,4.416,0
0.173,-1.013,4.902,0
-0.983,-1.233,4,0
-1.185,-1.274,2.679,0
-1.019,-0.891,0.584,0
-0.763,-0.637,-0.619,0
-0.655,-0.43,-2.216,0
-0.742,-0.264,-2.777,0
-0.738,-0.278,-2.772,0
-0.738,-0.334,-2.448,0
-0.536,-0.583,-1.234,0
-0.514,-0.729,-0.434,0
-0.421,-0.978,0.495,0
-0.429,-1.128,0.882,0
-0.261,-1.104,0.761,0
-0.162,-0.991,0.334,0
0.027,-0.859,-0.725,0
0.067,-0.79,-1.381,0
-0.051,-0.675,-2.207,0
-0.165,-0.681,-2.353,0
-0.388,-0.686,-2.115,0
-0.422,-0.648,-1.891,0
-0.452,-0.489,-1.613,0
-0.401,-0.36,-1.543,0
-0.228,-0.164,-1.605,0
-0.147,-0.084,-1.671,0
-0.28,0,-1.641,0
-0.349,-0.025,-1.539,0
-0.45,-0.018,-1.324,0
-0.473,0.092,-1.127,0
-0.424,0.079,-0.83,0
-0.385,0.021,-0.583,0
-0.388,0.03,-0.586,0
-0.364,-0.11,0.155,0
-0.436,-0.127,0.884,0
-0.577,-0.058,1.266,0
-0.659,0.093,1.625,0
-0.478,0.135,1.46,0
-0.181,0.117,0.862,0
-0.052,0.179,0.588,0
0.048,0.28,0.493,0
0.158,0.279,0.706,0
0.273,0.415,1.277,0
0.201,0.566,1.563,0
0.05,0.73,1.509,0
0.128,0.64,1.273,0
0.244,0.332,1.149,0
0.175,0.289,1.409,1
0.179,0.287,1.41,0
-0.372,0.288,2.2,0
-0.677,0.459,2.16,0
-0.722,0.689,1.797,0
-0.705,0.689,1.797,0
0.618,0.785,0.225,0
1.14,0.6,0.595,0
1.21,0.302,1.544,0
0.806,-0.171,2.389,0
0.149,-0.498,2.962,0
-0.531,-1.13,2.951,0
-0.72,-1.226,2.489,0
-0.725,-1.136,1.408,0
-0.537,-1.138,0.66,0
-0.119,-0.872,-1.243,0
-0.076,-0.926,-1.905,0
-0.137,-1.148,-2.385,0
-0.372,-1.334,-1.943,0
-0.562,-1.572,-0.602,0
-0.453,-1.507,0.013,0
-0.553,-1.598,0.977,0
-0.587,-1.631,1.106,0
-0.436,-1.259,0.736,0
-0.058,-0.848,0.138,0
0.449,-0.368,-1.501,0
0.795,-0.147,-2.329,0
0.976,0.164,-3.035,0
0.832,0.291,-3.093,0
0.417,0.275,-2.392,0
0.208,0.18,-1.713,0
-0.099,0.036,-0.722,0
-0.209,0.057,-0.387,0
-0.041,0.091,-0.395,0
-0.15,0.149,-0.435,0
0.172,0.331,-0.535,0
0.446,0.441,-0.663,0
0.522,0.514,-0.728,0
0.439,0.494,-0.579,0
0.455,0.277,-0.134,0
0.424,0.137,0.087,0
0.04,0.132,0.445,0
-0.12,0.075,0.608,0
-0.171,0.078,0.617,0
-0.214,0.102,0.275,0
-0.192,0.079,0.283,0
0.015,0.262,-1.112,0
0.215,0.415,-1.239,0
0.261,0.423,-0.784,0
0.346,0.299,0.466,0
0.341,0.132,1.268,0
0.327,0.099,1.85,0
0.046,0.191,2.242,0
0.099,0.385,2.412,0
0.291,0.28,2.135,0
0.318,0.143,1.155,0
0.111,0.211,0.518,1
-0.178,0.445,-0.009,0
-0.281,0.506,-0.142,0
-0.315,0.451,-0.12,0
-0.348,0.334,0.048,0
-0.204,-0.185,0.827,0
0.078,-0.591,1.798,0
0.344,-1.126,3.614,0
0.181,-1.328,4.572,0
-0.231,-1.238,5.597,0
-0.304,-1.078,5.205,0
-0.498,-1.213,2.513,0
-0.681,-1.12,0.821,0
-0.542,-0.801,-1.446,0
-0.422,-0.88,-2.364,0
-0.948,-0.977,-3.267,0
-1.347,-1.017,-3.196,0
-1.364,-1.027,-3.192,0
-0.893,-1.001,-1.394,0
-0.386,-0.872,-0.094,0
-0.153,-0.799,0.238,0
-0.093,-0.889,0.344,0
-0.172,-0.889,-0.016,0
-0.306,-0.917,-0.805,0
-0.278,-0.967,-1.357,0
-0.208,-0.986,-2.001,0
-0.157,-0.899,-2.181,0
-0.337,-0.893,-1.903,0
-0.556,-0.88,-1.588,0
-0.647,-0.697,-1.114,0
-0.507,-0.508,-0.957,0
-0.241,-0.117,-0.926,0
-0.117,0.013,-0.92,0
-0.11,0.038,-0.928,0
-0.369,0.088,-0.61,0
-0.361,0.11,-0.617,0
-0.487,0.05,-0.02,0
-0.516,0.03,-0.089,0
-0.536,0.042,-0.383,0
-0.545,0.031,-0.379,0
-0.4,-0.035,-1.006,0
-0.374,0.025,-0.724,0
-0.423,0.025,-0.179,0
-0.577,0.013,0.632,0
-0.584,-0.065,1.016,0
-0.673,0.253,1.654,0
-0.547,0.368,1.925,0
-0.365,0.493,1.853,0
-0.413,0.523,1.587,0
-0.436,0.445,0.829,0
-0.538,0.407,0.559,0
-0.68,0.191,0.471,0
-0.801,0.102,0.721,0
-1.293,0.242,1.156,0
-1.395,0.129,1.14,1
-1.101,-0.231,1.04,0
-0.87,-0.216,1.023,0
-0.614,0.199,1.075,0
-0.459,0.49,1.16,0
-0.279,0.748,1.108,0
-0.291,0.928,0.847,0
0.057,0.931,0.038,0
0.535,0.706,-0.516,0
0.639,0.203,-0.566,0
0.125,-0.286,0.276,0
-0.702,-0.893,2.29,0
-1.154,-1.186,3.014,0
-2.531,-1.683,4.065,0
-2.498,-1.691,3.958,0
-1.766,-1.381,2.643,0
-1.313,-1.11,1.5,0
-0.672,-0.548,-0.018,0
-0.429,-0.457,-0.544,0
-0.266,-0.482,-1.321,0
-0.278,-0.54,-1.582,0
-0.449,-0.734,-1.412,0
-0.558,-1.005,-1.058,0
-0.873,-1.333,-0.373,0
-0.913,-1.383,-0.011,0
-0.923,-1.361,-0.018,0
-0.244,-0.786,0.33,0
0.283,-0.205,-0.078,0
0.411,-0.005,-0.707,0
0.251,0.152,-1.892,0
0.11,0.176,-2.416,0
-0.171,0.081,-2.822,0
-0.335,-0.05,-2.842,0
-0.617,-0.221,-2.415,0
-0.654,-0.311,-1.936,0
-0.441,-0.229,-1.251,0
-0.351,-0.179,-0.904,0
-0.227,-0.116,-0.788,0
-0.094,-0.031,-1.045,0
0.04,0.033,-1.53,0
0.011,0.038,-1.779,0
0.012,0.041,-1.822,0
0.062,0.028,-1.618,0
0.043,0.114,-0.973,0
-0.008,0.159,-0.558,0
-0.145,0.115,-0.21,0
-0.328,0.097,0.04,0
-0.575,0.203,0.43,0
-0.65,0.252,0.648,0
-0.687,0.447,1.136,0
-0.668,0.504,1.194,0
-0.591,0.48,1.043,0
-0.472,0.498,0.907,0
-0.182,0.441,0.912,0
-0.004,0.371,1.124,0
0.163,0.481,1.669,0
0.1,0.684,1.989,0
0.016,0.928,2.219,0
-0.108,0.845,2.031,1
-0.103,0.827,2.037,0
-0.861,0.667,1.46,0
-1.425,0.817,1.048,0
-1.656,0.815,0.676,0
-1.816,0.749,0.052,0
-1.589,0.61,-0.26,0
-0.779,0.014,-0.384,0
-0.606,-0.324,0.341,0
-0.444,-0.82,2.585,0
-0.868,-1.223,3.839,0
-1.931,-1.681,4.65,0
-2.441,-1.709,4.07,0
-2.481,-1.522,1.848,0
-2.33,-1.294,0.568,0
-1.966,-0.819,-1.228,0
-1.627,-0.507,-2.135,0
-1.353,-0.256,-2.91,0
-1.239,-0.23,-2.762,0
-0.938,-0.198,-1.263,0
-0.843,-0.414,-0.109,0
-0.941,-0.827,1.172,0
-1.041,-1.027,1.709,0
-1.092,-1.146,1.962,0
-0.978,-1.086,1.507,0
-0.715,-0.899,-0.153,0
-0.549,-0.708,-1.229,0
-0.195,-0.387,-2.434,0
-0.034,-0.073,-2.745,0
-0.151,0.215,-2.555,0
-0.329,0.229,-2.067,0
-0.339,0.232,-2.067,0
-1.056,0.034,-0.723,0
-1.432,-0.102,-0.589,0
-1.547,-0.165,-0.751,0
-1.483,-0.156,-1.261,0
-1.277,-0.011,-1.531,0
-0.731,0.27,-1.526,0
-0.439,0.41,-1.223,0
-0.376,0.459,-0.501,0
-0.504,0.388,-0.071,0
-0.594,0.207,0.562,0
-0.688,0.138,0.899,0
-0.927,-0.037,1.332,0
-1.097,-0.215,1.387,0
-1.365,-0.4,1.213,0
-1.4,-0.365,0.925,0
-1.087,-0.269,0.39,0
-0.887,-0.234,0.319,0
-0.71,-0.093,0.65,0
-0.607,-0.002,1.078,0
-0.493,-0.023,1.651,0
-0.499,0.047,1.97,0
-0.458,0.537,1.934,0
-0.17,0.727,1.601,0
-0.169,0.699,1.611,0
0.494,0.631,0.944,1
0.522,0.845,1.16,0
0.419,0.912,1.47,0
0.219,0.876,1.848,0
-0.028,0.886,1.854,0
-0.38,0.843,1.39,0
-0.345,0.584,0.944,0
-0.314,0.581,0.943,0
-0.362,-0.295,0.984,0
-0.651,-1,2.26,0
-1.063,-1.254,2.862,0
-2.012,-1.668,3.474,0
-2.274,-1.89,3.533,0
-2.169,-2.082,2.952,0
-1.941,-2.036,2.144,0
-1.48,-1.663,0.595,0
-1.1,-1.349,-0.323,0
-0.741,-1.084,-1.182,0
-0.489,-1.069,-1.516,0
-0.346,-1.028,-2.016,0
-0.306,-1.106,-2.17,0
-0.347,-1.202,-2.016,0
-0.367,-1.25,-1.854,0
-0.298,-1.333,-1.7,0
-0.24,-1.238,-1.757,0
-0.046,-0.848,-1.873,0
0.138,-0.564,-2.116,0
0.439,-0.204,-2.302,0
0.589,0.004,-2.485,0
0.545,0.361,-2.628,0
0.292,0.357,-2.481,0
-0.032,0.143,-2.002,0
-0.259,0.019,-1.627,0
-0.474,-0.167,-0.765,0
-0.504,-0.256,-0.271,0
-0.512,-0.17,-0.078,0
-0.292,-0.129,-0.238,0
-0.294,-0.127,-0.239,0
0.216,0.11,-1.182,0
0.269,0.134,-1.332,0
0.204,0.073,-1.08,0
-0.188,-0.057,-0.141,0
-0.445,-0.138,0.266,0
-0.858,-0.204,0.648,0
-0.82,-0.137,0.454,0
-0.576,0.088,-0.21,0
-0.395,0.295,-0.599,0
-0.213,0.461,-0.852,0
-0.187,0.527,-0.735,0
-0.184,0.554,0.107,0
-0.196,0.518,0.65,0
-0.202,0.517,0.651,0
-0.18,0.104,2.363,0
-0.271,0.166,2.694,0
-0.464,0.25,2.695,1
-0.466,0.273,2.123,0
-0.39,0.284,1.544,0
-0.377,0.462,0.857,0
-0.424,0.653,0.809,0
-0.485,1,0.848,0
-0.462,1.045,0.861,0
-0.497,0.827,0.696,0
-0.488,0.51,0.663,0
-0.391,-0.291,1.669,0
-0.24,-0.75,2.838,0
-0.354,-1.267,4.624,0
-0.588,-1.438,5.336,0
-0.919,-1.405,4.854,0
-1.068,-1.342,3.375,0
-1.163,-1.088,0.462,0
-0.947,-0.858,-1.19,0
-0.9,-0.821,-2.732,0
-1.035,-0.81,-3.201,0
-1.193,-0.731,-2.993,0
-1.109,-0.661,-2.219,0
-0.701,-0.658,-0.521,0
-0.586,-0.744,0.208,0
-0.553,-0.97,0.673,0
-0.619,-1.055,0.487,0
-0.62,-1.166,-0.169,0
-0.509,-1.085,-0.668,0
-0.343,-0.877,-1.327,0
-0.316,-0.755,-1.571,0
-0.521,-0.779,-1.752,0
-0.674,-0.718,-1.843,0
-0.684,-0.567,-1.98,0
-0.657,-0.476,-2.128,0
-0.648,-0.268,-2.158,0
-0.688,-0.104,-2.07,0
-0.697,-0.092,-2.073,0
-0.822,0.088,-1.782,0
-0.795,0.236,-1.709,0
-0.734,0.239,-1.672,0
-0.596,0.401,-1.194,0
-0.584,0.417,-0.729,0
-0.607,0.437,-0.734,0
-0.676,0.311,0.499,0
-0.737,0.182,1.026,0
-0.802,0.085,1.264,0
-0.918,-0.102,1.66,0
-0.935,-0.185,1.801,0
-0.853,-0.15,1.824,0
-0.893,-0.014,1.84,0
-0.775,0.129,1.522,0
-0.513,0.175,1.117,0
-0.34,0.32,0.817,0
-0.289,0.323,0.853,0
-0.241,0.301,1.065,0
-0.3,0.35,1.212,0
-0.566,0.57,1.279,0
-0.684,0.688,1.003,1
-0.68,0.664,1.01,0
-0.478,0.468,0.474,0
-0.788,0.425,0.41,0
-1.101,0.373,0.672,0
-1.376,0.099,1.182,0
-1.516,0.076,1.412,0
-1.45,0.229,1.519,0
-0.895,0.243,1.341,0
0.164,0.209,1.383,0
0.4,0.047,1.744,0
0.346,-0.392,2.867,0
0.164,-0.411,3.174,0
-0.802,-0.992,3.771,0
-1.351,-1.248,3.369,0
-1.641,-1.368,2.01,0
-1.415,-1.203,1.043,0
-0.915,-0.938,-0.327,0
-0.548,-0.657,-1.174,0
-0.167,-0.335,-2.064,0
-0.039,-0.248,-2.426,0
0.056,-0.326,-2.547,0
-0.052,-0.534,-2.226,0
-0.262,-0.965,-1.122,0
-0.406,-1.119,-0.349,0
-0.421,-1.135,0.539,0
-0.321,-1.037,0.778,0
-0.086,-0.834,0.566,0
0.043,-0.649,0.052,0
0.158,-0.36,-1.353,0
0.129,-0.277,-1.847,0
0.027,-0.256,-2.366,0
0.007,-0.188,-2.428,0
-0.023,-0.031,-2.316,0
-0.126,0.046,-2,0
-0.321,-0.014,-1.469,0
-0.368,-0.04,-1.273,0
-0.426,-0.025,-1.089,0
-0.459,-0.023,-1.056,0
-0.365,-0.054,-0.953,0
-0.308,-0.042,-0.799,0
-0.181,-0.038,-0.486,0
-0.136,-0.017,-0.321,0
-0.169,-0.063,-0.161,0
-0.207,-0.118,-0.191,0
-0.287,-0.115,-0.282,0
-0.277,-0.12,-0.28,0
-0.525,-0.065,-0.167,0
-0.508,-0.067,-0.167,0
-0.499,0.128,0.04,0
-0.509,0.221,0.208,0
-0.43,0.216,0.462,0
-0.383,0.197,0.541,0
-0.411,0.143,0.771,0
-0.445,0.138,1.104,0
-0.165,0.251,1.671,0
-0.036,0.382,1.745,0
-0.173,0.374,1.945,0
-0.198,0.484,1.644,1
-0.196,0.46,1.652,0
-0.417,0.535,0.748,0
-0.42,0.502,0.759,0
-0.632,0.913,0.116,0
-0.742,1.068,-0.261,0
-0.612,1.064,-0.526,0
-0.032,0.876,-0.668,0
0.115,0.687,-0.044,0
0.117,-0.152,2.368,0
-0.045,-0.61,3.86,0
-0.77,-1.262,5.94,0
-1.291,-1.638,6.398,0
-2.08,-1.929,4.906,0
-2.218,-1.719,3.115,0
-1.973,-1.376,0.059,0
-1.846,-1.302,-1.524,0
-1.837,-1.034,-3.55,0
-1.804,-0.693,-3.861,0
-1.469,-0.249,-2.814,0
-1.096,-0.122,-1.602,0
-0.569,-0.095,0.17,0
-0.551,-0.308,0.85,0
-0.677,-0.655,1.338,0
-0.805,-0.752,1.221,0
-0.945,-0.86,0.394,0
-1.003,-0.932,-0.147,0
-1,-0.857,-1.165,0
-0.937,-0.717,-1.618,0
-0.962,-0.545,-1.737,0
-1.05,-0.449,-1.641,0
-1.201,-0.29,-1.514,0
-1.341,-0.269,-1.526,0
-1.512,-0.154,-1.58,0
-1.457,-0.067,-1.681,0
-1.234,0.144,-1.835,0
-1.14,0.278,-1.902,0
-0.971,0.407,-1.732,0
-0.851,0.461,-1.548,0
-0.668,0.536,-1.277,0
-0.735,0.466,-0.997,0
-0.852,0.325,-0.589,0
-0.888,0.184,-0.473,0
-1.072,0.036,-0.284,0
-1.157,0.006,-0.036,0
-1.187,-0.008,0.444,0
-1.274,-0.014,0.842,0
-1.463,-0.063,1.346,0
-1.416,0.04,1.471,0
-1.25,0.275,1.362,0
-1.042,0.388,1.027,0
-0.659,0.574,0.202,0
-0.599,0.66,-0.016,0
-0.545,0.759,0.356,0
-0.489,0.765,0.919,0
-0.371,0.674,1.823,0
-0.469,0.676,2.162,0
-0.681,0.883,1.852,0
-0.56,0.75,1.28,0
-0.366,0.495,0.542,1
-0.297,0.445,0.312,0
-0.452,0.428,0.632,0
-0.571,0.416,0.864,0
-0.989,0.393,1.136,0
-1.031,0.48,1.149,0
-0.314,0.683,0.854,0
0.088,0.731,0.886,0
0.28,0.631,1.627,0
0.251,0.4,2.499,0
-0.237,-0.145,3.578,0
-0.795,-0.465,3.849,0
-1.715,-1.042,3.395,0
-1.755,-1.16,2.569,0
-1.392,-0.937,0.861,0
-1.136,-0.822,-0.208,0
-0.689,-0.652,-1.577,0
-0.423,-0.516,-2.214,0
-0.14,-0.217,-2.458,0
-0.016,-0.187,-2.173,0
0.072,-0.356,-1.41,0
-0.031,-0.517,-1.061,0
-0.161,-0.692,-0.459,0
-0.194,-0.768,-0.384,0
-0.173,-0.764,-0.877,0
-0.156,-0.686,-1.326,0
-0.035,-0.477,-2.028,0
0.076,-0.37,-2.491,0
0.026,-0.331,-2.413,0
0.024,-0.191,-2.02,0
0.097,0.101,-1.316,0
-0.036,0.107,-1.102,0
-0.435,-0.055,-0.996,0
-0.665,-0.17,-1.016,0
-0.994,-0.445,-1.035,0
-1.11,-0.486,-1.043,0
-0.896,-0.375,-0.998,0
-0.568,-0.221,-0.884,0
0.09,0.177,-0.693,0
0.358,0.374,-0.703,0
0.7,0.548,-0.808,0
0.684,0.56,-0.706,0
0.452,0.397,-0.471,0
0.095,0.266,-0.321,0
-0.296,0.105,-0.114,0
-0.521,-0.053,0.075,0
-0.759,-0.051,0.183,0
-0.739,0.022,0.095,0
-0.47,0.213,-0.137,0
-0.262,0.424,-0.183,0
-0.26,0.403,-0.177,0
0.096,0.729,0.055,0
0.09,0.708,0.061,0
0.044,0.471,1.427,0
-0.126,0.2,2.083,0
-0.131,0.182,2.089,0
-0.436,0.387,2.058,0
-0.285,0.414,1.443,0
-0.251,0.643,0.445,1
-0.356,0.77,-0.038,0
-0.293,0.87,-0.221,0
-0.2,0.899,-0.183,0
0.035,1.033,-0.094,0
0.307,1.053,0.317,0
0.615,0.615,1.674,0
0.684,0.198,2.626,0
0.252,-0.445,4.461,0
-0.08,-0.817,5.247,0
-0.744,-1.153,5.367,0
-1.056,-1.14,4.437,0
-1.001,-0.91,1.729,0
-0.905,-0.756,0.423,0
-0.679,-0.547,-1.396,0
-0.75,-0.615,-2.101,0
-1.057,-0.696,-2.393,0
-1.052,-0.711,-1.867,0
-0.785,-0.697,-0.446,0
-0.588,-0.774,0.51,0
-0.564,-0.88,1.067,0
-0.581,-0.866,1.063,0
-0.59,-0.938,-0.154,0
-0.439,-0.873,-0.832,0
-0.181,-0.652,-1.785,0
-0.051,-0.528,-2.001,0
0.034,-0.428,-1.845,0
-0.099,-0.457,-1.517,0
-0.114,-0.461,-1.516,0
-0.455,-0.461,-0.613,0
-0.616,-0.509,-0.358,0
-0.607,-0.425,-0.586,0
-0.654,-0.317,-0.926,0
-0.559,-0.263,-1.053,0
-0.013,0.03,-1.118,0
0.233,0.187,-1.05,0
0.468,0.226,-0.743,0
0.398,0.227,-0.452,0
0.384,0.213,-0.447,0
-0.077,-0.024,0.431,0
-0.315,-0.101,0.425,0
-0.533,-0.214,0.373,0
-0.56,-0.371,0.241,0
-0.437,-0.288,0.186,0
-0.316,-0.016,0.201,0
-0.261,0.055,0.183,0
-0.263,0.022,0.195,0
0.305,0.466,0.204,0
0.614,0.577,0.098,0
0.622,0.636,0.228,0
0.699,0.585,0.565,0
0.581,0.454,0.776,0
-0.071,0.41,1.028,0
-0.257,0.405,0.97,0
-0.109,0.272,0.725,0
0.049,0.179,0.631,0
-0.074,0.302,0.929,0
-0.11,0.429,1.286,0
-0.077,0.648,1.663,1
-0.121,0.804,1.768,0
-0.068,0.918,1.471,0
0.247,0.77,1.119,0
0.662,0.298,1.155,0
0.596,0.018,1.665,0
-0.046,-0.855,2.915,0
-0.555,-1.067,3.073,0
-1.27,-1.293,3.228,0
-1.217,-1.526,2.811,0
-0.699,-1.285,1.081,0
-0.443,-1.009,-0.063,0
-0.249,-0.783,-1.328,0
-0.219,-0.699,-1.514,0
-0.091,-0.656,-1.629,0
-0.051,-0.663,-1.594,0
-0.206,-0.783,-1.32,0
-0.171,-0.87,-1.108,0
-0.165,-0.859,-1.112,0
0.167,-0.965,-0.403,0
0.265,-0.833,-0.437,0
0.223,-0.777,-0.543,0
0.194,-0.621,-1.119,0
0.167,-0.551,-1.536,0
0.016,-0.37,-2.095,0
0.006,-0.253,-2.306,0
0.025,-0.07,-2.583,0
-0.04,0.004,-2.538,0
0.011,0.084,-2.374,0
0.036,0.156,-2.199,0
-0.072,0.185,-1.828,0
-0.148,0.124,-1.526,0
-0.294,-0.032,-0.877,0
-0.377,-0.107,-0.585,0
-0.499,-0.105,-0.426,0
-0.453,-0.085,-0.421,0
-0.266,-0.096,-0.518,0
-0.148,-0.035,-0.696,0
0.045,0.147,-0.802,0
0.127,0.212,-0.77,0
-0.123,0.168,-0.651,0
-0.428,0.075,-0.379,0
-0.829,-0.108,-0.046,0
-1.04,-0.114,0.172,0
-1.211,-0.149,0.529,0
-1.079,-0.16,0.676,0
-0.618,0.01,0.477,0
-0.396,0.084,0.487,0
-0.093,-0.051,0.722,0
0.121,0.042,0.871,0
0.289,0.399,1.129,0
0.319,0.616,1.193,0
0.62,0.911,0.944,0
0.643,1,0.799,0
0.635,0.981,0.807,1
-0.443,1.161,0.5,0
-1.153,1.128,0.13,0
-1.381,1.13,-0.051,0
-0.762,0.962,-0.426,0
-0.057,0.737,-0.11,0
0.661,0.115,1.972,0
0.976,-0.322,3.285,0
0.433,-0.737,4.839,0
-0.101,-1.108,5.387,0
-0.93,-1.561,4.767,0
-1.31,-1.574,3.02,0
-1.305,-1.304,0.413,0
-1.245,-1.093,-0.971,0
-1.159,-0.912,-2.559,0
-1.052,-0.727,-3.115,0
-0.885,-0.253,-3.185,0
-0.727,0.089,-2.518,0
-0.301,0.156,-0.824,0
-0.223,0.047,-0.098,0
-0.296,-0.404,0.713,0
-0.295,-0.535,0.801,0
-0.3,-0.718,0.555,0
-0.3,-0.757,0.218,0
-0.273,-0.646,-0.567,0
-0.247,-0.608,-1.023,0
-0.233,-0.564,-1.64,0
-0.3,-0.521,-1.772,0
-0.376,-0.417,-1.668,0
-0.435,-0.262,-1.323,0
-0.41,-0.017,-0.782,0
-0.382,0.091,-0.532,0
-0.464,0.233,-0.437,0
-0.541,0.288,-0.592,0
-0.533,0.296,-0.594,0
-0.544,0.32,-0.976,0
-0.405,0.38,-1.053,0
-0.292,0.381,-1.019,0
-0.141,0.356,-0.586,0
-0.209,0.314,-0.167,0
-0.218,0.317,-0.167,0
-0.213,0.13,0.754,0
-0.373,0.131,0.876,0
-0.444,0.175,0.899,0
-0.383,0.198,0.906,0
-0.309,0.252,0.929,0
-0.3,0.352,0.98,0
-0.23,0.321,1.08,0
0.043,0.309,1.269,0
0.148,0.338,1.261,0
0.29,0.351,1.133,0
0.299,0.351,1.048,0
0.29,0.314,1.06,0
-0.214,0.639,0.451,0
-0.155,0.538,0.335,0
-0.167,0.536,0.564,0
-0.397,0.576,1.187,1
-0.465,0.523,1.587,0
-0.721,0.6,2.039,0
-0.718,0.712,1.935,0
0.006,0.749,1.291,0
0.361,0.627,1.155,0
0.669,0.223,1.848,0
0.598,-0.08,2.294,0
-0.526,-0.532,3.343,0
-1.443,-1.008,4.193,0
-2.258,-1.711,4.498,0
-2.296,-1.552,3.894,0
-1.779,-1.177,2.027,0
-1.311,-0.943,0.678,0
-0.493,-0.261,-1.316,0
-0.181,-0.017,-2.02,0
0.128,0.062,-2.656,0
0.134,-0.066,-2.808,0
-0.152,-0.338,-2.562,0
-0.317,-0.654,-2.129,0
-0.612,-1.105,-1.31,0
-0.725,-1.213,-1.036,0
-0.578,-1.083,-0.88,0
-0.317,-0.881,-1.083,0
0.175,-0.504,-1.829,0
0.236,-0.338,-2.25,0
0.115,-0.247,-2.65,0
-0.087,-0.31,-2.606,0
-0.451,-0.434,-2.077,0
-0.548,-0.451,-1.631,0
-0.407,-0.402,-0.918,0
-0.296,-0.308,-0.52,0
-0.207,-0.191,-0.093,0
-0.151,-0.161,-0.002,0
-0.123,-0.177,-0.126,0
-0.129,-0.199,-0.351,0
0.007,-0.165,-0.78,0
0.138,-0.13,-0.983,0
0.348,-0.076,-0.872,0
0.448,-0.056,-0.618,0
0.451,0.064,0.023,0
0.401,0.04,0.358,0
0.169,-0.05,0.59,0
0.065,0.015,0.51,0
0.163,0.144,0.006,0
0.207,0.2,-0.276,0
0.225,0.165,-0.264,0
0.281,0.394,-0.189,0
0.321,0.394,0.098,0
0.39,0.399,0.296,0
0.622,0.353,0.681,0
0.675,0.304,1.027,0
0.659,0.273,1.038,0
0.446,0.278,1.835,1
0.302,0.466,2.034,0
0.419,0.577,1.775,0
0.43,0.557,1.783,0
0.022,0.833,0.588,0
-0.382,0.821,0.019,0
-0.438,0.826,-0.266,0
-0.514,0.805,-0.482,0
-0.338,0.74,-0.548,0
0.146,0.282,-0.093,0
0.289,-0.239,0.887,0
0.425,-0.849,2.886,0
0.277,-0.904,3.601,0
-0.414,-1.265,4.619,0
-0.591,-1.185,4.011,0
-0.508,-0.846,1.043,0
-0.468,-0.53,-0.445,0
-0.168,-0.11,-2.526,0
-0.235,-0.194,-3.5,0
-0.827,-0.33,-4.296,0
-1.199,-0.381,-4.05,0
-1.18,-0.629,-2.431,0
-0.92,-0.656,-1.127,0
-0.396,-0.62,0.655,0
-0.281,-0.633,1.466,0
-0.284,-0.732,2.07,0
-0.239,-0.757,1.76,0
-0.155,-0.797,0.276,0
-0.198,-0.789,-0.619,0
-0.197,-0.749,-1.525,0
-0.223,-0.703,-1.51,0
-0.369,-0.62,-0.678,0
-0.389,-0.482,-0.152,0
-0.41,-0.465,-0.157,0
-0.468,-0.199,0.215,0
-0.526,-0.06,-0.475,0
-0.465,0.08,-1.039,0
-0.452,0.073,-1.037,0
-0.132,0.353,-1.705,0
0.124,0.636,-1.472,0
0.076,0.718,-1.075,0
-0.103,0.549,-0.271,0
-0.214,0.423,0.048,0
-0.213,0.43,0.046,0
-0.451,0.165,0.506,0
-0.411,-0.163,0.668,0
-0.46,-0.304,0.713,0
-0.676,-0.416,0.588,0
-0.739,-0.463,0.627,0
-0.664,-0.393,0.809,0
-0.522,-0.29,0.807,0
-0.164,-0.033,0.686,0
0.096,0.151,0.598,0
0.188,0.278,0.614,0
0.268,0.297,0.674,0
0.359,0.356,0.74,0
0.049,0.42,0.647,0
-0.261,0.39,0.219,0
-0.174,0.314,0.026,0
-0.083,0.284,0.132,0
-0.123,0.337,0.476,0
-0.28,0.339,1.229,1
-0.324,0.342,1.625,0
-0.342,0.549,1.975,0
-0.252,0.683,1.813,0
0.505,0.586,1.006,0
0.843,0.436,0.763,0
0.802,0.002,1.498,0
0.525,-0.391,2.407,0
-0.261,-1.086,3.661,0
-0.913,-1.373,3.982,0
-1.514,-1.75,3.535,0
-1.423,-1.743,2.754,0
-1.128,-1.423,0.955,0
-0.819,-1.25,-0.261,0
-0.322,-0.977,-1.345,0
0.107,-0.549,-2.056,0
0.662,-0.105,-2.706,0
0.763,-0.095,-2.809,0
0.868,-0.19,-2.505,0
0.955,-0.174,-2.099,0
0.628,-0.392,-0.963,0
0.403,-0.582,-0.274,0
0.199,-0.674,0.243,0
0.122,-0.607,0.198,0
0.28,-0.434,-0.315,0
0.449,-0.17,-0.738,0
0.723,0.25,-1.42,0
0.832,0.356,-1.804,0
0.738,0.504,-2.096,0
0.587,0.528,-2.02,0
0.31,0.358,-1.669,0
0.09,0.243,-1.328,0
-0.022,0.169,-0.933,0
0.026,0.096,-0.873,0
0.29,0.014,-0.995,0
0.331,0.057,-0.959,0
0.287,0.171,-0.651,0
0.308,0.177,-0.413,0
0.3,0.138,-0.141,0
0.25,0.173,-0.064,0
0.033,0.118,0.027,0
-0.044,0.033,-0.011,0
-0.188,0.03,-0.124,0
-0.216,0.039,-0.233,0
-0.141,0.072,-0.262,0
-0.062,0.108,-0.143,0
-0.065,0.101,0.484,0
-0.099,-0.039,0.965,0
-0.158,-0.192,1.505,0
-0.012,-0.15,1.763,0
0.4,0.117,1.919,0
0.405,0.006,2.087,0
0.453,0.314,1.649,0
0.566,0.565,1.144,0
0.62,0.645,0.316,0
0.505,0.736,-0.032,1
0.244,0.976,-0.346,0
0.114,1.013,-0.502,0
-0.05,1.058,-0.852,0
0.004,1.031,-1.164,0
0.46,0.618,-1.413,0
0.615,0.282,-0.847,0
0.816,-0.436,1.317,0
0.808,-0.677,2.552,0
0.01,-1.452,4.692,0
-0.499,-1.664,5.291,0
-0.991,-1.625,4.734,0
-0.842,-1.342,2.79,0
-0.659,-0.762,-0.032,0
-0.529,-0.525,-1.388,0
-0.284,-0.268,-3.054,0
-0.414,-0.276,-3.592,0
-0.685,-0.267,-3.213,0
-0.462,-0.181,-2.205,0
0.301,0.005,-0.478,0
0.442,-0.083,0.463,0
0.217,-0.433,1.308,0
0,-0.512,1.461,0
-0.151,-0.642,1.058,0
-0.089,-0.603,0.498,0
0.019,-0.485,-0.649,0
0.045,-0.348,-1.247,0
-0.056,-0.308,-1.67,0
-0.102,-0.313,-1.603,0
-0.196,-0.187,-1.131,0
-0.294,-0.092,-0.659,0
-0.359,0.054,-0.266,0
-0.402,0.065,-0.374,0
-0.48,0.134,-0.958,0
-0.449,0.213,-1.345,0
-0.321,0.323,-1.684,0
-0.17,0.327,-1.625,0
0.096,0.499,-1.342,0
0.069,0.505,-0.944,0
0.055,0.505,-0.944,0
0.049,0.209,0.511,0
-0.039,0.063,1.027,0
-0.144,-0.045,1.218,0
-0.288,-0.068,1.32,0
-0.327,-0.031,1.298,0
-0.204,0.02,1.05,0
-0.026,0.07,0.877,0
0.136,0.131,0.618,0
0.189,0.193,0.603,0
0.251,0.303,0.598,0
0.277,0.301,0.655,0
0.387,0.409,0.678,0
0.371,0.469,0.565,0
-0.09,0.478,0.241,0
-0.231,0.345,0.116,0
-0.131,0.021,0.158,0
-0.222,-0.075,0.385,0
-0.565,-0.059,1.341,0
-0.62,-0.045,1.821,0
-0.776,0.234,1.811,1
-0.891,0.522,1.285,0
-0.596,0.721,0.482,0
0.258,0.656,-0.155,0
0.971,0.59,-0.975,0
0.718,0.275,-0.225,0
0.223,-0.795,2.144,0
-0.459,-1.212,3.608,0
-0.452,-1.135,3.585,0
-2.019,-2.095,4.929,0
-1.489,-1.801,3.208,0
-0.98,-1.403,1.626,0
-0.16,-0.85,-0.422,0
0.333,-0.458,-1.415,0
0.769,-0.125,-2.413,0
0.662,-0.244,-2.632,0
0.269,-0.563,-2.127,0
0.1,-0.811,-1.476,0
-0.167,-1.212,-0.274,0
-0.254,-1.335,0.256,0
-0.115,-1.243,0.414,0
0.128,-1.027,0.02,0
0.773,-0.41,-1.224,0
0.98,-0.16,-1.998,0
1.286,0.125,-2.846,0
1.366,0.273,-3.264,0
0.947,0.344,-3.251,0
0.536,0.227,-2.779,0
0.081,-0.137,-1.681,0
-0.09,-0.204,-1.065,0
-0.134,-0.136,-0.375,0
-0.02,-0.081,-0.219,0
0.369,0.053,-0.16,0
0.662,0.253,-0.223,0
0.985,0.407,-0.259,0
0.948,0.405,-0.276,0
0.803,0.298,-0.184,0
0.741,0.2,-0.071,0
0.503,0.054,0.212,0
0.384,-0.026,0.309,0
0.236,-0.014,0.448,0
0.177,0.063,0.437,0
0.102,0.171,0.205,0
0.094,0.214,-0.076,0
0.076,0.275,-0.208,0
0.099,0.271,-0.024,0
0.181,0.109,0.643,0
0.283,0.025,1.095,0
0.531,0.147,1.736,0
0.678,0.311,2.093,0
0.901,0.812,2.331,0
