accelX,accelY,accelZ,label
-2.076,-0.56,1.887,1
-1.803,-0.217,0.461,0
-1.456,-0.034,-0.466,0
-1.05,0.03,-1.003,0
-0.797,-0.185,-0.633,0
-0.697,-0.684,0.869,0
-0.565,-1.043,2.012,0
-0.389,-1.876,4.095,0
-0.464,-2.271,5.204,0
-0.577,-2.523,6.301,0
-0.773,-2.37,6.157,0
-0.853,-2.075,4.223,0
-0.738,-1.819,2.004,0
-0.873,-1.443,-1.134,0
-0.876,-1.342,-2.337,0
-0.966,-1.33,-3.43,0
-1.265,-1.312,-3.534,0
-1.696,-1.436,-2.57,0
-1.619,-1.598,-1.601,0
-1.036,-1.648,0.179,0
-0.642,-1.638,1.33,0
-0.373,-1.744,2.162,0
-0.32,-1.768,2.076,0
-0.54,-1.875,1.294,0
-0.656,-1.945,0.46,0
-0.693,-1.91,-0.61,0
-0.642,-1.802,-1.196,0
-0.541,-1.615,-1.824,0
-0.445,-1.476,-2.106,0
-0.474,-1.385,-2.083,0
-0.512,-1.32,-1.691,0
-0.402,-1.116,-1.095,0
-0.372,-1.007,-0.959,0
-0.569,-1.007,-1.006,0
-0.711,-1.054,-1.099,0
-0.884,-1.023,-1.315,0
-1.007,-1.025,-1.337,0
-1.007,-1.04,-1.33,0
-1.214,-1.236,-1.391,0
-1.316,-1.2,-0.946,0
-1.183,-1.18,-0.457,0
-0.867,-1.046,0.259,0
-0.844,-0.957,0.841,0
-0.905,-0.992,1.577,0
-0.945,-1.049,1.951,0
-0.867,-0.946,2.324,0
-0.916,-0.814,2.329,0
-0.868,-0.775,1.916,0
-0.826,-0.775,1.561,0
-0.86,-0.874,1.692,0
-0.877,-1.046,2.182,0
-0.973,-1.267,2.948,0
-1.023,-1.232,3.143,0
-1.353,-0.8,2.896,0
-1.382,-0.738,2.056,0
-0.861,-1.034,0.726,0
-0.508,-1.066,0.453,1
-0.286,-0.959,0.611,0
-0.166,-1.107,1.281,0
-0.494,-1.317,2.636,0
-0.644,-1.419,2.96,0
-0.548,-1.723,2.788,0
-0.405,-1.781,2.587,0
-0.355,-1.781,2.22,0
-0.497,-1.745,1.965,0
-0.709,-1.609,1.487,0
-0.771,-1.554,1.091,0
-0.778,-1.556,0.453,0
-0.739,-1.538,0.095,0
-0.526,-1.525,-0.293,0
-0.297,-1.584,-0.267,0
-0.1,-1.801,0.202,0
-0.024,-1.887,0.458,0
0.015,-2.171,0.856,0
0.045,-2.263,1.159,0
0.02,-2.225,1.154,0
0.052,-2.126,0.663,0
0.147,-1.954,-0.563,0
0.2,-1.726,-1.193,0
0.337,-1.466,-2.025,0
0.271,-1.401,-2.319,0
0.096,-1.162,-2.366,0
-0.022,-1.048,-2.291,0
-0.322,-1,-2.153,0
-0.601,-1.014,-1.898,0
-0.659,-0.894,-1.535,0
-0.526,-0.737,-1.209,0
-0.473,-0.534,-0.728,0
-0.401,-0.504,-0.609,0
-0.556,-0.519,-0.724,0
-0.67,-0.593,-0.833,0
-0.717,-0.643,-0.804,0
-0.661,-0.64,-0.559,0
-0.457,-0.612,0.165,0
-0.345,-0.652,0.768,0
-0.265,-0.659,1.389,0
-0.234,-0.64,1.99,0
-0.176,-0.648,2.895,0
-0.144,-0.655,2.962,0
-0.449,-0.691,2.169,0
-0.719,-0.828,1.344,0
-1.141,-0.972,0.985,0
-1.167,-0.969,1.153,0
-1.049,-0.885,1.654,0
-0.972,-0.891,2.157,0
-1.002,-0.867,2.754,0
-1.005,-0.902,2.772,1
-1.26,0.27,2.356,0
-0.995,0.478,1.301,0
-0.354,0.533,-0.26,0
-0.034,0.549,-1.098,0
0.159,0.497,-1.63,0
0.176,0.085,-1.123,0
0.322,-1.14,1.049,0
0.131,-1.728,2.628,0
-0.667,-2.593,5.474,0
-1.224,-2.973,6.954,0
-1.754,-2.9,7.48,0
-1.767,-2.454,5.908,0
-1.384,-2.041,2.34,0
-0.973,-1.647,0.148,0
-0.833,-0.984,-2.4,0
-0.832,-0.894,-3.208,0
-0.912,-0.901,-3.601,0
-0.934,-0.931,-3.329,0
-0.727,-1.193,-2.041,0
-0.5,-1.375,-0.989,0
-0.331,-1.606,0.326,0
-0.273,-1.768,1.162,0
-0.321,-1.885,1.57,0
-0.368,-1.854,1.159,0
-0.377,-1.827,-0.162,0
-0.367,-1.734,-0.921,0
-0.331,-1.607,-1.796,0
-0.317,-1.496,-2.166,0
-0.293,-1.384,-2.309,0
-0.307,-1.239,-2.048,0
-0.287,-1.073,-2.02,0
-0.388,-0.97,-2.004,0
-0.649,-0.948,-1.485,0
-0.817,-1.006,-1.361,0
-1.067,-1.082,-1.264,0
-1.198,-1.067,-1.005,0
-1.129,-1.038,-0.43,0
-0.87,-0.88,0.13,0
-0.744,-0.69,0.734,0
-0.817,-0.73,0.917,0
-1.068,-0.867,0.996,0
-1.271,-1,0.989,0
-1.338,-1.066,0.985,0
-1.194,-1.096,1.303,0
-1.06,-0.986,2.038,0
-0.966,-0.944,2.393,0
-0.867,-0.932,2.63,0
-0.691,-0.933,2.507,0
-0.502,-0.81,2.565,0
-0.235,-0.721,2.801,0
0.176,-0.745,2.893,0
0.129,-0.72,2.719,0
0.136,-0.763,2.74,0
-0.696,-0.01,1.494,1
-0.301,-0.034,0.31,0
0.004,-0.065,-0.343,0
0.291,-0.097,-0.533,0
0.309,-0.392,-0.01,0
-0.14,-0.974,1.55,0
-0.502,-1.416,2.945,0
-0.567,-1.868,4.312,0
-0.624,-2.007,4.84,0
-0.799,-2.16,5.163,0
-0.895,-2.097,5.004,0
-0.776,-1.834,3.875,0
-0.645,-1.7,2.689,0
-0.514,-1.566,1.166,0
-0.359,-1.354,0.066,0
-0.086,-1.154,-1.061,0
0.089,-1.17,-1.216,0
0.343,-1.477,-0.674,0
0.486,-1.622,-0.153,0
0.532,-1.742,0.43,0
0.357,-1.958,0.564,0
0.163,-2.196,0.42,0
0.043,-2.163,-0.052,0
0.034,-1.99,-0.815,0
0.051,-1.847,-1.474,0
0.234,-1.645,-2.231,0
0.359,-1.435,-2.47,0
0.376,-1.159,-2.59,0
0.239,-1.089,-2.518,0
-0.089,-1.062,-2.292,0
-0.403,-1.095,-1.983,0
-0.598,-1.07,-1.591,0
-0.631,-1.088,-1.531,0
-0.821,-1.052,-1.418,0
-0.923,-1.015,-1.374,0
-1.094,-1.001,-1.542,0
-1.056,-0.986,-1.649,0
-0.745,-0.83,-1.876,0
-0.403,-0.683,-1.676,0
-0.138,-0.572,-0.883,0
-0.13,-0.662,-0.017,0
-0.175,-0.872,1.289,0
-0.186,-0.954,2.308,0
-0.32,-1.035,3.013,0
-0.539,-0.962,3.052,0
-0.972,-1.004,2.821,0
-1.029,-1.075,2.493,0
-1.089,-1.014,1.963,0
-1.007,-0.87,1.755,0
-0.748,-0.839,1.728,0
-0.644,-0.795,2.083,0
-0.805,-0.893,2.696,0
-1.036,-0.737,2.915,0
-1.666,-0.04,2.627,0
-1.719,0.056,1.817,1
-1.429,-0.254,0.373,0
-1.025,-0.334,-0.988,0
-0.245,-0.232,-2.154,0
0.232,-0.188,-1.835,0
0.502,-0.388,0.116,0
0.413,-0.85,1.807,0
-0.054,-1.636,4.099,0
-0.589,-1.789,4.868,0
-0.612,-1.718,4.83,0
-1.626,-1.904,3.439,0
-1.409,-1.668,1.108,0
-1.183,-1.299,-0.291,0
-0.957,-0.97,-1.616,0
-0.865,-0.883,-2.04,0
-0.739,-0.938,-1.719,0
-0.616,-1.153,-1.029,0
-0.281,-1.587,0.462,0
-0.18,-1.795,1.324,0
-0.053,-2.081,2.751,0
-0.023,-2.126,3.186,0
-0.14,-2.123,2.422,0
-0.282,-2.082,1.207,0
-0.152,-1.907,-0.223,0
-0.076,-1.708,-1.366,0
-0.111,-1.571,-2.828,0
-0.063,-1.483,-3.433,0
-0.194,-1.358,-3.698,0
-0.29,-1.296,-3.552,0
-0.369,-1.115,-2.644,0
-0.365,-0.977,-1.811,0
-0.523,-0.876,-1.255,0
-0.604,-0.845,-1.045,0
-0.647,-0.75,-0.479,0
-0.681,-0.717,-0.442,0
-0.699,-0.68,-0.846,0
-0.605,-0.673,-1.043,0
-0.446,-0.611,-0.728,0
-0.373,-0.529,-0.074,0
-0.291,-0.601,0.877,0
-0.437,-0.836,1.634,0
-0.785,-0.996,2.657,0
-0.929,-1.057,3.239,0
-1.041,-1.199,3.712,0
-1.049,-1.218,3.679,0
-0.823,-1.118,2.815,0
-0.653,-1.048,2.261,0
-0.284,-0.953,1.424,0
-0.21,-0.93,1.325,0
-0.345,-0.789,1.501,0
-0.571,-0.507,1.732,0
-0.915,-0.107,1.422,0
-0.756,-0.079,0.876,1
-0.267,-0.237,0.204,0
-0.14,-0.294,-0.018,0
0.069,-0.499,0.219,0
0.005,-0.855,1.211,0
-0.134,-1.206,2.814,0
-0.14,-1.34,3.385,0
-0.027,-1.668,3.728,0
-0.297,-1.945,3.968,0
-0.916,-2.094,4.107,0
-1.13,-2.076,3.898,0
-1.151,-1.923,2.904,0
-1.06,-1.764,2.037,0
-0.733,-1.472,0.419,0
-0.586,-1.323,-0.612,0
-0.38,-1.299,-1.686,0
-0.147,-1.274,-1.797,0
0.471,-1.198,-1.38,0
0.662,-1.202,-0.894,0
0.764,-1.355,-0.104,0
0.681,-1.505,0.234,0
0.47,-1.676,0.661,0
0.322,-1.772,0.773,0
0.206,-1.806,0.612,0
0.169,-1.74,0.135,0
0.286,-1.665,-1.079,0
0.352,-1.588,-1.769,0
0.329,-1.496,-2.28,0
0.147,-1.512,-2.25,0
-0.07,-1.542,-2.011,0
-0.211,-1.513,-1.78,0
-0.451,-1.444,-1.295,0
-0.477,-1.354,-1.017,0
-0.472,-1.204,-1.123,0
-0.417,-1.07,-1.394,0
-0.26,-0.936,-1.713,0
-0.176,-0.808,-1.617,0
-0.162,-0.814,-1.614,0
-0.111,-0.648,-0.897,0
-0.096,-0.616,-0.266,0
0.007,-0.61,0.182,0
0.057,-0.71,0.843,0
0.181,-0.771,1.38,0
0.306,-0.777,2.011,0
0.208,-0.794,2.487,0
-0.261,-0.819,3.063,0
-0.477,-0.86,3.067,0
-0.644,-0.819,2.731,0
-0.597,-0.692,2.467,0
-0.319,-0.516,2.159,0
-0.177,-0.494,2.164,0
0.053,-0.502,2.069,0
0.059,-0.501,2.054,0
0.046,-0.554,2.081,0
-0.778,-0.097,1.384,1
-0.776,-0.146,1.408,0
-0.688,0.201,-0.473,0
0.035,0.35,-1.39,0
0.757,0.273,-1.225,0
1.32,-0.089,0.11,0
1.421,-0.471,1.61,0
1.279,-1.178,3.601,0
0.969,-1.785,4.744,0
-0.184,-2.382,5.787,0
-0.791,-2.529,5.638,0
-0.975,-2.229,3.42,0
-0.845,-1.972,1.651,0
-0.809,-1.443,-1.292,0
-0.729,-1.221,-2.576,0
-0.66,-1.08,-3.358,0
-0.702,-1.023,-3.238,0
-0.48,-1.126,-2.234,0
-0.299,-1.27,-1.457,0
-0.158,-1.48,-0.231,0
-0.174,-1.603,0.4,0
-0.266,-1.888,1.018,0
-0.358,-1.945,0.95,0
-0.477,-1.916,0.265,0
-0.449,-1.798,-0.261,0
-0.291,-1.57,-1.168,0
-0.119,-1.37,-1.706,0
0.153,-1.067,-1.957,0
0.281,-0.992,-1.849,0
0.32,-0.833,-1.35,0
0.262,-0.758,-0.851,0
0.163,-0.781,-0.008,0
0.139,-0.753,0.209,0
0.133,-0.586,0.133,0
0.01,-0.599,0.02,0
-0.232,-0.716,-0.253,0
-0.221,-0.691,-0.374,0
-0.243,-0.62,-0.492,0
-0.363,-0.679,-0.503,0
-0.318,-0.748,-0.263,0
-0.352,-0.754,0.062,0
-0.336,-0.758,0.063,0
-0.165,-0.836,1.148,0
-0.154,-1.014,2.008,0
-0.114,-1.136,2.859,0
-0.087,-1.039,3.256,0
-0.143,-1.037,2.866,0
-0.189,-1.104,1.952,0
-0.134,-1.181,1.347,0
0.005,-1.072,0.801,0
0.096,-1.04,1.076,0
0.201,-1.062,1.73,0
0.052,-0.963,2.023,1
0.059,-0.996,2.04,0
0.033,-0.3,1.546,0
0.246,-0.419,0.56,0
0.24,-0.518,0.08,0
0.242,-0.821,0.248,0
0.297,-1.158,1.113,0
0.284,-1.466,2.532,0
0.177,-1.561,3.22,0
0.175,-1.781,3.542,0
0.184,-1.887,3.562,0
-0.13,-1.875,3.247,0
-0.234,-1.812,2.794,0
-0.185,-1.607,1.692,0
-0.106,-1.49,1.052,0
0.181,-1.285,-0.028,0
0.347,-1.134,-0.62,0
0.512,-1.089,-1.016,0
0.644,-1.124,-1.049,0
0.85,-1.303,-1.13,0
0.956,-1.371,-1.072,0
1.017,-1.547,-0.439,0
0.894,-1.691,-0.104,0
0.617,-1.965,0.328,0
0.353,-2.092,0.501,0
0.16,-2.084,0.503,0
0.174,-1.936,0.227,0
0.313,-1.716,-0.642,0
0.344,-1.533,-1.329,0
0.239,-1.345,-2.152,0
0.145,-1.175,-2.387,0
0.045,-0.925,-2.422,0
-0.044,-0.72,-2.37,0
-0.249,-0.611,-2.056,0
-0.344,-0.563,-1.824,0
-0.281,-0.506,-1.471,0
-0.281,-0.54,-1.315,0
-0.419,-0.647,-1,0
-0.42,-0.755,-0.609,0
-0.446,-0.791,-0.011,0
-0.449,-0.817,0.29,0
-0.446,-0.821,0.292,0
-0.083,-0.658,0.671,0
0.412,-0.543,0.954,0
0.543,-0.531,1.103,0
0.343,-0.551,1.328,0
0.089,-0.595,1.685,0
-0.05,-0.721,1.782,0
-0.005,-0.716,1.57,0
0.031,-0.575,1.623,0
0.064,-0.551,1.869,0
0.09,-0.546,2.328,0
0.185,-0.364,2.782,0
0.353,-0.305,3.214,0
0.155,-0.112,3.416,1
-0.476,0.553,2.202,0
-0.706,0.539,0.876,0
-0.71,0.299,-1.06,0
-0.509,0.25,-1.869,0
-0.419,0.12,-2.608,0
-0.389,-0.278,-2.334,0
-0.026,-1.195,-0.32,0
0.501,-1.521,1.442,0
0.919,-2.053,4.449,0
0.633,-2.322,6.46,0
0.105,-2.128,7.597,0
0.069,-1.938,6.638,0
0.098,-1.772,2.891,0
-0.028,-1.524,0.423,0
0.149,-1.048,-1.781,0
0.372,-0.871,-2.912,0
0.272,-0.692,-3.581,0
0.242,-0.703,-3.383,0
0.675,-0.976,-2.479,0
0.871,-1.111,-1.776,0
0.807,-1.391,-0.64,0
0.719,-1.633,-0.001,0
0.625,-1.982,0.598,0
0.266,-2.134,0.611,0
-0.147,-2.158,0.379,0
-0.379,-2.191,0.141,0
-0.596,-2.236,-0.352,0
-0.61,-2.058,-0.647,0
-0.366,-1.56,-1.151,0
-0.129,-1.278,-1.335,0
0.236,-0.808,-1.444,0
0.253,-0.565,-1.438,0
0.031,-0.496,-1.418,0
-0.148,-0.501,-1.43,0
-0.314,-0.565,-1.294,0
-0.329,-0.616,-1.118,0
-0.301,-0.709,-0.843,0
-0.3,-0.722,-0.431,0
-0.045,-0.668,0.398,0
0.131,-0.571,0.783,0
0.225,-0.503,1.307,0
0.216,-0.467,1.604,0
0.212,-0.459,1.6,0
0.169,-0.631,1.711,0
-0.087,-0.725,2.38,0
-0.155,-0.84,2.656,0
-0.258,-0.967,2.822,0
-0.3,-0.99,2.639,0
-0.097,-0.929,2.019,0
0.059,-0.933,1.716,0
0.361,-0.881,1.317,0
0.466,-0.774,1.331,0
0.492,-0.801,1.343,0
0.163,-0.06,1.206,0
0.297,0.014,0.363,0
0.683,-0.138,-0.239,1
0.848,-0.101,-0.67,0
0.743,-0.134,-0.373,0
0.412,-0.489,0.59,0
0.306,-0.863,1.2,0
0.287,-1.531,1.959,0
0.229,-1.775,2.406,0
0.177,-2.216,3.41,0
0.054,-2.247,4.307,0
-0.118,-2.081,5.291,0
-0.075,-1.92,5.316,0
0.176,-1.671,3.819,0
0.406,-1.473,1.974,0
0.614,-1.259,0.02,0
0.678,-1.126,-0.953,0
0.925,-1.27,-1.605,0
1.036,-1.354,-1.456,0
1.076,-1.306,-0.679,0
1.093,-1.324,-0.164,0
1.081,-1.405,0.294,0
1.049,-1.389,0.254,0
1.029,-1.303,-0.077,0
1.118,-1.207,-0.525,0
0.972,-1.052,-1.089,0
0.843,-1.071,-1.299,0
0.71,-1.055,-1.535,0
0.61,-0.948,-1.682,0
0.332,-0.949,-1.834,0
0.18,-0.962,-1.844,0
-0.032,-0.887,-1.718,0
-0.096,-0.8,-1.455,0
0.117,-0.681,-1.05,0
0.253,-0.583,-0.747,0
0.427,-0.483,-0.465,0
0.454,-0.559,-0.509,0
0.479,-0.669,-0.535,0
0.555,-0.76,-0.441,0
0.55,-0.79,-0.428,0
0.388,-0.977,-0.052,0
0.331,-1.022,0.384,0
0.345,-0.995,0.539,0
0.393,-0.929,0.444,0
0.317,-0.858,0.47,0
0.365,-0.69,0.575,0
0.474,-0.703,0.618,0
0.317,-0.714,1.109,0
0.25,-0.797,1.401,0
0.08,-0.908,2.314,0
0.059,-0.814,3.123,0
0.178,-0.839,3.483,0
0.056,-0.893,3.277,0
0.062,-0.932,3.297,0
-0.663,-0.216,1.248,0
-0.376,-0.007,-0.194,0
-0.031,0.16,-0.883,0
0.423,0.486,-1.515,0
0.652,0.567,-1.345,1
1.119,0.107,-0.107,0
1.249,-0.586,1.454,0
1.277,-1.636,3.999,0
1.079,-2.103,5.284,0
0.292,-2.335,6.663,0
-0.472,-2.585,6.46,0
-0.747,-2.484,3.724,0
-0.513,-2.138,1.669,0
-0.513,-1.599,-1.547,0
-0.493,-1.406,-2.895,0
-0.55,-1.344,-3.426,0
-0.505,-1.185,-3.18,0
-0.03,-1.06,-1.867,0
0.531,-0.976,-0.925,0
1.07,-1.046,0.247,0
1.088,-1.14,0.677,0
0.965,-1.359,0.729,0
0.725,-1.482,0.253,0
0.483,-1.534,-0.919,0
0.513,-1.485,-1.543,0
0.65,-1.262,-2.016,0
0.662,-1.155,-2.043,0
0.565,-1.042,-1.518,0
0.518,-0.964,-0.963,0
0.507,-0.949,-0.97,0
0.132,-0.872,-0.418,0
0.063,-0.797,-0.239,0
0.106,-0.707,-0.486,0
0.088,-0.64,-1.047,0
0.17,-0.634,-1.417,0
0.407,-0.485,-1.366,0
0.471,-0.495,-1.193,0
0.296,-0.649,-0.505,0
0.174,-0.75,0.122,0
0.168,-0.749,0.121,0
-0.032,-0.942,1.029,0
-0.242,-1.129,1.228,0
-0.182,-1.154,1.441,0
0.007,-0.999,1.726,0
0.154,-0.802,1.822,0
0.375,-0.606,1.637,0
0.388,-0.587,1.411,0
0.442,-0.507,1.08,0
0.501,-0.524,1.016,0
0.645,-0.755,0.922,0
0.573,-0.892,1.067,0
0.35,-0.8,1.561,0
0.081,-0.391,1.707,0
0.089,-0.413,1.718,0
0.128,-0.149,0.316,0
0.823,-0.042,-0.272,0
1.152,-0.011,-0.34,1
1.474,-0.302,0.231,0
1.254,-0.539,1.051,0
0.953,-1.256,2.686,0
1.067,-1.806,3.556,0
0.923,-2.33,4.74,0
0.575,-2.45,5.269,0
0.245,-2.319,5.323,0
0.283,-2.057,4.519,0
0.606,-1.66,2.316,0
0.876,-1.402,0.936,0
1.168,-0.981,-0.49,0
1.436,-0.798,-1.221,0
1.813,-0.667,-1.786,0
1.932,-0.618,-1.758,0
2.002,-0.8,-1.262,0
1.907,-0.979,-0.883,0
1.543,-1.388,-0.35,0
1.368,-1.607,-0.236,0
1.139,-1.847,-0.331,0
1.143,-1.807,-0.557,0
1.217,-1.654,-1.132,0
1.188,-1.58,-1.445,0
1.224,-1.393,-1.749,0
1.092,-1.274,-1.796,0
0.86,-1.101,-1.712,0
0.726,-1.026,-1.758,0
0.548,-0.766,-1.793,0
0.588,-0.617,-1.642,0
0.71,-0.446,-1.504,0
0.601,-0.365,-1.359,0
0.461,-0.388,-1.256,0
0.319,-0.481,-1.225,0
0.287,-0.506,-1.144,0
0.503,-0.379,-0.911,0
0.743,-0.279,-0.133,0
0.857,-0.273,0.344,0
0.93,-0.275,1.078,0
0.891,-0.356,1.523,0
0.904,-0.522,2.058,0
0.958,-0.522,2.428,0
0.773,-0.455,2.344,0
0.635,-0.436,1.902,0
0.6,-0.384,1.156,0
0.564,-0.394,0.94,0
0.543,-0.53,1.393,0
0.472,-0.663,2.053,0
0.332,-0.777,3.157,0
0.222,-0.864,3.643,0
0.233,-1.121,3.66,0
0.033,-0.862,2.648,1
-0.331,-0.309,0.83,0
-0.23,-0.158,-0.312,0
0.115,0.161,-1.536,0
0.237,0.353,-1.649,0
0.431,0.504,-0.568,0
0.696,0.288,0.65,0
1.138,-0.356,2.558,0
1.259,-0.981,3.712,0
1.08,-1.763,4.866,0
0.67,-1.823,5.068,0
0.113,-1.809,3.735,0
-0.108,-1.773,2.293,0
-0.062,-1.441,0.131,0
-0.184,-1.254,-0.99,0
-0.366,-1.056,-2.236,0
-0.242,-0.947,-2.63,0
0.398,-0.832,-2.401,0
1.031,-0.747,-1.542,0
1.68,-0.673,-0.239,0
1.676,-0.879,0.571,0
1.31,-1.463,1.169,0
0.997,-1.668,1.121,0
0.618,-1.849,0.475,0
0.293,-2.008,-0.247,0
0.045,-1.995,-1.409,0
0.164,-1.774,-2.124,0
0.35,-1.464,-2.696,0
0.604,-1.233,-2.772,0
0.958,-0.732,-2.732,0
1.159,-0.517,-2.651,0
1.061,-0.411,-2.35,0
0.843,-0.42,-1.985,0
0.538,-0.475,-1.142,0
0.369,-0.59,-0.591,0
0.094,-0.742,-0.147,0
-0.101,-0.867,-0.153,0
-0.188,-0.948,-0.126,0
-0.105,-0.939,-0.075,0
0.16,-0.802,0.137,0
0.27,-0.736,0.369,0
0.276,-0.689,0.708,0
0.217,-0.719,0.825,0
0.174,-0.729,0.886,0
0.061,-0.758,0.955,0
-0.022,-0.684,1.241,0
0.101,-0.634,1.465,0
0.385,-0.759,1.633,0
0.416,-0.79,1.815,0
0.355,-0.917,2.122,0
0.293,-1.031,2.445,0
0.2,-0.912,2.813,0
0.023,-0.451,2.72,0
0.009,-0.483,2.734,0
0.228,0.168,0.462,1
1.183,0.246,-0.486,0
1.642,0.442,-0.597,0
1.777,0.093,0.426,0
1.476,-0.367,1.51,0
0.737,-1.274,3.174,0
0.585,-1.718,3.791,0
0.29,-2.218,4.482,0
0.125,-2.28,4.675,0
0.083,-2.045,4.271,0
0.222,-1.808,3.635,0
0.523,-1.392,1.994,0
0.68,-1.218,1.135,0
0.717,-1.189,0.1,0
0.821,-1.229,-0.39,0
0.963,-1.298,-0.98,0
1.05,-1.526,-1.161,0
1.246,-1.69,-1.153,0
1.278,-1.799,-0.839,0
1.093,-1.917,-0.145,0
1.053,-1.934,0.116,0
0.872,-1.868,0.097,0
0.765,-1.761,-0.2,0
0.716,-1.509,-0.881,0
0.81,-1.229,-1.284,0
0.898,-0.837,-1.841,0
0.881,-0.622,-2.106,0
0.721,-0.507,-2.244,0
0.62,-0.456,-2.225,0
0.391,-0.404,-2.045,0
0.261,-0.407,-1.874,0
0.176,-0.377,-1.693,0
0.317,-0.262,-1.56,0
0.551,-0.101,-1.205,0
0.582,-0.033,-0.967,0
0.611,-0.008,-0.672,0
0.58,-0.124,-0.521,0
0.558,-0.141,-0.516,0
0.44,-0.247,-0.143,0
0.429,-0.252,0.38,0
0.488,-0.295,0.694,0
0.484,-0.301,0.696,0
0.851,-0.122,1.047,0
0.802,-0.011,1.201,0
0.731,-0.119,0.997,0
0.451,-0.23,0.658,0
0.296,-0.303,0.735,0
0.179,-0.434,1.316,0
0.058,-0.465,1.694,0
-0.03,-0.394,2.695,0
0.14,-0.471,3.145,0
0.248,-0.413,3.083,0
-0.166,-0.059,2.439,0
-0.461,0.157,0.809,0
-0.235,0.087,-0.238,1
0.231,0.307,-1.293,0
0.442,0.415,-1.559,0
0.437,0.401,-1.553,0
0.822,0.061,-0.702,0
0.913,-0.928,1.491,0
0.759,-1.371,3.198,0
0.538,-1.997,4.876,0
0.024,-2.243,5.504,0
-0.435,-2.069,4.365,0
-0.508,-1.89,2.699,0
-0.61,-1.618,-0.001,0
-0.562,-1.438,-1.342,0
-0.413,-1.227,-3.268,0
-0.445,-1.096,-4.012,0
-0.471,-0.932,-3.715,0
-0.328,-1.182,-2.59,0
0.048,-1.331,-0.641,0
0.206,-1.421,1.041,0
0.363,-1.686,2.85,0
0.341,-1.777,3.338,0
0.145,-1.803,2.753,0
0.134,-1.694,1.742,0
0.284,-1.454,-0.12,0
0.413,-1.239,-1.22,0
0.77,-0.9,-2.486,0
1.023,-0.724,-2.872,0
0.993,-0.517,-2.466,0
0.822,-0.447,-1.819,0
0.415,-0.474,-0.592,0
0.139,-0.531,-0.062,0
-0.091,-0.555,-0.009,0
-0.192,-0.539,-0.337,0
-0.134,-0.43,-1.212,0
0.026,-0.27,-1.648,0
0.312,-0.041,-2.013,0
0.29,-0.014,-1.787,0
0.289,-0.017,-1.786,0
0.029,-0.255,0.351,0
0.032,-0.187,1.32,0
-0.02,-0.205,1.808,0
-0.033,-0.196,2.364,0
0.01,-0.131,2.54,0
-0.099,-0.086,2.028,0
-0.195,0.026,1.338,0
-0.179,0.123,0.442,0
0.013,0.167,0.01,0
0.266,0.193,-0.058,0
0.533,0.108,0.127,0
1.02,0.122,0.73,0
1.131,0.217,1.213,0
0.77,0.602,2.065,0
0.624,0.742,1.871,0
0.614,0.718,1.881,0
0.642,0.186,0.201,1
0.877,0.027,-0.092,0
1.039,-0.273,0.46,0
1.207,-1.028,2.128,0
0.87,-1.295,3.366,0
0.114,-1.804,5.182,0
-0.223,-2.065,5.976,0
-0.44,-2.216,6.148,0
-0.273,-2.087,5.152,0
0.254,-1.557,2.972,0
0.576,-1.287,1.802,0
0.994,-1.107,-0.051,0
1.185,-1.083,-0.98,0
1.153,-1.051,-1.955,0
1.101,-1.176,-2.146,0
0.985,-1.428,-1.627,0
0.981,-1.515,-0.806,0
1.04,-1.592,0.131,0
1.044,-1.671,0.736,0
1.086,-1.566,1.064,0
1.034,-1.526,0.727,0
0.874,-1.511,-0.43,0
0.844,-1.465,-1.111,0
0.864,-1.193,-1.883,0
0.848,-1.067,-2.23,0
0.824,-1.003,-2.502,0
0.738,-0.944,-2.579,0
0.652,-0.858,-2.4,0
0.641,-0.785,-1.966,0
0.666,-0.637,-1.586,0
0.73,-0.553,-1.549,0
0.786,-0.397,-1.496,0
0.783,-0.303,-1.542,0
0.777,-0.209,-1.796,0
0.784,-0.208,-1.969,0
0.619,-0.23,-1.84,0
0.582,-0.218,-1.692,0
0.631,-0.249,-1.179,0
0.64,-0.268,-0.578,0
0.7,-0.263,0.052,0
0.74,-0.288,0.373,0
0.846,-0.114,1.055,0
0.745,0.005,1.277,0
0.675,0.019,0.874,0
0.537,-0.022,0.439,0
0.153,-0.21,0.216,0
0.062,-0.236,0.384,0
0.042,-0.254,1.036,0
-0.012,-0.319,1.525,0
-0.345,-0.469,2.307,0
-0.41,-0.384,2.959,0
-0.687,0.184,3.301,0
-0.572,0.378,2.09,0
-0.171,0.362,0.371,0
0.177,0.287,-0.33,1
0.735,0.311,-0.961,0
0.975,0.264,-0.501,0
1.169,-0.276,1.595,0
1.241,-0.62,2.933,0
0.854,-1.303,4.731,0
0.375,-1.815,5.459,0
-0.183,-2.095,5.271,0
-0.364,-1.863,3.837,0
-0.176,-1.589,1.14,0
-0.093,-1.504,-0.679,0
-0.338,-1.417,-2.685,0
-0.394,-1.424,-3.063,0
-0.457,-1.319,-2.507,0
-0.407,-1.229,-1.601,0
0.122,-1.116,-0.194,0
0.502,-1.193,0.771,0
0.732,-1.298,1.544,0
0.731,-1.371,1.674,0
0.621,-1.472,0.972,0
0.436,-1.516,0.292,0
0.293,-1.416,-0.672,0
0.347,-1.256,-1.098,0
0.344,-1.068,-1.753,0
0.302,-0.936,-2.242,0
0.351,-0.839,-2.577,0
0.472,-0.801,-2.545,0
0.508,-0.642,-2.097,0
0.541,-0.59,-1.883,0
0.378,-0.532,-1.34,0
0.186,-0.58,-0.953,0
-0.031,-0.649,-0.74,0
-0.028,-0.639,-0.861,0
0.204,-0.46,-0.915,0
0.372,-0.317,-0.642,0
0.359,-0.312,-0.28,0
0.212,-0.364,0.089,0
0.057,-0.52,0.523,0
0.038,-0.528,0.534,0
-0.11,-0.532,0.786,0
-0.088,-0.546,0.952,0
0.006,-0.449,1.492,0
-0.028,-0.254,1.931,0
0.089,-0.121,1.963,0
0.29,-0.105,1.761,0
0.415,-0.021,1.591,0
0.576,-0.032,1.425,0
0.55,-0.223,1.44,0
0.504,-0.323,1.593,0
0.475,-0.287,1.926,0
0.23,-0.083,2.073,0
0.244,-0.097,2.079,0
0.241,0.349,0.741,1
0.796,0.203,0.152,0
1.114,0.185,0.301,0
1.57,-0.139,1.523,0
1.633,-0.369,2.505,0
1.027,-0.664,3.932,0
0.596,-0.964,4.296,0
0.116,-1.45,4.353,0
-0.258,-1.552,3.899,0
-0.563,-1.539,3.147,0
-0.379,-1.302,2.401,0
0.048,-0.843,0.972,0
0.155,-0.708,0.219,0
0.253,-0.709,-0.844,0
0.478,-0.731,-1.448,0
0.78,-0.684,-2.268,0
0.901,-0.753,-2.553,0
1.09,-0.917,-2.473,0
1.143,-1.041,-1.913,0
1.037,-1.298,-1.057,0
0.87,-1.519,-0.49,0
0.591,-1.713,-0.16,0
0.52,-1.696,-0.232,0
0.452,-1.604,-0.619,0
0.494,-1.471,-1.104,0
0.631,-1.149,-2.079,0
0.78,-0.891,-2.673,0
0.852,-0.711,-2.854,0
0.832,-0.575,-2.616,0
0.809,-0.388,-2.199,0
0.656,-0.357,-1.961,0
0.422,-0.338,-1.436,0
0.289,-0.354,-1.182,0
0.287,-0.23,-0.902,0
0.385,-0.098,-0.799,0
0.639,0.069,-0.863,0
0.793,0.101,-0.853,0
1.074,0.216,-0.592,0
1.339,0.252,-0.315,0
1.488,0.267,0.032,0
1.477,0.219,0.335,0
1.571,0.151,1.049,0
1.303,0.057,1.362,0
1.304,0.054,1.363,0
0.204,-0.682,1.382,0
0.137,-0.583,0.875,0
0.23,-0.419,0.576,0
0.5,-0.21,0.764,0
0.611,-0.089,1.149,0
0.818,0.024,1.724,0
0.879,0.061,1.981,0
1.014,0.187,2.257,0
0.813,0.264,2.319,1
0.834,0.247,2.328,0
0.276,0.451,1.246,0
0.194,0.42,0.514,0
0.285,0.42,-0.126,0
1.002,0.252,-0.599,0
1.32,0.091,-0.079,0
1.466,-0.473,1.976,0
1.225,-0.949,3.432,0
0.603,-1.8,5.053,0
0.007,-2.093,5.747,0
-0.456,-2.216,5.089,0
-0.228,-1.926,3.175,0
0.232,-1.241,0.25,0
0.474,-0.978,-1.138,0
0.411,-0.82,-2.616,0
0.285,-0.756,-2.871,0
0.016,-0.866,-2.115,0
-0.055,-1.03,-1.235,0
0.121,-1.207,0.11,0
0.222,-1.39,0.798,0
0.358,-1.6,1.533,0
0.402,-1.693,1.787,0
0.401,-1.687,1.55,0
0.472,-1.56,1.068,0
0.767,-1.256,-0.24,0
0.883,-1.009,-1.174,0
0.871,-0.751,-2.457,0
0.923,-0.558,-3.25,0
0.901,-0.413,-3.818,0
0.832,-0.317,-3.872,0
0.718,-0.232,-3.291,0
0.547,-0.226,-2.749,0
0.329,-0.22,-2.108,0
0.23,-0.22,-1.886,0
0.025,-0.32,-1.893,0
-0.011,-0.298,-1.843,0
0.157,-0.109,-1.392,0
0.22,0.013,-1.159,0
0.066,0.034,-0.845,0
-0.005,-0.029,-0.596,0
-0.058,-0.15,-0.284,0
-0.104,-0.187,0.074,0
-0.109,-0.17,0.067,0
-0.276,-0.44,1.448,0
-0.666,-0.705,2.659,0
-0.637,-0.732,3.275,0
-0.357,-0.502,3.534,0
-0.109,-0.36,2.785,0
0.075,-0.273,1.528,0
0.17,-0.263,1.318,0
0.416,-0.21,1.319,0
0.438,-0.238,1.629,0
0.235,0.038,2.059,0
-0.003,0.266,1.945,0
0.256,0.432,1.215,0
0.789,0.561,0.542,1
0.805,0.544,0.55,0
1.749,0.67,-0.707,0
1.748,0.669,-0.707,0
1.77,0.193,1.505,0
1.298,-0.351,3.074,0
1.034,-0.693,3.542,0
0.681,-1.005,3.717,0
0.274,-1.098,3.618,0
0.018,-1.241,3.146,0
0.07,-1.212,2.361,0
0.324,-0.957,1.005,0
0.48,-0.839,0.341,0
0.61,-0.752,-0.432,0
0.677,-0.76,-0.898,0
0.727,-0.728,-1.719,0
0.747,-0.765,-1.943,0
0.878,-0.876,-1.731,0
0.889,-0.902,-1.285,0
0.895,-0.869,-1.297,0
0.708,-1.111,0.015,0
0.68,-1.138,0.208,0
0.593,-1.128,0.057,0
0.659,-1.037,-0.651,0
0.776,-0.886,-1.267,0
0.778,-0.765,-2.091,0
0.684,-0.688,-2.213,0
0.503,-0.592,-1.869,0
0.37,-0.506,-1.558,0
0.377,-0.502,-1.559,0
0.245,-0.326,-1.229,0
0.14,-0.181,-1.076,0
0.03,-0.168,-1.053,0
-0.025,-0.139,-1.198,0
0.044,-0.111,-1.265,0
0.217,0.092,-1.405,0
0.543,0.215,-1.551,0
0.982,0.434,-1.456,0
1.09,0.457,-1.013,0
0.86,0.178,-0.179,0
0.739,0.088,0.305,0
0.354,-0.045,1.417,0
0.261,-0.058,1.956,0
0.052,-0.006,2.059,0
-0.139,-0.002,1.638,0
-0.123,-0.028,1.649,0
-0.004,-0.058,0.51,0
0.035,0.047,1.016,0
0.244,0.072,1.64,0
0.247,0.107,2.537,0
-0.004,0.105,2.869,0
-0.671,0.558,3.01,0
-0.757,0.763,2.105,1
-0.743,0.63,0.384,0
-0.606,0.646,-0.456,0
-0.284,0.657,-0.717,0
0.102,0.53,-0.225,0
0.818,0.146,1.177,0
1.086,-0.237,2.208,0
1.155,-1.181,4.321,0
0.884,-1.534,5.441,0
-0.091,-1.855,5.938,0
-0.51,-1.987,4.711,0
-0.392,-1.816,2.236,0
-0.099,-1.46,0.341,0
-0.141,-1.117,-2.01,0
-0.11,-0.966,-2.907,0
-0.225,-0.764,-3.599,0
-0.261,-0.752,-3.639,0
-0.054,-0.86,-2.901,0
0.126,-0.918,-2.07,0
0.472,-0.984,-0.698,0
0.482,-1.228,0.08,0
0.495,-1.359,0.594,0
0.423,-1.323,0.381,0
0.227,-1.401,-0.459,0
0.222,-1.418,-1.119,0
0.503,-1.223,-1.946,0
0.637,-1.079,-2.08,0
0.751,-0.895,-1.761,0
0.707,-0.844,-1.311,0
0.698,-0.826,-1.318,0
0.236,-0.881,-0.598,0
-0.042,-0.825,-0.676,0
-0.083,-0.74,-0.887,0
-0.077,-0.574,-1.355,0
-0.064,-0.448,-1.675,0
0.072,-0.165,-1.862,0
0.155,-0.114,-1.767,0
0.103,-0.245,-1.7,0
-0.048,-0.362,-1.56,0
-0.304,-0.53,-1.217,0
-0.365,-0.6,-0.916,0
-0.354,-0.58,-0.923,0
-0.519,-0.598,0.5,0
-0.713,-0.426,1.324,0
-0.765,-0.219,1.986,0
-0.701,0.108,2.483,0
-0.675,0.232,2.24,0
-0.623,0.35,1.854,0
-0.524,0.382,1.652,0
-0.218,0.469,1.7,0
-0.206,0.568,1.863,0
-0.46,1.049,1.694,0
-0.302,1.026,1.181,0
0.081,0.671,0.4,0
0.21,0.583,0.082,1
0.218,0.595,0.078,0
0.659,-0.169,1.928,0
0.5,-0.596,3.847,0
0.11,-0.917,4.9,0
-0.399,-1.54,5.485,0
-0.545,-1.694,5.562,0
-0.413,-1.596,4.865,0
-0.134,-1.337,3.783,0
0.36,-0.793,1.542,0
0.36,-0.816,1.55,0
0.629,-0.59,-0.941,0
0.646,-0.583,-1.628,0
0.468,-0.632,-1.898,0
0.493,-0.671,-1.577,0
0.734,-0.792,-0.295,0
0.866,-0.828,0.484,0
0.878,-0.979,1.109,0
0.724,-1.091,1.016,0
0.49,-1.309,0.288,0
0.38,-1.332,-0.462,0
0.314,-1.199,-1.168,0
0.213,-1.132,-1.299,0
0.112,-1.021,-1.287,0
0.071,-0.974,-1.365,0
0.117,-0.779,-1.398,0
0.246,-0.646,-1.372,0
0.398,-0.428,-1.566,0
0.368,-0.315,-1.893,0
0.262,-0.289,-2.138,0
0.177,-0.318,-2.327,0
0.012,-0.325,-2.313,0
0.007,-0.268,-2.009,0
0.012,-0.281,-2.005,0
0.389,-0.12,-0.951,0
0.513,-0.01,-0.739,0
0.514,0.031,-0.643,0
0.619,0.062,-0.539,0
0.619,-0.022,-0.552,0
0.666,-0.093,-0.198,0
0.658,-0.127,0.212,0
0.535,-0.129,0.532,0
0.322,-0.136,0.633,0
0.086,-0.163,0.521,0
0.08,-0.095,0.293,0
0.104,-0.13,0.306,0
0.065,0.164,0.156,0
0.063,0.131,0.385,0
0.142,0.186,0.639,0
0.399,0.24,1.149,0
0.516,0.097,1.593,0
0.347,-0.076,2.479,0
-0.077,0.133,2.974,0
-0.585,0.486,1.771,0
-0.521,0.354,0.343,1
-0.493,0.321,0.357,0
0.493,0.837,-1.856,0
1.329,0.772,-1.704,0
1.711,0.286,-0.468,0
1.85,-0.775,2.219,0
1.533,-1.464,3.871,0
0.258,-2.557,6.348,0
-0.58,-2.828,6.859,0
-1.245,-2.744,5.248,0
-1.238,-2.564,2.895,0
-0.965,-1.884,-0.471,0
-0.651,-1.349,-2.407,0
-0.081,-0.831,-3.545,0
0.051,-0.597,-3.396,0
0.147,-0.398,-2.089,0
0.339,-0.546,-1.039,0
0.503,-0.888,0.174,0
0.397,-1.186,0.876,0
0.435,-1.381,1.393,0
0.384,-1.377,1.109,0
0.314,-1.294,0.198,0
0.398,-1.168,-0.766,0
0.48,-0.981,-1.854,0
0.348,-0.808,-2.469,0
0.188,-0.571,-2.861,0
0.142,-0.372,-2.697,0
0.169,-0.13,-1.865,0
0.218,0.042,-1.195,0
0.212,0.17,-0.592,0
0.083,0.081,-0.146,0
0.106,0.137,-0.056,0
0.101,0.157,-0.415,0
0.234,0.161,-1.133,0
0.408,0.219,-1.437,0
0.499,0.223,-1.293,0
0.345,0.152,-0.625,0
0.334,0.153,-0.625,0
0.088,0,0.882,0
0.002,-0.091,1.415,0
-0.143,-0.189,1.717,0
-0.215,-0.229,2.024,0
-0.055,-0.173,1.915,0
0.325,-0.019,1.261,0
0.546,0.097,0.779,0
0.757,0.166,0.407,0
0.888,0.182,0.423,0
0.869,0.193,0.806,0
0.733,0.024,1.357,0
0.482,-0.042,2.045,0
0.217,0.239,2.098,0
-0.03,0.566,1.153,0
0.324,0.436,0.442,0
0.915,0.456,-0.138,0
1.08,0.488,0.072,1
1.421,0.071,0.995,0
1.309,-0.318,2.117,0
0.691,-0.767,3.303,0
0.287,-1.148,3.919,0
0.021,-1.574,4.599,0
-0.063,-1.609,4.609,0
0.022,-1.337,4,0
0.254,-1.089,3.164,0
0.642,-0.757,1.311,0
0.882,-0.65,-0.002,0
0.964,-0.574,-1.172,0
1.02,-0.607,-1.615,0
1.209,-0.716,-1.748,0
1.333,-0.782,-1.446,0
1.394,-0.892,-0.707,0
1.351,-1.033,-0.324,0
1.371,-1.013,-0.329,0
1.119,-1.301,-0.125,0
1.041,-1.383,-0.729,0
0.952,-1.367,-1.411,0
0.855,-1.322,-2.043,0
1.013,-1.244,-2.493,0
1.269,-0.899,-2.601,0
1.39,-0.63,-2.516,0
1.302,-0.414,-2.267,0
1.078,-0.406,-2.137,0
0.576,-0.387,-2.17,0
0.309,-0.417,-2.419,0
0.092,-0.432,-2.751,0
0.128,-0.364,-2.711,0
0.555,-0.036,-2.181,0
0.823,0.163,-1.804,0
1.032,0.345,-1.042,0
0.973,0.328,-0.677,0
0.779,0.219,-0.22,0
0.622,0.077,0.042,0
0.546,0.013,0.2,0
0.565,-0.006,0.283,0
0.659,-0.02,0.635,0
0.629,-0.039,1.127,0
0.499,0.019,1.658,0
0.367,0.112,2.17,0
0.33,0.15,2.604,0
0.189,0.166,2.653,0
0.09,0.281,2.691,0
0.251,0.344,2.36,0
0.329,0.448,1.959,0
0.095,0.562,1.781,0
0.104,0.518,1.797,0
-0.318,1.193,0.502,1
0.378,1.316,-0.414,0
0.877,1.433,-0.555,0
1.52,1.62,-0.003,0
2.013,1.356,0.919,0
2.448,0.45,2.537,0
2.469,-0.231,4.132,0
1.885,-1.165,6.294,0
1.181,-1.772,7.598,0
-0.224,-2.423,8.01,0
-0.952,-2.601,6.962,0
-1.261,-2.491,3.833,0
-1.197,-2.27,1.493,0
-1.272,-1.739,-1.897,0
-0.739,-1.402,-3.417,0
-0.003,-0.735,-4.38,0
0.337,-0.199,-4.35,0
0.844,0.092,-3.579,0
1.134,0.019,-2.929,0
1.027,-0.272,-1.907,0
0.788,-0.565,-1.463,0
0.415,-1.096,-0.934,0
0.214,-1.313,-0.895,0
0.009,-1.342,-1.117,0
-0.159,-1.37,-1.26,0
-0.14,-1.374,-1.633,0
0.048,-1.157,-2.028,0
0.272,-0.773,-2.416,0
0.394,-0.601,-2.528,0
0.254,-0.436,-2.255,0
0.128,-0.366,-1.886,0
0.108,-0.365,-1.886,0
-0.423,-0.521,-0.729,0
-0.309,-0.451,-0.318,0
-0.32,-0.417,-0.182,0
-0.138,-0.265,-0.077,0
-0.077,-0.242,-0.109,0
0.002,-0.153,-0.16,0
0.033,-0.121,-0.127,0
0.079,-0.102,0.061,0
0.1,-0.045,0.081,0
0.214,-0.011,0.218,0
0.29,-0.018,0.452,0
0.301,-0.027,0.455,0
0.166,0.139,0.861,0
-0.21,0.213,0.859,0
-0.375,0.245,0.675,0
-0.489,0.409,0.2,0
-0.346,0.393,-0.159,0
0.159,0.249,-0.295,0
0.54,0.279,0.065,0
0.719,0.354,0.955,0
0.502,0.516,1.642,0
-0.055,0.631,1.234,0
-0.068,0.431,0.527,1
0.185,0.196,-0.073,0
0.359,0.217,-0.015,0
0.867,0.141,0.712,0
0.932,-0.118,1.786,0
0.612,-0.526,3.144,0
0.455,-0.744,3.635,0
0.238,-1.201,4.291,0
0.127,-1.398,4.309,0
-0.097,-1.463,3.901,0
-0.202,-1.281,3.121,0
-0.277,-1.101,1.458,0
-0.098,-0.998,0.586,0
0.252,-0.686,-0.497,0
0.425,-0.613,-0.819,0
0.784,-0.429,-0.836,0
1.099,-0.306,-0.593,0
1.343,-0.343,-0.096,0
1.386,-0.436,0.095,0
1.244,-0.744,-0.047,0
1.041,-0.852,-0.255,0
0.83,-1.057,-0.62,0
0.762,-1.069,-0.83,0
0.625,-1.069,-1.104,0
0.452,-1.074,-1.193,0
0.298,-1.014,-1.367,0
0.333,-0.845,-1.643,0
0.469,-0.522,-1.989,0
0.514,-0.335,-2.071,0
0.636,-0.056,-2.179,0
0.72,0.055,-2.31,0
0.439,0.172,-2.411,0
0.328,0.132,-2.46,0
0.095,0.077,-2.632,0
-0.063,0.033,-2.248,0
-0.071,0.015,-1.467,0
0.005,0.037,-1.043,0
0.257,0.32,-0.144,0
0.406,0.459,0.145,0
0.521,0.508,0.195,0
0.534,0.61,0.18,0
0.515,0.592,0.186,0
0.664,0.528,0.369,0
0.318,0.398,0.85,0
0.129,0.36,1.167,0
-0.01,0.335,1.376,0
-0.134,0.292,1.501,0
0.036,0.343,1.705,0
0.154,0.355,1.675,0
0.182,0.357,1.763,0
0.313,0.264,1.987,0
0.597,0.086,2.129,0
0.566,0.07,1.984,0
0.574,0.022,2.003,0
-0.726,0.435,0.587,1
-0.697,0.387,0.607,0
-0.604,0.305,-1.288,0
-0.329,0.245,-1.7,0
-0.059,0.21,-1.597,0
0.249,0.158,-0.53,0
0.434,-0.097,0.534,0
0.568,-0.734,2.013,0
0.48,-1.084,3.242,0
0.026,-1.151,3.962,0
-0.368,-1.128,3.485,0
-0.644,-1.174,1.602,0
-0.55,-0.964,0.413,0
-0.185,-0.484,-1.033,0
-0.078,-0.225,-1.4,0
-0.011,-0.124,-1.191,0
0.027,-0.122,-0.746,0
0.176,-0.411,0.02,0
0.316,-0.584,0.434,0
0.625,-0.783,0.801,0
0.643,-0.912,0.938,0
0.698,-1.006,0.678,0
0.709,-1.015,0.052,0
0.645,-0.954,-1.104,0
0.655,-0.834,-1.656,0
0.635,-0.746,-2.284,0
0.503,-0.645,-2.477,0
0.444,-0.595,-2.384,0
0.554,-0.491,-2.394,0
0.48,-0.292,-2.197,0
0.375,-0.229,-2.033,0
0.177,-0.152,-1.842,0
0.039,-0.134,-1.721,0
-0.058,-0.15,-1.685,0
-0.094,-0.081,-1.76,0
-0.081,0.039,-1.603,0
-0.113,0.006,-1.286,0
0.096,0.033,-0.835,0
0.161,0.063,-0.495,0
0.142,0.07,-0.497,0
-0.175,-0.145,0.921,0
-0.059,-0.242,1.534,0
-0.055,-0.197,1.782,0
-0.105,-0.237,2.189,0
-0.182,-0.296,2.613,0
0.002,-0.228,2.991,0
0.156,-0.139,2.846,0
0.42,-0.017,2.025,0
0.525,0.023,1.599,0
0.473,0.16,1.314,0
0.554,0.347,1.371,0
0.564,0.309,1.385,0
0.087,1.089,1.047,0
0.079,0.903,0.377,0
0.466,0.814,-0.077,1
0.846,0.837,-0.23,0
1.134,0.553,0.171,0
1.369,-0.056,1.714,0
0.808,-0.235,2.799,0
0.433,-0.435,3.682,0
0.551,-0.494,3.506,0
0.416,-0.446,2.695,0
0.262,-0.393,1.874,0
0.131,-0.372,0.782,0
-0.023,-0.357,0.197,0
-0.358,-0.569,-0.377,0
-0.371,-0.73,-0.571,0
-0.239,-0.838,-0.845,0
-0.191,-0.86,-0.767,0
0.099,-1.026,-0.118,0
0.452,-1.028,0.64,0
0.445,-1.001,0.629,0
0.73,-1.095,1.388,0
0.55,-1.186,1.093,0
0.437,-1.19,0.679,0
0.327,-1.13,-0.202,0
0.334,-1.031,-0.99,0
0.42,-0.811,-1.998,0
0.547,-0.675,-2.799,0
0.512,-0.517,-3.354,0
0.623,-0.401,-3.578,0
0.715,-0.072,-3.472,0
0.609,0.031,-3.06,0
0.36,0.047,-2.396,0
0.095,0.011,-2.193,0
-0.343,-0.056,-2.048,0
-0.474,-0.119,-2.218,0
-0.529,-0.063,-2.544,0
-0.496,-0.057,-2.606,0
-0.319,-0.023,-2.317,0
-0.24,0.085,-1.862,0
-0.147,0.118,-0.623,0
-0.113,0.153,0.112,0
0.005,0.139,1.019,0
-0.036,0.116,1.379,0
-0.238,0.08,1.772,0
-0.359,-0.024,1.69,0
-0.418,0.025,1.054,0
-0.367,0.122,0.717,0
-0.36,0.087,0.73,0
0.023,0.292,1.256,0
-0.042,0.265,1.719,0
0.08,0.366,2.117,0
0.668,0.416,2.604,0
0.665,0.185,3.013,0
0.189,0.487,3.233,0
-0.351,0.9,2.6,1
-0.737,0.87,0.532,0
-0.531,0.755,-0.624,0
-0.332,0.808,-1.268,0
-0.078,0.696,-1.127,0
0.29,0.378,0.211,0
0.292,0.017,1.482,0
0.282,-0.799,3.486,0
0.329,-1.106,4.245,0
-0.084,-1.313,4.117,0
-0.499,-1.37,3.073,0
-0.638,-1.41,1.194,0
-0.641,-1.305,0.3,0
-0.918,-0.981,-0.828,0
-1.098,-0.854,-1.235,0
-0.959,-0.788,-1.192,0
-0.61,-0.613,-0.973,0
-0.123,-0.546,-0.378,0
0.298,-0.605,0.355,0
0.538,-0.895,1.401,0
0.547,-1.002,1.729,0
0.464,-1.25,1.6,0
0.432,-1.314,1.041,0
0.543,-1.241,-0.425,0
0.714,-1.061,-1.563,0
0.806,-0.83,-2.613,0
0.62,-0.776,-2.82,0
0.31,-0.619,-2.763,0
0.131,-0.501,-2.534,0
-0.103,-0.367,-2.431,0
-0.256,-0.268,-2.545,0
-0.323,-0.101,-2.802,0
-0.203,0.05,-2.713,0
-0.133,0.068,-2.444,0
-0.373,0.058,-1.915,0
-0.394,0.053,-1.912,0
-0.785,-0.19,-0.526,0
-0.91,-0.135,-0.313,0
-0.937,-0.113,-0.286,0
-0.807,0.025,-0.623,0
-0.789,0.077,-0.794,0
-0.429,0.277,-0.664,0
-0.089,0.328,0.021,0
-0.084,0.358,1.033,0
-0.046,0.354,1.332,0
-0.162,0.317,1.73,0
-0.316,0.177,2.024,0
-0.475,-0.163,2.265,0
-0.501,-0.276,2.533,0
-0.365,-0.418,2.789,0
-0.198,-0.285,2.558,0
-0.185,-0.305,2.565,0
-0.734,0.735,1.343,0
-0.636,1.018,0.468,0
0.147,1.069,-0.165,1
0.729,1.207,-0.206,0
0.988,1.139,0.039,0
1.495,0.777,1.543,0
1.469,0.795,1.537,0
0.796,-0.401,4.415,0
0.696,-0.76,4.841,0
0.124,-1.104,4.933,0
-0.293,-1.313,4.717,0
-0.591,-1.514,3.984,0
-0.546,-1.445,3.035,0
-0.234,-1.194,1.435,0
-0.06,-1.1,0.436,0
-0.06,-1.154,-1.045,0
-0.002,-1.155,-1.826,0
0.268,-1.259,-2.552,0
0.629,-1.326,-2.907,0
0.957,-1.321,-2.65,0
0.986,-1.263,-1.75,0
0.888,-1.386,-0.099,0
0.746,-1.437,0.555,0
0.33,-1.377,0.81,0
0.072,-1.27,0.393,0
-0.055,-0.989,-0.917,0
0.011,-0.735,-1.986,0
-0.011,-0.434,-3.183,0
-0.009,-0.295,-3.744,0
-0.175,-0.264,-4.037,0
-0.113,-0.176,-3.865,0
-0.106,0.021,-2.807,0
-0.149,0.04,-1.946,0
-0.26,-0.03,-0.766,0
-0.398,-0.03,-0.32,0
-0.313,0.07,-0.264,0
-0.172,0.203,-0.677,0
-0.115,0.286,-1.429,0
-0.125,0.282,-1.899,0
-0.193,0.272,-1.741,0
-0.204,0.3,-1.336,0
-0.309,0.191,-0.202,0
-0.388,0.141,0.486,0
-0.351,0.287,0.933,0
-0.241,0.375,1.057,0
-0.169,0.576,1.424,0
-0.259,0.587,1.338,0
-0.603,0.551,1.022,0
-1.011,0.368,1.014,0
-1.09,0.33,1.283,0
-0.93,0.389,1.505,0
-0.442,0.442,1.926,0
-0.093,0.384,1.928,0
-0.074,0.48,1.877,0
-0.396,0.988,1.638,1
-0.662,1.083,0.413,0
-0.68,0.782,-0.161,0
-0.58,0.633,-0.513,0
-0.173,0.739,-0.622,0
0.344,0.536,1.208,0
0.418,0.221,2.565,0
0.354,-0.477,4.447,0
0.182,-1.07,5.251,0
-0.396,-1.637,5.552,0
-0.693,-1.716,4.781,0
-0.75,-1.574,1.922,0
-0.627,-1.394,0.346,0
-0.653,-1.198,-1.823,0
-1.07,-1.084,-2.565,0
-1.157,-0.984,-2.982,0
-1.075,-0.777,-2.574,0
-0.817,-0.625,-1.513,0
-0.443,-0.621,-0.544,0
-0.155,-0.768,0.426,0
-0.087,-0.969,0.976,0
0.013,-1.13,1.457,0
0.024,-1.156,1.455,0
0.066,-1.071,0.776,0
0.088,-0.961,0.141,0
0.17,-0.798,-1.277,0
0.258,-0.633,-2.158,0
0.285,-0.447,-2.973,0
0.244,-0.393,-3.158,0
0.102,-0.297,-3.014,0
0.053,-0.195,-2.833,0
-0.091,-0.1,-2.593,0
-0.246,-0.025,-2.398,0
-0.512,0.105,-2.133,0
-0.654,0.102,-2.049,0
-0.739,0.026,-1.824,0
-0.665,0.113,-1.555,0
-0.436,0.285,-0.992,0
-0.319,0.299,-0.222,0
-0.265,0.407,0.442,0
-0.324,0.452,0.608,0
-0.298,0.304,0.766,0
-0.177,0.289,0.82,0
-0.212,0.242,1.241,0
-0.235,0.119,1.576,0
-0.4,0.001,2.153,0
-0.5,0.025,2.434,0
-0.433,0.106,2.11,0
-0.37,0.085,1.778,0
-0.31,0.038,1.407,0
-0.127,0.078,1.4,0
-0.115,0.528,1.645,0
-0.383,0.963,1.502,0
-0.077,1.01,0.675,0
0.648,0.963,0.056,1
1.158,1.225,-0.591,0
1.453,1.148,-0.451,0
1.5,0.476,1.1,0
1.073,-0.055,2.349,0
0.312,-0.812,3.794,0
-0.139,-1.284,4.677,0
-0.914,-1.899,5.677,0
-1.456,-2.032,5.659,0
-1.649,-2.004,4.358,0
-1.527,-1.896,3.1,0
-1.279,-1.65,0.95,0
-1.111,-1.488,-0.165,0
-0.886,-1.429,-1.671,0
-0.642,-1.461,-2.169,0
-0.175,-1.451,-2.293,0
0.099,-1.332,-1.867,0
0.406,-1.22,-0.571,0
0.588,-1.233,0.12,0
0.574,-1.3,0.673,0
0.539,-1.23,0.72,0
0.335,-1.125,0.106,0
0.184,-1.052,-0.6,0
0.183,-0.82,-1.872,0
0.237,-0.634,-2.421,0
0.249,-0.386,-3.085,0
0.139,-0.262,-3.298,0
0.051,-0.114,-3.259,0
-0.037,-0.055,-3.061,0
-0.327,-0.031,-2.556,0
-0.514,-0.082,-2.171,0
-0.797,-0.163,-1.879,0
-0.834,-0.14,-1.772,0
-0.795,-0.093,-1.444,0
-0.665,0.042,-1.395,0
-0.442,0.194,-1.424,0
-0.441,0.237,-1.295,0
-0.417,0.337,-0.956,0
-0.317,0.343,-0.784,0
-0.198,0.45,-0.581,0
-0.188,0.511,-0.423,0
-0.354,0.583,-0.086,0
-0.464,0.614,0.273,0
-0.692,0.447,1.419,0
-0.793,0.323,1.995,0
-1.059,0.243,2.023,0
-1.208,0.226,2.016,0
-0.984,0.105,2.195,0
-0.721,0.078,2.316,0
-0.36,0.137,2.511,0
-0.185,0.14,2.745,0
-0.356,0.448,2.972,0
-0.93,1.007,2.378,1
-0.911,0.96,2.396,0
-1.157,0.976,-0.058,0
-0.676,1.178,-0.79,0
-0.017,1.275,-1.006,0
0.875,1.112,0.216,0
1.041,0.879,1.556,0
0.83,-0.158,3.896,0
0.589,-0.729,4.868,0
-0.432,-1.333,5.762,0
-1.145,-1.658,5.314,0
-1.339,-1.625,3.167,0
-1.446,-1.577,1.684,0
-1.557,-1.365,-0.388,0
-1.604,-1.323,-1.458,0
-1.588,-1.206,-2.301,0
-1.436,-1.035,-2.286,0
-0.926,-1.047,-1.672,0
-0.508,-1.071,-1.024,0
-0.201,-1.06,-0.091,0
-0.102,-1.206,0.354,0
-0.115,-1.425,0.55,0
-0.207,-1.423,0.279,0
-0.151,-1.27,-0.544,0
-0.058,-1.163,-1.071,0
0.051,-0.991,-1.729,0
-0.032,-0.937,-1.973,0
-0.272,-0.853,-1.961,0
-0.387,-0.711,-1.849,0
-0.392,-0.717,-1.846,0
-0.434,-0.431,-1.586,0
-0.558,-0.257,-1.708,0
-0.623,-0.186,-1.922,0
-0.636,-0.109,-2.283,0
-0.422,-0.039,-2.214,0
-0.028,0.165,-2.096,0
-0.063,0.23,-1.969,0
-0.119,0.146,-1.807,0
-0.252,0.038,-1.451,0
-0.413,-0.152,-0.812,0
-0.478,-0.332,-0.145,0
-0.393,-0.329,0.935,0
-0.378,-0.314,1.341,0
-0.266,-0.165,1.618,0
-0.17,-0.102,1.76,0
0.167,0.066,2.002,0
0.228,0.11,1.923,0
0.231,0.089,1.931,0
0.045,0.078,1.871,0
0.115,0.106,1.996,0
0.018,0.108,2.025,0
0.024,0.077,2.037,0
-0.769,0.552,0.857,0
-0.815,0.61,-0.266,0
-0.141,0.652,-1.001,0
0.309,0.924,-1.227,0
0.459,0.908,-0.587,1
0.633,0.617,1.149,0
0.45,0.357,2.296,0
0.206,-0.316,3.644,0
0.101,-0.704,4.249,0
-0.504,-1.327,5.29,0
-0.97,-1.578,5.679,0
-1.416,-1.633,5.289,0
-1.291,-1.528,4.172,0
-0.745,-1.248,2.098,0
-0.39,-0.976,0.798,0
-0.077,-0.692,-0.926,0
0.138,-0.611,-1.695,0
0.477,-0.417,-2.519,0
0.6,-0.44,-2.705,0
0.677,-0.571,-2.599,0
0.689,-0.641,-2.351,0
0.594,-0.9,-1.883,0
0.488,-1.078,-1.363,0
0.325,-1.21,-0.351,0
0.194,-1.216,0.005,0
-0.07,-1.2,0.058,0
-0.19,-1.134,-0.42,0
-0.389,-0.868,-1.437,0
-0.486,-0.665,-1.941,0
-0.473,-0.673,-1.939,0
-0.428,-0.274,-2.905,0
-0.402,-0.128,-3.055,0
-0.396,-0.071,-2.779,0
-0.346,0.01,-2.058,0
-0.402,0.011,-1.61,0
-0.652,-0.068,-1.016,0
-0.717,0.011,-0.614,0
-0.556,0.036,0.223,0
-0.415,0.12,0.092,0
-0.329,0.247,-0.285,0
-0.029,0.373,-0.488,0
0.288,0.486,-0.669,0
0.394,0.562,-0.512,0
0.292,0.551,0.081,0
0.251,0.573,0.348,0
-0.027,0.527,0.847,0
-0.24,0.428,1.258,0
-0.623,0.251,1.622,0
-0.993,0.185,1.892,0
-0.979,0.159,1.902,0
-1.09,-0.087,1.944,0
-0.781,-0.053,1.669,0
-0.676,-0.067,1.426,0
-0.653,-0.111,1.443,0
-1.052,0.536,1.138,0
-1.642,0.792,-0.169,0
-1.538,0.733,-1.219,1
-1.141,0.675,-2.166,0
-0.662,0.514,-2.359,0
0.031,0.471,-0.997,0
0.501,0.233,0.982,0
0.886,-0.67,4.258,0
0.767,-1.025,6.01,0
0.337,-1.39,8.029,0
-0.069,-1.443,7.828,0
-0.622,-1.378,4.976,0
-0.572,-1.095,2.125,0
-0.813,-0.535,-1.185,0
-0.919,-0.59,-2.521,0
-1.094,-0.527,-3.689,0
-1.181,-0.366,-3.777,0
-1.055,-0.29,-2.512,0
-0.645,-0.345,-1.131,0
-0.024,-0.456,0.579,0
0.108,-0.712,1.462,0
0.136,-0.977,1.975,0
0.038,-1.112,1.752,0
-0.204,-1.251,0.759,0
-0.363,-1.37,-0.122,0
-0.404,-1.302,-1.159,0
-0.415,-1.132,-1.559,0
-0.538,-1.004,-2.122,0
-0.594,-1.004,-2.258,0
-0.626,-0.8,-2.264,0
-0.47,-0.568,-1.996,0
-0.261,-0.277,-1.864,0
-0.228,-0.131,-2.022,0
-0.288,0,-2.249,0
-0.363,0.028,-2.299,0
-0.595,0.033,-2.103,0
-0.776,-0.013,-1.798,0
-0.934,-0.045,-1.158,0
-0.867,-0.011,-0.646,0
-0.678,0.065,-0.125,0
-0.602,0.109,0.241,0
-0.556,0.136,0.52,0
-0.344,0.263,0.67,0
0.099,0.363,1.009,0
0.22,0.486,1.333,0
0.293,0.673,1.433,0
0.219,0.614,1.114,0
-0.059,0.507,0.91,0
-0.171,0.41,1.038,0
-0.003,0.346,1.347,0
-0.013,0.338,1.679,0
-0.083,0.246,2.108,0
-0.306,0.386,2.075,0
-0.844,0.745,1.157,0
-0.733,0.562,0.321,0
-0.042,0.448,-0.585,0
0.451,0.572,-0.682,1
0.694,0.372,0.246,0
0.519,-0.045,1.777,0
0.176,-0.52,3.461,0
0.029,-1.023,4.521,0
-0.463,-1.511,5.288,0
-0.828,-1.666,5.354,0
-1.23,-1.728,4.587,0
-1.132,-1.432,3.201,0
-0.7,-0.966,1.06,0
-0.393,-0.604,-0.313,0
-0.094,-0.388,-1.616,0
0.024,-0.408,-1.963,0
0.223,-0.399,-1.788,0
0.334,-0.446,-1.306,0
0.426,-0.652,-0.387,0
0.433,-0.75,-0.033,0
0.407,-0.891,-0.002,0
0.431,-0.975,-0.354,0
0.545,-0.898,-1.042,0
0.65,-0.774,-1.482,0
0.663,-0.732,-1.974,0
0.599,-0.727,-2.14,0
0.296,-0.809,-2.153,0
0.091,-0.875,-2.128,0
-0.212,-0.891,-2.045,0
-0.338,-0.857,-1.698,0
-0.37,-0.686,-1.417,0
-0.376,-0.597,-1.549,0
-0.419,-0.447,-1.839,0
-0.426,-0.346,-2.006,0
-0.406,-0.173,-2.367,0
-0.355,-0.098,-2.541,0
-0.414,0.014,-2.225,0
-0.399,0.093,-1.866,0
-0.241,0.138,-1.318,0
-0.334,0.122,-0.808,0
-0.342,0.218,-0.265,0
-0.222,0.288,0.213,0
-0.076,0.314,0.955,0
0,0.379,1.226,0
0.103,0.455,1.256,0
0.16,0.494,0.922,0
0.189,0.587,0.047,0
0.097,0.631,-0.294,0
-0.014,0.666,-0.228,0
-0.129,0.714,0.168,0
-0.325,0.479,1.123,0
-0.423,0.305,1.777,0
-0.393,0.275,2.738,0
-0.317,0.297,3.224,0
-0.373,0.717,3.603,0
-0.456,1.006,2.726,1
-0.321,0.904,0.657,0
-0.094,0.859,-0.635,0
0.053,0.841,-1.641,0
0.174,0.657,-1.623,0
0.165,0.219,0.211,0
0.338,-0.169,1.729,0
0.228,-1.053,4.264,0
-0.023,-1.551,5.495,0
-0.629,-2.086,6.497,0
-1.067,-2.232,5.822,0
-1.262,-2.304,3.447,0
-1.361,-2.003,1.109,0
-1.066,-1.439,-1.905,0
-0.631,-1.145,-3.394,0
0.101,-0.115,-4.824,0
0.414,0.245,-4.825,0
0.739,0.421,-3.142,0
0.879,0.235,-1.56,0
0.577,-0.522,0.922,0
0.25,-1.003,2.158,0
-0.189,-1.413,3.018,0
-0.558,-1.635,3.08,0
-0.621,-1.648,2.008,0
-0.467,-1.463,0.818,0
-0.044,-0.935,-1.147,0
0.107,-0.704,-2.049,0
0.134,-0.473,-3.345,0
0.068,-0.413,-3.576,0
-0.115,-0.298,-3.311,0
-0.259,-0.204,-2.76,0
-0.353,-0.126,-1.969,0
-0.347,-0.029,-1.66,0
-0.204,0.155,-1.385,0
-0.138,0.217,-1.305,0
-0.231,0.196,-1.201,0
-0.306,0.14,-1.171,0
-0.421,0.048,-0.98,0
-0.456,0.062,-0.672,0
-0.455,0.106,-0.088,0
-0.507,0.142,0.326,0
-0.52,0.144,0.326,0
-0.513,0.086,0.947,0
-0.241,0.202,1.213,0
-0.047,0.394,1.219,0
0.29,0.693,0.907,0
0.448,0.807,0.655,0
0.423,0.862,0.469,0
0.369,0.827,0.389,0
0.47,0.831,0.593,0
0.419,0.838,0.831,0
0.247,0.723,1.38,0
0.024,0.798,1.704,0
-0.647,1.329,1.654,0
-0.805,1.363,0.968,1
-0.27,1.053,0.025,0
0.154,1.05,-0.297,0
0.337,0.771,0.738,0
0.757,0.168,2.222,0
0.683,-0.427,4.109,0
0.031,-0.669,5.421,0
-0.485,-1.156,6.494,0
-0.674,-1.301,5.971,0
-0.645,-1.283,5.963,0
-0.827,-0.835,1.309,0
-0.512,-0.434,-0.729,0
-0.434,-0.375,-1.786,0
-0.398,-0.589,-2.198,0
-0.357,-0.707,-1.832,0
-0.144,-0.891,-0.636,0
0.155,-0.993,0.064,0
0.46,-1.127,0.749,0
0.588,-1.163,0.817,0
0.731,-1.108,0.454,0
0.664,-1.093,0.007,0
0.421,-1.114,-0.486,0
0.185,-1.232,-0.682,0
0.139,-1.209,-1.162,0
0.154,-1.075,-1.588,0
0.108,-0.844,-2.186,0
0.206,-0.736,-2.59,0
0.295,-0.567,-3.037,0
0.321,-0.414,-3.113,0
0.3,-0.284,-2.815,0
0.254,-0.165,-2.186,0
-0.039,-0.153,-1.44,0
-0.307,-0.171,-1.197,0
-0.575,-0.149,-0.983,0
-0.636,-0.093,-0.944,0
-0.649,-0.105,-0.939,0
-0.437,0.104,-1.13,0
-0.247,0.323,-1.566,0
-0.056,0.431,-1.73,0
0.053,0.487,-1.351,0
0.215,0.626,-0.653,0
0.32,0.607,0.415,0
0.176,0.623,0.806,0
-0.275,0.522,1.739,0
-0.548,0.364,1.865,0
-1.011,0.073,1.515,0
-0.998,-0.114,1.128,0
-0.703,-0.046,0.613,0
-0.621,0.034,0.814,0
-0.484,0.053,1.713,0
-0.442,0.01,2.045,0
-0.475,0.047,2.238,0
-0.507,0.298,2.097,0
-0.843,0.956,0.905,0
-0.878,1.165,-0.054,1
-0.271,1.261,-1.158,0
0.294,1.406,-1.444,0
0.541,1.349,-0.275,0
0.584,0.86,1.47,0
0.756,-0.139,3.466,0
0.736,-0.641,4.898,0
0.423,-1.101,6.744,0
0.201,-1.441,7.453,0
-0.199,-1.476,6.776,0
-0.322,-1.306,4.458,0
-0.437,-1.065,1.301,0
-0.485,-0.776,-0.617,0
-0.442,-0.632,-2.446,0
-0.514,-0.545,-3.198,0
-0.66,-0.504,-3.708,0
-0.613,-0.571,-3.371,0
-0.2,-0.772,-1.784,0
0.045,-0.782,-0.912,0
0.083,-1.041,0.116,0
-0.017,-1.353,0.32,0
-0.316,-1.479,-0.233,0
-0.46,-1.39,-1.072,0
-0.399,-1.31,-2.151,0
-0.301,-1.165,-2.584,0
-0.34,-0.929,-3.221,0
-0.511,-0.927,-3.458,0
-0.716,-0.864,-3.465,0
-0.722,-0.562,-3.221,0
-0.594,-0.172,-2.452,0
-0.519,-0.016,-1.855,0
-0.67,0.088,-1.422,0
-0.733,0.219,-1.428,0
-0.763,0.256,-1.719,0
-0.701,0.282,-2,0
-0.548,0.224,-2.159,0
-0.5,0.137,-1.965,0
-0.505,0.089,-0.967,0
-0.5,0.133,-0.034,0
-0.385,0.243,0.633,0
-0.428,0.27,1.108,0
-0.577,0.24,1.407,0
-0.696,0.176,1.564,0
-0.918,0.1,1.56,0
-0.844,0.184,1.199,0
-0.462,0.383,0.763,0
-0.236,0.526,0.717,0
-0.252,0.587,1.176,0
-0.136,0.677,1.884,0
0.002,0.767,2.656,0
-0.025,0.698,2.816,0
-0.472,0.661,2.371,0
-0.804,0.831,1.486,1
-0.783,0.801,1.496,0
-0.537,0.539,-0.538,0
0.109,0.796,-0.648,0
0.519,0.847,-0.115,0
0.783,0.376,1.567,0
0.441,0.005,2.886,0
-0.258,-0.408,4.536,0
-0.483,-0.654,5.235,0
-0.82,-1.134,5.947,0
-0.99,-1.184,5.75,0
-1.046,-1.097,4.391,0
-0.915,-1.04,2.915,0
-0.714,-0.83,1.115,0
-0.636,-0.729,0.122,0
-0.519,-0.748,-0.957,0
-0.495,-0.912,-1.339,0
-0.222,-1.094,-1.717,0
0.004,-1.135,-1.754,0
0.268,-1.15,-1.525,0
0.395,-1.16,-1.359,0
0.368,-1.177,-1.212,0
0.176,-1.192,-1.222,0
-0.034,-1.197,-1.452,0
0.052,-0.989,-1.634,0
-0.174,-0.946,-2.127,0
-0.494,-0.861,-2.585,0
-0.479,-0.682,-2.775,0
-0.229,-0.517,-2.95,0
-0.105,-0.135,-3.112,0
0.048,0.064,-2.904,0
0.261,0.296,-2.493,0
0.348,0.379,-2.184,0
0.342,0.449,-1.456,0
0.165,0.42,-0.948,0
-0.164,0.245,-0.547,0
-0.395,0.115,-0.428,0
-0.538,0.036,-0.193,0
-0.534,0.019,-0.014,0
-0.406,0.064,-0.042,0
-0.177,0.08,-0.279,0
0,0.134,-0.171,0
-0.092,0.138,-0.193,0
0.016,0.415,-0.556,0
-0.131,0.576,-0.636,0
-0.349,0.477,-0.257,0
-0.35,0.32,0.05,0
-0.883,0.281,0.561,0
-1.106,0.254,0.807,0
-1.004,0.168,0.763,0
-1.069,0.015,0.863,0
-1.077,-0.012,0.875,0
-0.797,-0.184,1.551,0
-0.697,0.203,2.315,0
-1.067,0.588,2.322,1
-1.055,0.58,2.324,0
-1.626,0.623,0.269,0
-1.415,0.428,-0.812,0
-0.938,0.449,-0.956,0
-0.324,0.276,1.102,0
0.097,0.103,3.321,0
0.279,-0.379,5.592,0
0.316,-0.637,6.35,0
-0.046,-0.946,6.363,0
-0.065,-0.91,6.35,0
-0.937,-0.444,1.994,0
-1.003,-0.116,0.205,0
-1.038,0.053,-1.735,0
-1.227,0.025,-2.851,0
-1.196,0.027,-2.853,0
-1.469,-0.017,-3.428,0
-0.853,-0.05,-2.329,0
-0.415,-0.195,-1.518,0
0.081,-0.631,-0.211,0
0.185,-0.957,0.538,0
0.142,-1.298,1.226,0
-0.133,-1.532,1.425,0
-0.533,-1.734,1.368,0
-0.805,-1.795,1.043,0
-1,-1.629,0.087,0
-0.939,-1.452,-0.701,0
-0.911,-1.185,-1.944,0
-0.968,-1.012,-2.434,0
-1.027,-0.721,-2.83,0
-0.917,-0.49,-2.764,0
-0.709,-0.205,-2.278,0
-0.622,-0.082,-1.776,0
-0.606,-0.043,-1.113,0
-0.624,-0.074,-0.882,0
-0.771,-0.265,-0.777,0
-0.795,-0.343,-0.692,0
-0.784,-0.322,-0.425,0
-0.82,-0.185,-0.309,0
-0.796,0.049,-0.142,0
-0.701,0.114,0.074,0
-0.61,0.19,0.347,0
-0.646,0.226,0.499,0
-0.551,0.183,0.872,0
-0.326,0.304,0.993,0
-0.334,0.297,0.996,0
-0.231,0.594,1.002,0
-0.258,0.575,0.768,0
-0.31,0.588,0.524,0
-0.357,0.544,0.776,0
-0.312,0.467,1.387,0
-0.61,0.705,2.134,0
-0.773,1.209,2.271,0
-0.506,1.516,1.305,0
-0.113,1.372,0.595,1
0.463,1.44,-0.382,0
0.715,1.4,-0.418,0
0.801,0.844,0.957,0
0.428,0.187,2.74,0
0.038,-0.631,4.351,0
-0.248,-1.336,5.539,0
-0.989,-1.826,6.386,0
-1.336,-1.818,6.103,0
-1.415,-1.608,4.206,0
-1.343,-1.563,2.84,0
-1.137,-1.174,0.577,0
-1.107,-1.024,-0.606,0
-1.049,-1.046,-0.602,0
-0.783,-0.956,-2.077,0
-0.337,-0.872,-2.107,0
-0.092,-0.812,-1.715,0
0.348,-0.689,-0.914,0
0.411,-0.7,-0.525,0
0.268,-0.903,-0.124,0
0.228,-0.932,-0.179,0
0.215,-0.823,-0.663,0
0.225,-0.74,-0.967,0
0.227,-0.756,-0.961,0
0.032,-0.369,-1.503,0
-0.008,-0.102,-2.153,0
-0.117,0.004,-2.408,0
-0.334,0.11,-2.755,0
-0.53,0.083,-2.796,0
-0.827,-0.093,-2.906,0
-0.859,-0.089,-2.882,0
-0.748,0.117,-2.788,0
-0.672,0.207,-2.755,0
-0.544,0.131,-3.107,0
-0.497,0.098,-3.197,0
-0.541,0.183,-2.305,0
-0.481,0.144,-1.389,0
-0.388,0.139,-0.287,0
-0.52,0.207,0.161,0
-0.657,0.092,0.469,0
-0.69,-0.053,0.447,0
-0.576,0.075,0.181,0
-0.46,0.291,-0.191,0
-0.473,0.412,-0.32,0
-0.555,0.386,-0.186,0
-0.839,0.322,0.569,0
-1.007,0.241,1.177,0
-0.878,0.153,1.88,0
-0.72,0.127,2.046,0
-0.54,0.266,2.85,0
-0.307,0.24,3.374,0
-0.726,0.679,3.024,0
-1.264,1,1.929,0
-1.09,0.886,0.155,0
-0.725,0.845,-0.608,1
-0.47,0.857,-1.072,0
-0.355,0.443,0.018,0
-0.074,-0.135,2.395,0
-0.052,-0.629,4.349,0
-0.104,-1.175,6.417,0
-0.061,-1.354,7.464,0
-0.215,-1.131,6.941,0
-0.222,-1.106,6.932,0
-0.654,-0.745,1.259,0
-0.852,-0.489,-0.604,0
-0.941,-0.486,-2.438,0
-1.129,-0.572,-3.125,0
-1.433,-0.471,-3.254,0
-1.356,-0.549,-2.545,0
-0.705,-0.683,-0.719,0
-0.37,-0.707,0.074,0
-0.033,-0.838,0.889,0
0.094,-0.913,1.012,0
0.206,-0.955,0.475,0
0.191,-0.956,-0.256,0
0.121,-0.977,-1.358,0
-0.034,-0.992,-1.981,0
-0.289,-1.034,-2.361,0
-0.45,-0.985,-2.426,0
-0.716,-0.921,-2.253,0
-0.897,-0.846,-2.063,0
-1.071,-0.7,-2.082,0
-1.171,-0.641,-2.276,0
-1.167,-0.454,-2.574,0
-0.941,-0.255,-2.646,0
-0.633,-0.025,-2.611,0
-0.626,0.181,-2.342,0
-0.645,0.279,-1.791,0
-0.714,0.238,-1.345,0
-0.918,0.134,-0.911,0
-0.996,0.048,-0.685,0
-1.205,-0.033,-0.242,0
-1.039,0.078,-0.086,0
-1.046,0.081,-0.087,0
-0.637,0.344,0.345,0
-0.725,0.348,0.681,0
-0.868,0.343,0.947,0
-0.867,0.347,0.945,0
-0.657,0.34,1.859,0
-0.681,0.239,2.259,0
-0.765,0.198,2.274,0
-0.622,0.234,2.285,0
-0.468,0.281,2.294,0
-0.426,0.706,2.156,0
-0.564,1.118,1.709,0
-0.562,1.095,1.718,0
0.134,1.084,0.959,1
0.707,1.139,1.082,0
0.706,0.93,1.733,0
0.433,0.34,3.631,0
0.163,-0.044,4.457,0
-0.312,-0.705,5.139,0
-0.503,-0.991,5.353,0
-0.883,-1.216,5.064,0
-1.131,-1.167,4.085,0
-1.059,-0.916,1.872,0
-0.953,-0.719,0.699,0
-0.827,-0.511,-0.942,0
-0.83,-0.617,-1.581,0
-0.995,-0.797,-2.299,0
-0.928,-0.876,-2.467,0
-0.791,-1.018,-1.916,0
-0.674,-1.123,-1.04,0
-0.45,-1.135,0.099,0
-0.404,-1.102,0.273,0
-0.372,-1.065,-0.207,0
-0.321,-0.924,-0.835,0
-0.141,-0.636,-1.748,0
-0.055,-0.422,-2.179,0
-0.104,-0.286,-2.581,0
-0.223,-0.23,-2.75,0
-0.374,-0.12,-2.631,0
-0.358,-0.061,-2.392,0
-0.34,-0.044,-2.054,0
-0.426,-0.013,-1.778,0
-0.47,0.084,-1.291,0
-0.456,0.186,-1.084,0
-0.487,0.224,-1.37,0
-0.56,0.239,-1.775,0
-0.474,0.183,-2.287,0
-0.283,0.217,-2.303,0
-0.199,0.227,-1.757,0
-0.196,0.092,-1.292,0
-0.372,-0.123,-0.354,0
-0.468,-0.16,0.055,0
-0.577,-0.124,0.472,0
-0.515,-0.134,0.723,0
-0.516,-0.148,0.728,0
-0.387,0.191,0.325,0
-0.348,0.454,-0.471,0
-0.373,0.525,-0.931,0
-0.412,0.643,-0.98,0
-0.51,0.664,-0.596,0
-0.655,0.427,0.509,0
-0.75,0.164,1.101,0
-0.795,-0.215,2.097,0
-0.76,-0.512,2.812,0
-0.775,-0.486,3.579,0
-1.202,0.07,3.503,1
-1.506,0.643,1.518,0
-1.35,0.651,0.273,0
-0.698,0.908,-1.2,0
-0.074,0.979,-1.719,0
0.247,1.283,-0.63,0
0.618,0.625,1.201,0
0.735,-0.618,4.263,0
0.319,-1.069,6.082,0
-0.488,-1.804,8.167,0
-1.261,-2.05,8.119,0
-1.753,-1.892,4.876,0
-1.448,-1.478,2.465,0
-0.941,-0.592,-1.039,0
-0.82,-0.371,-2.552,0
-0.76,-0.191,-3.675,0
-0.694,-0.062,-3.412,0
-0.61,-0.166,-1.731,0
-0.258,-0.407,-0.166,0
-0.043,-0.811,1.561,0
-0.179,-1.127,2.215,0
-0.547,-1.552,2.424,0
-0.599,-1.635,1.788,0
-0.488,-1.591,0.21,0
-0.273,-1.397,-0.823,0
-0.185,-1.202,-2.158,0
-0.233,-1.058,-2.716,0
-0.298,-0.864,-3.173,0
-0.266,-0.734,-3.521,0
-0.321,-0.514,-3.255,0
-0.374,-0.391,-2.779,0
-0.384,-0.224,-2.156,0
-0.342,-0.134,-1.952,0
-0.337,-0.038,-1.749,0
-0.41,-0.007,-1.609,0
-0.425,0.005,-1.599,0
-0.285,0.064,-1.713,0
-0.279,0.136,-1.175,0
-0.331,0.157,-0.78,0
-0.538,0.079,-0.337,0
-0.687,-0.112,-0.217,0
-0.788,-0.22,-0.328,0
-0.909,-0.269,-0.009,0
-0.915,-0.275,-0.007,0
-0.415,-0.246,0.346,0
-0.332,-0.124,0.478,0
-0.464,-0.255,0.66,0
-0.182,-0.166,1.717,0
-0.021,-0.136,2.325,0
0.22,-0.156,2.744,0
0.343,-0.106,2.824,0
0.535,0.047,2.517,0
0.488,0.39,2.087,0
-0.236,0.945,1.056,0
-0.247,0.929,0.201,0
0.511,1.014,-0.956,0
0.691,0.956,-1.107,1
1.01,0.537,-0.296,0
1.113,0.071,0.795,0
0.28,-0.68,2.788,0
-0.347,-1.103,3.807,0
-0.398,-1.237,4.384,0
-0.36,-1.122,4.175,0
-0.323,-1.073,4.154,0
0.357,-0.377,2.086,0
0.484,-0.074,0.691,0
0.401,-0.129,0.253,0
0.112,-0.372,0.094,0
0.016,-0.592,0.192,0
0.033,-0.829,0.685,0
0.101,-0.962,0.984,0
0.212,-1.038,1.06,0
0.367,-0.952,0.845,0
0.583,-0.716,0.454,0
0.699,-0.564,0.115,0
0.836,-0.306,-0.557,0
0.811,-0.161,-1.036,0
0.696,-0.045,-1.678,0
0.562,0.052,-1.944,0
0.309,0.094,-2.215,0
0.162,0.071,-2.267,0
-0.115,-0.013,-2.261,0
-0.294,-0.06,-2.306,0
-0.478,-0.076,-2.302,0
-0.56,-0.079,-2.254,0
-0.495,0.155,-2,0
-0.287,0.335,-1.784,0
-0.018,0.502,-1.51,0
0.113,0.619,-1.33,0
0.1,0.609,-1.176,0
-0.013,0.433,-1.132,0
-0.235,0.185,-1.034,0
-0.265,0.004,-0.857,0
-0.249,-0.01,-0.852,0
-0.379,-0.459,-0.419,0
-0.379,-0.504,-0.449,0
-0.355,-0.527,-0.441,0
-0.282,-0.523,-0.708,0
0.148,-0.157,-1.217,0
0.531,0.07,-0.634,0
0.481,0.162,0.134,0
0.326,0.173,0.916,0
0.106,0.069,1.3,0
-0.101,-0.045,1.886,0
0.026,-0.161,2.207,0
0.249,-0.337,2.486,0
0.183,-0.199,2.663,0
-0.262,0.539,2.346,0
-0.308,0.944,1.307,0
-0.117,1.066,0.126,0
0.086,1.209,-0.209,1
0.087,1.187,-0.2,0
0.66,1.199,0.506,0
0.984,0.418,2.444,0
0.842,-0.373,4.163,0
0.201,-1.454,6.401,0
-0.437,-1.904,7.506,0
-1.364,-2.428,7.4,0
-1.556,-2.247,5.669,0
-1.311,-1.81,1.886,0
-1.267,-1.475,-0.346,0
-0.947,-0.978,-3.089,0
-0.734,-0.742,-4.254,0
-0.605,-0.472,-4.724,0
-0.569,-0.534,-4.277,0
-0.229,-0.799,-2.686,0
0.091,-0.916,-1.329,0
0.288,-1.203,0.329,0
0.29,-1.394,0.864,0
0.188,-1.489,0.775,0
0.116,-1.413,0.119,0
0.18,-1.238,-1.279,0
0.364,-1.065,-2.22,0
0.37,-0.936,-2.824,0
0.181,-0.835,-2.732,0
0.053,-0.623,-2.131,0
-0.037,-0.433,-1.656,0
-0.152,-0.235,-1.207,0
-0.227,-0.068,-1.185,0
-0.155,0.148,-1.531,0
-0.188,0.231,-1.51,0
-0.26,0.246,-1.417,0
-0.306,0.225,-1.256,0
-0.423,0.206,-0.548,0
-0.503,0.151,-0.259,0
-0.628,0.095,-0.276,0
-0.701,0.031,-0.337,0
-0.586,0.199,-0.409,0
-0.428,0.251,-0.493,0
-0.309,0.207,0.06,0
-0.203,0.193,0.651,0
-0.206,0.2,0.648,0
0.075,0.186,1.53,0
0.06,0.309,1.981,0
0.237,0.18,2.057,0
0.414,0.183,1.744,0
0.404,0.238,1.567,0
0.373,0.104,1.198,0
0.353,0.095,1.052,0
0.359,0.058,1.065,0
-0.26,0.678,0.546,0
-0.707,1.097,-0.109,0
-0.353,0.973,-0.351,1
0.45,0.971,-0.479,0
0.777,1.055,-0.208,0
1.163,0.755,1.273,0
1.139,0.78,1.264,0
0.312,-0.236,4.102,0
0.049,-0.386,4.339,0
-0.196,-0.73,3.913,0
-0.221,-0.792,3.513,0
-0.196,-0.588,3.046,0
-0.275,-0.501,2.759,0
-0.415,-0.509,2.138,0
-0.349,-0.675,1.756,0
-0.368,-0.772,0.808,0
-0.419,-0.824,0.204,0
-0.24,-1.012,-0.649,0
-0.062,-1.139,-1.058,0
0.026,-1.164,-1.344,0
0.099,-1.175,-1.269,0
0.118,-1.164,-1.273,0
0.214,-1.074,-0.961,0
0.103,-0.997,-1.163,0
0.03,-0.963,-1.359,0
-0.149,-0.873,-1.863,0
-0.284,-0.816,-2.206,0
-0.292,-0.624,-2.458,0
-0.222,-0.474,-2.417,0
0,-0.238,-2.514,0
0.114,-0.135,-2.557,0
0.037,0.018,-2.077,0
-0.043,0.078,-1.734,0
-0.176,0.054,-1.245,0
-0.34,0.007,-1.114,0
-0.463,0.065,-1.011,0
-0.519,0.026,-0.951,0
-0.512,0.022,-0.95,0
-0.468,0.062,-1.104,0
-0.219,0.224,-1.572,0
-0.104,0.235,-1.575,0
-0.058,0.219,-1.038,0
0.022,0.252,-0.51,0
-0.023,0.126,0.566,0
-0.258,0.047,1.033,0
-0.45,-0.032,1.218,0
-0.582,-0.065,1.163,0
-0.574,-0.05,0.893,0
-0.507,0.02,0.712,0
-0.585,0.025,0.872,0
-0.517,0.016,1.329,0
-0.342,0.007,2.199,0
-0.374,-0.102,2.355,0
-0.591,-0.029,1.802,0
-1.161,0.299,1.008,0
-1.785,0.603,-0.77,0
-1.448,0.59,-1.475,1
-1.425,0.56,-1.462,0
-0.155,0.967,-0.855,0
0.766,0.898,1.449,0
0.956,0.531,2.756,0
1.533,-0.166,5.199,0
1.459,-0.476,6.398,0
0.539,-1.403,7.958,0
-0.351,-1.741,8.004,0
-1.429,-1.847,5.453,0
-1.408,-1.65,3.36,0
-1.317,-1.092,-0.022,0
-1.141,-0.816,-1.6,0
-0.631,-0.251,-3.549,0
-0.595,-0.27,-3.542,0
0.171,0.333,-3.107,0
0.612,0.185,-2.144,0
0.763,-0.274,-0.622,0
0.415,-0.703,0.141,0
-0.049,-1.429,0.674,0
-0.223,-1.53,0.679,0
-0.478,-1.633,0.133,0
-0.525,-1.703,-0.57,0
-0.388,-1.608,-2.066,0
-0.373,-1.61,-2.066,0
-0.182,-1.433,-2.744,0
-0.031,-0.967,-3.191,0
0.184,-0.762,-2.837,0
0.131,-0.542,-2.581,0
-0.099,-0.418,-2.259,0
-0.224,-0.353,-2.095,0
-0.409,-0.217,-2.191,0
-0.497,-0.158,-2.321,0
-0.46,0.019,-2.386,0
-0.453,0.099,-2.276,0
-0.363,0.181,-1.688,0
-0.329,0.26,-1.203,0
-0.462,0.205,-0.339,0
-0.553,0.132,0.045,0
-0.548,0.191,0.487,0
-0.423,0.206,0.7,0
-0.139,0.151,1.16,0
0.03,0.184,1.488,0
0.31,0.265,2.004,0
0.38,0.416,2.168,0
0.396,0.627,2.184,0
0.361,0.615,1.911,0
0.172,0.515,1.509,0
0.109,0.447,1.424,0
0.09,0.361,1.388,0
0.114,0.388,1.298,0
-0.151,0.841,0.983,0
-0.517,1.091,0.517,0
-0.493,1.028,-0.397,0
-0.193,0.912,-0.723,1
0.251,0.949,-0.305,0
0.503,0.767,0.552,0
0.742,0.322,2.524,0
0.488,0.282,3.5,0
0.246,0.012,4.511,0
0.249,0.056,4.495,0
-0.52,-0.411,3.737,0
-0.969,-0.638,3.149,0
-1.244,-0.897,2.278,0
-1.218,-0.892,1.852,0
-1.149,-1.069,0.976,0
-0.994,-1.09,0.338,0
-0.64,-1.105,-0.868,0
-0.414,-1.168,-1.068,0
0.005,-1.255,-0.727,0
0.103,-1.346,-0.326,0
0.177,-1.468,0.317,0
0.159,-1.493,0.619,0
-0.129,-1.67,0.706,0
-0.336,-1.698,0.435,0
-0.49,-1.66,-0.551,0
-0.451,-1.493,-1.259,0
-0.141,-0.968,-2.243,0
0.127,-0.625,-2.547,0
0.511,-0.176,-2.804,0
0.6,0.1,-2.962,0
0.407,0.319,-2.801,0
0.115,0.254,-2.624,0
-0.579,0.015,-2.119,0
-0.923,-0.075,-1.845,0
-1.351,-0.282,-1.648,0
-1.344,-0.217,-1.616,0
-0.85,0.092,-1.85,0
-0.526,0.227,-2.085,0
-0.187,0.446,-2.232,0
-0.1,0.459,-2.241,0
0.147,0.603,-1.155,0
0.132,0.608,-0.358,0
-0.132,0.378,0.506,0
-0.512,0.164,0.892,0
-1.088,-0.216,1.254,0
-1.2,-0.292,1.133,0
-1.095,-0.205,0.48,0
-0.706,-0.018,-0.03,0
-0.262,0.323,-0.093,0
-0.263,0.325,-0.006,0
-0.003,0.35,0.361,0
0.293,0.381,0.92,0
0.293,0.362,0.927,0
0.431,0.398,2.404,0
-0.454,0.737,2.068,0
-0.943,0.822,0.817,0
-1.397,0.601,-0.741,0
-1.257,0.555,-1.164,1
-0.602,0.431,-1.099,0
-0.236,0.33,0.168,0
0.334,-0.263,3.218,0
0.39,-0.855,4.974,0
0.301,-1.365,7.245,0
0.162,-1.678,7.678,0
-0.245,-1.932,6.507,0
-0.547,-1.767,4.358,0
-0.602,-1.191,0.871,0
-0.715,-0.909,-0.945,0
-0.702,-0.808,-3.423,0
-0.905,-0.707,-4.422,0
-1.076,-0.728,-5.14,0
-0.828,-0.847,-4.499,0
-0.407,-0.822,-2.448,0
-0.129,-0.832,-1.301,0
0.052,-1.258,0.707,0
0.005,-1.444,1.567,0
-0.095,-1.46,2.11,0
-0.247,-1.4,1.826,0
-0.396,-1.339,0.5,0
-0.322,-1.164,-0.603,0
-0.138,-0.924,-2.056,0
-0.021,-0.71,-2.671,0
0.218,-0.399,-2.846,0
0.351,-0.222,-2.668,0
0.348,0.048,-1.983,0
0.247,0.107,-1.542,0
0.012,0.116,-0.986,0
-0.155,0.053,-0.818,0
-0.559,-0.046,-0.958,0
-0.684,-0.012,-0.977,0
-0.739,0.103,-0.758,0
-0.638,0.199,-0.694,0
-0.68,0.243,-0.384,0
-0.764,0.176,-0.1,0
-0.785,0.158,0.499,0
-0.738,0.219,0.739,0
-0.614,0.186,1.106,0
-0.471,0.265,1.314,0
-0.465,0.273,1.311,0
-0.184,0.442,1.755,0
-0.199,0.322,1.905,0
-0.274,0.174,1.924,0
-0.502,0.048,1.822,0
-0.454,0.079,1.696,0
-0.255,0.168,1.436,0
-0.261,0.147,1.408,0
-0.49,0.453,1.556,0
-0.884,0.867,1.598,1
-1.349,1.242,0.783,0
-0.833,1.213,0.004,0
0.158,1.261,-0.825,0
0.703,1.233,-0.849,0
1.5,0.698,0.899,0
1.536,0.46,2.47,0
0.8,-0.294,4.977,0
0.497,-0.778,6.012,0
-0.338,-1.456,6.168,0
-0.9,-1.685,5.604,0
-1.217,-1.719,4.009,0
-1.267,-1.768,2.864,0
-1.211,-1.789,2.867,0
-1.028,-1.4,-0.046,0
-0.733,-1.411,-1.17,0
-0.433,-1.398,-1.57,0
-0.015,-1.364,-1.611,0
0.195,-1.292,-1.182,0
0.465,-1.225,-0.169,0
0.399,-1.238,0.289,0
0.162,-1.297,0.336,0
-0.047,-1.301,-0.011,0
-0.259,-1.256,-0.9,0
-0.237,-1.107,-1.442,0
-0.11,-0.778,-2.051,0
-0.083,-0.667,-2.278,0
0.11,-0.463,-2.341,0
0.073,-0.366,-2.489,0
-0.001,-0.306,-2.394,0
-0.117,-0.331,-2.088,0
-0.226,-0.292,-1.489,0
-0.173,-0.238,-1.267,0
-0.056,-0.086,-1.39,0
0.04,0.032,-1.654,0
0.272,0.158,-2.141,0
0.275,0.169,-2.168,0
0.191,0.127,-1.989,0
0.12,0.045,-1.731,0
-0.02,0.039,-1.053,0
-0.067,0.002,-0.654,0
-0.063,0.001,-0.653,0
-0.138,-0.033,0.379,0
0.002,0.127,0.618,0
-0.14,0.199,0.505,0
-0.134,0.168,0.515,0
-0.468,0.131,0.086,0
-0.338,0.375,0.421,0
-0.272,0.433,0.927,0
-0.233,0.394,1.669,0
-0.316,0.267,1.928,0
-0.451,0.032,2.448,0
-0.337,-0.078,2.753,0
-0.766,0.38,3.006,0
-1.287,0.836,2.173,0
-1.477,0.851,0.029,0
-1.048,0.94,-1.145,1
-0.425,1.069,-1.959,0
0.181,1.004,-1.721,0
0.876,0.615,0.634,0
0.999,0.129,2.199,0
0.773,-1.036,4.893,0
0.096,-1.737,6.427,0
-1.098,-2.185,7.393,0
-1.569,-2.171,6.441,0
-1.62,-1.829,2.913,0
-1.355,-1.307,0.631,0
-1.229,-0.813,-2.38,0
-1.137,-0.669,-3.562,0
-1.11,-0.321,-4.299,0
-0.965,-0.158,-4.094,0
-0.308,-0.132,-2.537,0
0.075,-0.244,-1.503,0
0.387,-0.439,-0.294,0
0.304,-0.676,0.122,0
0.021,-1.191,0.163,0
-0.193,-1.365,-0.137,0
-0.456,-1.454,-0.959,0
-0.432,-1.381,-1.442,0
-0.31,-1.197,-2.057,0
-0.191,-0.963,-2.423,0
-0.083,-0.573,-2.401,0
0.066,-0.381,-2.134,0
0.206,0.009,-1.783,0
0.024,0.096,-1.602,0
-0.407,0.007,-1.548,0
-0.642,-0.089,-1.511,0
-0.856,-0.278,-1.392,0
-0.953,-0.316,-1.223,0
-0.931,-0.301,-0.515,0
-0.878,-0.297,-0.087,0
-0.697,-0.099,0.338,0
-0.633,-0.032,0.437,0
-0.579,0.051,0.589,0
-0.375,0.127,0.59,0
-0.317,0.156,0.733,0
-0.463,0.043,0.813,0
-0.753,-0.231,1.125,0
-1.081,-0.319,1.344,0
-1.338,-0.284,1.244,0
-1.113,-0.117,1.149,0
-0.653,0.359,0.987,0
-0.405,0.552,0.961,0
-0.384,0.542,0.963,0
-0.185,0.814,1.288,0
-0.281,1.281,1.722,0
-0.487,1.61,1.512,0
-0.119,1.603,0.206,0
0.239,1.493,-0.198,1
0.482,1.238,0.303,0
0.611,0.782,1.505,0
0.799,-0.075,3.613,0
0.151,-0.44,4.908,0
-0.459,-0.988,6.855,0
-0.489,-1.295,7.32,0
-0.62,-1.309,6.332,0
-0.829,-1.151,4.826,0
-0.867,-1.131,2.271,0
-0.745,-0.924,0.658,0
-0.799,-0.758,-1.315,0
-0.619,-0.968,-2.066,0
-0.325,-1.061,-2.807,0
-0.209,-1.08,-2.907,0
0.05,-1.275,-2.005,0
0.307,-1.326,-0.812,0
0.514,-1.446,0.927,0
0.467,-1.55,1.403,0
0.08,-1.834,1.695,0
-0.112,-1.885,1.411,0
-0.08,-1.7,0.171,0
-0.002,-1.521,-0.86,0
0.05,-1.229,-2.173,0
0.102,-1.075,-2.935,0
0.04,-0.89,-3.972,0
0.003,-0.763,-4.491,0
-0.081,-0.544,-4.372,0
-0.085,-0.445,-3.899,0
-0.033,-0.354,-2.912,0
-0.09,-0.305,-2.256,0
-0.108,-0.207,-1.349,0
-0.107,-0.245,-1.044,0
-0.18,-0.118,-1.128,0
-0.316,-0.11,-1.34,0
-0.428,-0.095,-1.508,0
-0.51,-0.076,-1.441,0
-0.461,-0.013,-1.079,0
-0.431,0.064,-0.791,0
-0.315,0.158,-0.072,0
-0.308,0.171,-0.076,0
-0.025,0.364,0.728,0
-0.002,0.429,1.062,0
-0.014,0.418,1.066,0
-0.143,0.562,1.435,0
-0.122,0.743,0.821,0
-0.196,0.841,0.73,0
-0.193,0.887,1.003,0
-0.166,0.812,1.278,0
-0.126,0.62,1.698,0
-0.067,0.608,1.865,0
-0.178,1.035,2.157,0
-0.446,1.457,1.883,1
-0.559,1.8,-0.013,0
-0.403,1.751,-0.998,0
0.032,1.785,-2.293,0
0.187,1.727,-2.386,0
0.488,1.048,-0.297,0
0.897,0.408,1.536,0
0.604,-0.903,5.089,0
-0.011,-1.599,6.998,0
-0.666,-2.429,8.944,0
-1.014,-2.531,8.48,0
-1.027,-2.038,4.698,0
-0.753,-1.605,2.176,0
-0.273,-0.716,-1.547,0
0.038,-0.52,-3.238,0
-0.048,-0.324,-4.805,0
-0.27,-0.178,-4.894,0
-0.697,-0.284,-3.287,0
-0.618,-0.543,-1.566,0
-0.233,-0.766,-0.035,0
-0.334,-1.001,0.564,0
-0.385,-1.201,0.795,0
-0.314,-1.185,0.618,0
-0.25,-1.121,0.185,0
-0.202,-0.985,-0.275,0
-0.297,-0.8,-1.065,0
-0.368,-0.704,-1.538,0
-0.516,-0.624,-1.982,0
-0.485,-0.549,-2.233,0
-0.48,-0.354,-2.437,0
-0.431,-0.257,-2.458,0
-0.45,-0.169,-2.115,0
-0.548,-0.201,-1.747,0
-0.549,-0.198,-1.748,0
-0.824,-0.258,-0.908,0
-0.722,-0.292,-0.555,0
-0.617,-0.285,-0.4,0
-0.57,-0.224,-0.341,0
-0.541,-0.152,-0.343,0
-0.51,-0.11,-0.286,0
-0.464,-0.059,-0.03,0
-0.365,-0.034,0.656,0
-0.285,0.05,1.184,0
-0.324,0.119,1.93,0
-0.414,0.1,2.249,0
-0.464,0.242,2.089,0
-0.44,0.32,1.45,0
-0.501,0.353,0.91,0
-0.445,0.245,0.852,0
-0.183,0.135,1.103,0
-0.182,0.132,1.258,0
-0.238,0.304,1.205,0
-0.583,0.65,0.839,0
-0.743,1.166,-0.736,0
-0.112,1.186,-1.356,0
1.232,1.241,-1.607,0
1.59,1.267,-0.969,1
1.72,0.44,2.085,0
1.383,-0.084,3.867,0
-0.171,-0.765,6.396,0
-0.76,-1.147,6.835,0
-1.114,-1.654,5.856,0
-1.151,-1.525,4.619,0
-0.94,-1.146,2.221,0
-0.735,-0.784,0.858,0
-0.648,-0.52,-0.411,0
-0.572,-0.535,-1.057,0
-0.415,-0.542,-1.744,0
-0.239,-0.508,-1.878,0
0.391,-0.445,-1.36,0
0.766,-0.504,-0.844,0
0.905,-0.569,0.025,0
0.81,-0.695,0.474,0
0.399,-1.121,0.818,0
0.124,-1.272,0.573,0
-0.321,-1.495,-0.269,0
-0.46,-1.503,-0.888,0
-0.618,-1.362,-1.681,0
-0.382,-1.076,-2.209,0
-0.044,-0.627,-2.638,0
0.156,-0.413,-2.718,0
0.366,-0.189,-2.275,0
0.398,-0.078,-2.007,0
0.178,-0.114,-1.704,0
-0.089,-0.227,-1.297,0
-0.39,-0.392,-0.841,0
-0.475,-0.444,-0.835,0
-0.304,-0.337,-1.194,0
-0.083,-0.242,-1.331,0
0.202,-0.129,-1.283,0
0.364,-0.072,-1.06,0
0.281,0.01,-0.115,0
0.027,-0.089,0.369,0
-0.22,-0.143,0.587,0
-0.3,-0.094,0.512,0
-0.108,0.104,0.087,0
0.007,0.282,-0.237,0
-0.079,0.305,-0.5,0
-0.005,0.326,-0.378,0
0.14,0.571,0.311,0
0.214,0.563,0.546,0
0.007,0.447,1.055,0
0.003,0.339,1.355,0
0.084,0.168,1.919,0
0.16,0.019,2.176,0
-0.148,0.075,2.38,0
-0.661,0.313,2.01,0
-0.647,0.279,2.025,0
-0.757,0.694,-0.685,1
-0.319,0.914,-1.728,0
0.043,0.957,-1.53,0
0.563,0.777,-0.251,0
0.777,0.528,1.009,0
0.677,-0.382,3.302,0
0.495,-0.946,4.516,0
-0.179,-1.543,5.97,0
-0.632,-1.692,6.062,0
-0.629,-1.644,6.041,0
-1.008,-1.322,1.698,0
-0.731,-0.73,-1.262,0
-0.6,-0.675,-2.596,0
-0.414,-0.421,-3.783,0
-0.34,-0.218,-3.731,0
-0.178,-0.21,-2.311,0
-0.009,-0.32,-1.235,0
0.217,-0.592,0.083,0
0.108,-0.834,0.524,0
-0.004,-1.01,0.469,0
-0.052,-0.975,0.093,0
0.146,-0.834,-0.846,0
0.303,-0.727,-1.44,0
0.334,-0.62,-2.034,0
0.201,-0.684,-2.055,0
0.203,-0.665,-2.063,0
-0.299,-0.908,-1.473,0
-0.498,-0.969,-1.133,0
-0.479,-0.862,-1.102,0
-0.364,-0.553,-1.123,0
-0.214,-0.392,-1.351,0
-0.179,-0.148,-1.527,0
-0.266,-0.098,-1.576,0
-0.387,-0.013,-1.313,0
-0.389,-0.031,-0.961,0
-0.379,0.018,-0.284,0
-0.354,0.055,0.013,0
-0.232,0.173,0.122,0
-0.145,0.201,0.131,0
0.19,0.338,-0.012,0
0.345,0.383,0.043,0
0.223,0.237,0.722,0
0.114,0.138,1.104,0
-0.07,0.116,1.857,0
-0.25,0.174,1.979,0
-0.372,0.227,1.659,0
-0.348,0.277,1.258,0
-0.106,0.405,0.513,0
-0.019,0.481,0.315,0
0.092,0.493,0.629,0
0.123,0.548,0.965,0
-0.148,0.902,1.035,0
-0.314,0.9,0.364,0
-0.121,0.606,-0.995,0
0.053,0.406,-1.181,1
0.157,0.136,0.074,0
0.255,-0.162,1.375,0
0.199,-0.538,3.158,0
-0.27,-0.692,3.863,0
-0.318,-0.742,4.213,0
-0.275,-0.757,3.965,0
-0.14,-0.734,2.62,0
-0.13,-0.492,1.763,0
-0.128,-0.18,0.445,0
-0.089,-0.133,-0.255,0
0.022,-0.084,-0.899,0
0.119,-0.165,-0.983,0
0.277,-0.271,-0.79,0
0.191,-0.384,-0.617,0
0.107,-0.746,-0.316,0
0.134,-0.906,-0.209,0
0.109,-1.06,-0.361,0
0.15,-1.12,-0.547,0
0.523,-0.966,-0.544,0
0.651,-0.872,-0.344,0
0.462,-0.894,0.045,0
0.3,-0.891,0.047,0
0.081,-0.833,-0.151,0
-0.03,-0.765,-0.422,0
-0.236,-0.713,-1.137,0
-0.318,-0.683,-1.576,0
-0.415,-0.579,-2.11,0
-0.263,-0.426,-2.181,0
-0.256,-0.429,-2.18,0
0.336,0.047,-1.712,0
0.352,0.316,-1.237,0
0.239,0.268,-0.814,0
-0.055,0.126,-0.3,0
-0.153,0.081,-0.162,0
-0.137,0.015,-0.245,0
-0.101,0.002,-0.403,0
0.169,0.089,-0.619,0
0.31,0.072,-0.693,0
0.648,0.273,-0.541,0
0.819,0.356,-0.132,0
0.734,0.362,0.377,0
0.598,0.28,0.559,0
0.407,0.171,0.666,0
0.323,0.078,0.715,0
0.265,0.067,0.661,0
0.162,0.132,0.64,0
0.165,0.233,0.757,0
0.253,0.31,0.868,0
0.243,0.47,0.868,0
0.302,0.546,0.832,0
0.139,0.9,0.414,0
-0.042,1.125,-0.202,0
0.146,1.235,-1.454,0
0.282,1.275,-2.001,1
0.525,1.173,-2.176,0
0.664,0.941,-1.654,0
0.473,0.104,0.897,0
0.41,-0.355,2.58,0
-0.232,-1.16,5.007,0
-0.487,-1.573,6.285,0
-0.771,-1.923,7.264,0
-1.092,-1.979,6.692,0
-0.985,-1.393,3.456,0
-0.808,-1,1.47,0
-0.641,-0.679,-1.396,0
-0.492,-0.567,-2.71,0
-0.25,-0.215,-3.697,0
-0.107,-0.017,-3.213,0
-0.144,0,-3.217,0
0.074,-0.1,0.655,0
-0.121,-0.559,2.057,0
-0.176,-0.836,2.356,0
-0.296,-0.996,1.853,0
-0.398,-1.021,1.223,0
-0.311,-0.973,0.02,0
-0.292,-0.924,-0.578,0
-0.377,-0.844,-1.134,0
-0.499,-0.846,-1.355,0
-0.688,-0.857,-1.287,0
-0.626,-0.77,-1.29,0
-0.355,-0.549,-1.275,0
-0.186,-0.37,-1.238,0
-0.183,-0.375,-1.237,0
-0.349,-0.149,-1.367,0
-0.477,-0.131,-1.45,0
-0.527,-0.111,-1.576,0
-0.822,-0.11,-1.715,0
-0.838,-0.059,-1.606,0
-0.532,0.164,-1.3,0
-0.15,0.359,-1.296,0
0.036,0.5,-0.954,0
0.042,0.531,-0.706,0
0.034,0.379,-0.501,0
-0.063,0.31,-0.119,0
0.043,0.338,0.483,0
0.109,0.341,0.745,0
0.176,0.293,0.986,0
0.213,0.293,0.99,0
0.201,0.271,0.999,0
0.225,0.38,1.325,0
0.396,0.401,1.181,0
0.38,0.396,1.321,0
0.398,0.514,1.538,0
0.361,0.625,1.455,0
-0.09,1.066,0.585,0
-0.017,1.12,-0.299,0
0.432,1.036,-1.613,0
0.549,0.942,-1.75,0
0.666,0.506,-0.778,0
0.496,-0.091,0.898,1
0.186,-0.829,3.134,0
-0.417,-1.059,4.346,0
-0.861,-1.345,4.842,0
-0.911,-1.331,4.288,0
-0.861,-1.028,2.468,0
-0.66,-0.64,1.292,0
-0.522,-0.318,0.061,0
-0.505,-0.258,-0.447,0
-0.47,-0.244,-0.454,0
-0.749,-0.498,0.122,0
-0.751,-0.638,0.682,0
-0.637,-0.768,0.887,0
-0.402,-0.86,0.885,0
-0.307,-0.84,0.587,0
-0.293,-0.829,0.583,0
0.399,-0.599,-0.814,0
0.605,-0.461,-1.356,0
0.547,-0.519,-1.315,0
0.549,-0.52,-1.315,0
-0.203,-0.747,-0.524,0
-0.504,-0.797,-0.247,0
-0.559,-0.723,-0.392,0
-0.496,-0.534,-0.894,0
-0.407,-0.355,-1.161,0
-0.157,-0.015,-1.558,0
-0.021,0.069,-1.709,0
0.261,0.226,-1.89,0
0.277,0.335,-1.993,0
0.055,0.253,-1.79,0
-0.108,0.2,-1.491,0
-0.308,0.182,-0.95,0
-0.328,0.117,-0.826,0
-0.307,0.158,-0.914,0
-0.253,0.228,-1.046,0
-0.094,0.308,-1.165,0
0.139,0.419,-1.274,0
0.359,0.545,-1.132,0
0.469,0.585,-0.878,0
0.419,0.616,-0.263,0
0.239,0.505,0.075,0
-0.115,0.236,0.395,0
-0.376,0.152,0.56,0
-0.545,0.058,0.753,0
-0.431,-0.016,0.942,0
-0.22,0.024,1.14,0
-0.059,-0.041,1.3,0
0.165,0.082,1.48,0
0.211,0.398,1.512,0
-0.069,1.083,0.792,0
-0.235,1.236,-0.157,0
-0.296,1.187,-1.589,0
-0.272,1.167,-1.582,0
-0.3,0.634,-1.928,0
-0.213,0.168,-0.701,1
0.103,-0.536,1.929,0
0.109,-0.969,3.776,0
-0.26,-1.539,5.867,0
-0.409,-1.579,6.41,0
-0.525,-1.22,5.08,0
-0.469,-0.923,2.823,0
-0.316,-0.328,-0.306,0
-0.172,-0.013,-1.931,0
-0.338,-0.084,-3.411,0
-0.65,-0.047,-3.543,0
-0.992,-0.186,-2.15,0
-0.934,-0.353,-0.873,0
-0.492,-0.532,0.737,0
-0.357,-0.605,1.265,0
-0.118,-0.731,2.024,0
0.099,-0.704,1.842,0
0.101,-0.649,1.009,0
0.089,-0.652,0.09,0
0.081,-0.548,-0.931,0
-0.088,-0.503,-1.376,0
-0.338,-0.559,-1.537,0
-0.398,-0.524,-1.603,0
-0.427,-0.424,-1.917,0
-0.485,-0.449,-2.009,0
-0.427,-0.237,-1.656,0
-0.338,-0.057,-1.422,0
-0.202,0.193,-1.467,0
-0.015,0.295,-1.391,0
-0.186,0.362,-1.118,0
-0.307,0.327,-0.988,0
-0.426,0.243,-1.056,0
-0.439,0.191,-1.322,0
-0.417,0.042,-1.542,0
-0.509,-0.017,-1.153,0
-0.453,-0.075,-0.644,0
-0.367,-0.062,-0.428,0
-0.377,-0.066,-0.426,0
-0.336,0.033,0.835,0
-0.393,0.075,1.118,0
-0.445,0.137,1.155,0
-0.476,0.236,1.164,0
-0.424,0.209,1.071,0
-0.311,0.33,0.725,0
-0.308,0.318,0.51,0
-0.286,0.332,0.78,0
-0.298,0.409,1.034,0
-0.564,0.874,0.987,0
-0.412,1.141,0.651,0
0.335,1.253,-0.24,0
0.582,1.333,-0.63,0
0.805,1.31,-0.496,0
0.706,0.88,0.154,0
0.708,0.936,0.134,1
-0.38,-0.388,3.323,0
-0.927,-0.831,4.231,0
-1.172,-1.041,4.603,0
-1.137,-1.051,4.731,0
-0.967,-0.884,4.294,0
-0.763,-0.412,2.749,0
-0.683,-0.19,1.768,0
-0.574,-0.048,0.665,0
-0.484,0.046,0.124,0
-0.223,0,-0.38,0
-0.002,-0.02,-0.582,0
0.306,-0.068,-0.524,0
0.615,-0.127,-0.42,0
1.066,-0.298,-0.372,0
1.197,-0.356,-0.365,0
1.207,-0.354,-0.365,0
0.989,-0.799,-0.189,0
0.511,-0.986,-0.632,0
0.122,-1.114,-1.341,0
-0.205,-1.124,-1.928,0
-0.236,-0.969,-2.136,0
-0.318,-0.712,-2.801,0
-0.409,-0.539,-2.852,0
-0.306,-0.181,-2.353,0
-0.243,-0.06,-1.847,0
-0.214,0.019,-1.196,0
-0.133,0.081,-0.742,0
-0.318,0.046,-0.341,0
-0.433,-0.061,-0.241,0
-0.678,-0.326,-0.312,0
-0.704,-0.345,-0.261,0
-0.524,-0.173,-0.204,0
-0.368,-0.06,-0.255,0
-0.161,0.014,-0.751,0
-0.043,0.051,-1.104,0
-0.027,0.08,-0.815,0
0.069,0.145,-0.517,0
0.157,0.197,-0.298,0
0.255,0.137,-0.474,0
0.342,0.136,-0.536,0
0.353,0.193,-0.395,0
0.468,0.251,0.235,0
0.582,0.398,0.722,0
0.555,0.58,1.065,0
0.515,0.584,1.539,0
0.768,0.61,2.192,0
1.142,0.734,2.512,0
1.23,0.95,2.729,0
1.045,1.113,2.507,0
0.68,1.429,1.355,0
0.603,1.463,0.328,0
0.455,1.583,-1.639,1
0.34,1.447,-2.72,0
0.26,0.963,-2.608,0
0.215,0.377,-1.119,0
0.353,-0.38,1.907,0
0.26,-0.747,4.234,0
-0.078,-1.257,6.892,0
-0.342,-1.39,7.476,0
-0.492,-1.279,5.655,0
-0.42,-0.899,2.978,0
-0.543,-0.418,-0.405,0
-0.478,-0.14,-2.411,0
-0.354,-0.007,-4.376,0
-0.527,0.112,-4.806,0
-0.836,0.142,-3.694,0
-0.609,0.058,-2.229,0
-0.061,-0.016,-0.1,0
-0.112,-0.308,1.067,0
-0.221,-0.76,1.818,0
-0.313,-0.963,1.852,0
-0.562,-1.269,1.252,0
-0.625,-1.413,0.659,0
-0.663,-1.403,-0.44,0
-0.579,-1.233,-1.115,0
-0.458,-1.076,-1.995,0
-0.487,-0.966,-2.525,0
-0.559,-0.827,-2.929,0
-0.552,-0.705,-2.833,0
-0.406,-0.487,-2.355,0
-0.398,-0.357,-1.869,0
-0.394,-0.241,-1.305,0
-0.356,-0.132,-1.206,0
-0.433,-0.251,-1.068,0
-0.463,-0.279,-0.987,0
-0.37,-0.2,-0.951,0
-0.246,-0.184,-1.04,0
-0.048,-0.023,-1.066,0
0.023,0.12,-0.918,0
0.198,0.195,-0.621,0
0.163,0.132,-0.223,0
0.035,0.078,0.399,0
0.017,-0.018,0.718,0
-0.097,-0.108,1.297,0
-0.256,-0.181,1.747,0
-0.327,-0.067,1.842,0
-0.317,0.026,1.276,0
-0.308,0.007,1.282,0
0.034,0.287,0.06,0
0.236,0.461,0.279,0
0.154,0.602,0.59,0
0.134,1.031,0.877,0
0.422,1.127,0.577,0
0.871,1.284,-0.527,0
0.912,1.246,-1.053,0
0.911,1.256,-1.057,1
0.524,0.419,0.392,0
0.139,-0.177,2.702,0
-0.199,-0.449,3.716,0
-0.689,-0.844,5.02,0
-0.787,-1.01,5.632,0
-0.759,-0.95,5.68,0
-0.623,-0.694,5.048,0
-0.284,-0.404,3.01,0
-0.08,-0.163,1.438,0
-0.058,-0.184,1.442,0
-0.06,-0.183,-0.593,0
-0.083,-0.266,-1.035,0
-0.027,-0.334,-1.164,0
0.215,-0.473,-0.884,0
0.413,-0.47,-0.759,0
0.802,-0.372,-0.591,0
1.017,-0.339,-0.425,0
1.02,-0.337,-0.426,0
0.783,-0.544,-0.531,0
0.551,-0.688,-0.987,0
0.553,-0.655,-1.365,0
0.464,-0.657,-1.895,0
0.299,-0.651,-2.085,0
-0.038,-0.719,-2.098,0
-0.099,-0.758,-1.882,0
-0.07,-0.493,-1.44,0
0.024,-0.33,-1.341,0
0.01,-0.346,-1.335,0
0.286,0.026,-1.473,0
0.2,0.065,-1.443,0
0.197,0.059,-1.573,0
0.352,0.197,-1.503,0
0.439,0.252,-1.349,0
0.511,0.282,-1.195,0
0.543,0.221,-1.228,0
0.202,0.011,-0.933,0
0.277,0.002,-0.608,0
0.318,0.076,-0.508,0
0.326,0.024,-0.701,0
0.425,0.021,-0.784,0
0.36,-0.026,-0.593,0
0.324,-0.011,-0.447,0
0.359,0.044,-0.198,0
0.25,0.15,0.31,0
0.192,0.231,0.63,0
0.198,0.313,1.064,0
0.174,0.44,1.256,0
0.018,0.448,1.239,0
-0.069,0.492,1.201,0
-0.377,0.813,1.171,0
-0.497,1.017,1.016,0
-0.406,1.195,0.06,0
-0.351,1.286,-0.472,0
-0.169,1.247,-1.104,0
-0.064,0.963,-0.849,0
0.069,0.236,1.153,1
0.354,0.01,2.737,0
0.109,-0.545,5.093,0
-0.298,-1,5.879,0
-0.979,-1.555,6.119,0
-1.192,-1.65,5.039,0
-1.272,-1.266,2.034,0
-1.312,-1.113,-0.095,0
-1.156,-0.755,-2.375,0
-0.88,-0.494,-3.314,0
-0.696,-0.158,-2.933,0
-0.554,0.023,-1.965,0
-0.301,0.08,-0.072,0
-0.247,-0.02,0.644,0
-0.373,-0.416,1.438,0
-0.382,-0.57,1.624,0
-0.322,-0.679,1.809,0
-0.151,-0.665,1.709,0
0.061,-0.535,1.358,0
0.097,-0.483,0.786,0
0.033,-0.469,-0.347,0
0.031,-0.421,-1.121,0
0.028,-0.305,-2.085,0
-0.006,-0.268,-2.302,0
-0.025,-0.205,-2.216,0
0.001,-0.112,-2.047,0
0.131,-0.018,-1.931,0
0.302,0.096,-1.868,0
0.595,0.299,-1.56,0
0.696,0.402,-1.31,0
0.612,0.325,-0.986,0
0.454,0.184,-0.816,0
0.474,0.171,-0.814,0
-0.113,-0.204,-0.792,0
-0.094,-0.221,-0.788,0
-0.282,-0.32,-0.709,0
-0.399,-0.382,-0.545,0
-0.409,-0.427,-0.272,0
-0.314,-0.317,0.378,0
-0.218,-0.164,0.675,0
-0.055,0.19,0.81,0
0.039,0.333,0.591,0
0.353,0.564,-0.095,0
0.574,0.648,-0.289,0
0.723,0.535,0.103,0
0.735,0.419,0.838,0
0.626,0.358,1.508,0
0.624,0.549,1.845,0
0.584,1.201,1.596,0
0.68,1.44,0.714,0
1.114,1.324,-0.631,0
1.398,1.263,-0.94,1
1.487,1.088,0.011,0
1.206,0.613,1.57,0
0.647,0.075,3.374,0
0.29,-0.239,3.82,0
-0.027,-0.759,4.198,0
-0.059,-1.091,4.685,0
-0.037,-1.203,4.958,0
-0.072,-1.056,4.775,0
0.096,-0.743,3.262,0
0.335,-0.497,1.485,0
0.441,-0.332,-0.44,0
0.689,-0.262,-1.596,0
0.972,-0.186,-2.793,0
1.202,-0.159,-3.175,0
1.468,-0.145,-2.928,0
1.573,-0.212,-2.404,0
1.473,-0.503,-1.537,0
1.368,-0.701,-1.188,0
1.126,-0.902,-0.749,0
0.747,-1.168,-0.548,0
0.202,-1.524,-0.521,0
0.064,-1.529,-0.666,0
0.225,-1.244,-1.101,0
0.634,-0.851,-1.473,0
1.041,-0.254,-1.798,0
1.056,-0.1,-2.009,0
1.107,0.191,-2.42,0
1.066,0.344,-2.498,0
0.761,0.277,-2.472,0
0.498,0.128,-2.366,0
0.363,0.039,-1.889,0
0.486,0.054,-1.423,0
0.674,0.179,-0.871,0
0.776,0.206,-0.783,0
0.87,0.131,-0.69,0
0.825,0.084,-0.436,0
0.945,0.184,0.185,0
0.995,0.167,0.412,0
0.997,0.18,0.559,0
0.942,0.144,0.537,0
0.951,0.133,0.541,0
0.828,0.152,0.39,0
0.74,0.248,0.281,0
0.603,0.221,0.48,0
0.813,0.441,1.245,0
0.991,0.683,1.611,0
1.044,0.791,1.659,0
0.988,0.779,1.484,0
0.758,0.571,1.103,0
0.617,0.51,1.136,0
0.333,0.792,1.314,0
0.252,1.035,1.082,0
0.409,1.093,-0.01,1
0.492,1.058,-0.525,0
0.448,0.963,-0.768,0
0.391,0.664,-0.237,0
0.394,-0.164,1.499,0
0.555,-0.666,2.848,0
0.582,-1.192,4.952,0
0.25,-1.467,6.066,0
-0.11,-1.815,6.649,0
-0.354,-1.679,5.713,0
-0.36,-1.13,2.381,0
-0.334,-0.891,0.279,0
-0.315,-0.666,-2.247,0
-0.301,-0.608,-3.313,0
-0.232,-0.379,-3.475,0
-0.063,-0.143,-2.664,0
0.4,0.162,-0.682,0
0.739,0.238,0.082,0
0.743,-0.095,0.82,0
0.788,-0.227,0.904,0
0.75,-0.316,0.478,0
0.646,-0.443,-0.239,0
0.552,-0.439,-1.164,0
0.571,-0.401,-1.543,0
0.452,-0.389,-1.7,0
0.339,-0.392,-1.598,0
0.09,-0.471,-1.394,0
-0.048,-0.52,-1.343,0
-0.049,-0.529,-1.34,0
0.018,-0.468,-1.22,0
0.215,-0.26,-1.507,0
0.308,-0.15,-1.556,0
0.32,-0.044,-1.814,0
0.405,0.017,-1.992,0
0.488,0.111,-2.174,0
0.479,0.122,-2.071,0
0.275,-0.011,-1.694,0
0.086,-0.173,-1.15,0
-0.273,-0.411,-0.201,0
-0.354,-0.388,0.24,0
-0.368,-0.336,0.267,0
-0.309,-0.285,0.171,0
-0.02,-0.113,-0.041,0
0.236,0.089,-0.1,0
0.499,0.347,-0.139,0
0.532,0.43,-0.122,0
0.547,0.416,-0.117,0
0.445,0.341,-0.051,0
0.466,0.173,0.33,0
0.542,-0.011,0.864,0
0.525,-0.034,0.872,0
0.452,0.057,1.76,0
0.224,0.503,1.86,0
0.145,0.841,1.364,0
0.352,1.077,-0.159,0
0.748,0.944,-0.765,0
1.263,0.886,-0.394,1
1.203,0.82,0.721,0
0.682,0.673,2.321,0
0.518,0.604,2.718,0
0.775,-0.073,2.944,0
1.208,-0.442,3.193,0
1.343,-0.847,4.174,0
1.238,-0.852,4.794,0
1.122,-0.827,5.154,0
1.055,-0.916,3.86,0
0.941,-0.805,0.916,0
0.841,-0.683,-0.787,0
0.853,-0.454,-2.33,0
0.72,-0.508,-2.862,0
0.413,-0.713,-2.882,0
0.371,-0.875,-2.348,0
0.394,-1.058,-1.008,0
0.483,-1.118,-0.207,0
0.834,-1.168,0.802,0
0.85,-1.129,1.042,0
0.783,-1.07,0.519,0
0.923,-0.915,-0.22,0
1.244,-0.48,-1.41,0
1.34,-0.307,-1.879,0
1.376,-0.154,-2.359,0
1.383,-0.111,-2.673,0
1.279,-0.147,-2.688,0
1.194,-0.094,-2.355,0
1.072,-0.115,-1.969,0
1.002,-0.152,-1.936,0
0.926,-0.291,-1.787,0
0.831,-0.333,-1.363,0
0.839,-0.208,-0.662,0
0.887,-0.107,-0.425,0
0.977,-0.019,-0.379,0
0.986,0.048,-0.292,0
0.855,0.061,-0.108,0
0.864,0.09,-0.037,0
0.988,0.263,-0.031,0
1.097,0.385,0.144,0
1.352,0.643,0.256,0
1.429,0.783,0.126,0
1.348,0.88,0.055,0
1.189,0.795,0.177,0
0.761,0.429,0.756,0
0.551,0.235,1.277,0
0.467,0.251,2.262,0
0.612,0.301,2.743,0
0.693,0.502,2.425,0
0.803,0.628,1.759,0
1.033,1.071,0.676,0
0.852,1.347,0.283,0
0.736,1.884,-0.49,0
0.953,2.141,-1.023,0
1.347,2.048,-1.591,1
1.573,1.911,-1.586,0
1.56,1.32,-0.069,0
1.632,0.559,1.715,0
1.504,-0.648,4.779,0
0.784,-1.511,6.705,0
-0.208,-2.616,9.174,0
-0.677,-2.918,9.62,0
-1.278,-2.875,7.612,0
-0.941,-2.325,4.51,0
-0.319,-1.367,0.52,0
0.055,-0.836,-2.08,0
0.575,-0.298,-4.703,0
0.813,0.043,-5.46,0
0.816,0.318,-4.941,0
0.915,0.302,-3.872,0
1.162,0.094,-1.687,0
1.361,-0.116,-0.709,0
1.602,-0.488,0.471,0
1.753,-0.576,0.808,0
1.602,-0.712,0.546,0
1.452,-0.766,0.065,0
1.245,-0.771,-0.859,0
1.118,-0.707,-1.318,0
0.901,-0.618,-1.81,0
0.816,-0.621,-1.99,0
0.665,-0.608,-2.153,0
0.611,-0.582,-2.127,0
0.525,-0.584,-1.815,0
0.482,-0.576,-1.416,0
0.472,-0.582,-1.414,0
0.242,-0.645,-0.678,0
0.107,-0.702,-0.908,0
0.062,-0.691,-1.121,0
0.081,-0.697,-1.118,0
0.144,-0.51,-1.458,0
0.429,-0.355,-1.478,0
0.618,-0.18,-1.186,0
0.694,-0.036,-0.859,0
0.761,0.034,-0.886,0
0.706,0.167,-0.888,0
0.629,0.203,-0.938,0
0.478,0.143,-1.009,0
0.257,0.076,-0.639,0
0.019,-0.003,0.171,0
0.214,0.18,0.85,0
0.461,0.383,1.212,0
0.548,0.425,1.283,0
0.509,0.278,1.254,0
0.597,0.256,1.357,0
0.875,0.359,1.859,0
0.926,0.367,2.082,0
0.509,0.413,2.196,0
0.066,0.476,1.671,0
-0.213,0.38,0.535,1
0.216,0.255,-0.163,0
0.732,0.021,-0.076,0
0.984,-0.081,0.606,0
1.203,-0.249,2.451,0
1.073,-0.288,3.262,0
1.156,-0.647,3.431,0
1.249,-0.903,3.168,0
1.016,-1.039,2.859,0
0.662,-0.936,2.618,0
0.243,-0.687,1.956,0
0.041,-0.618,1.253,0
-0.054,-0.575,0.379,0
0.035,-0.401,-0.269,0
0.186,-0.248,-0.536,0
0.29,-0.198,-0.491,0
0.286,-0.183,-0.497,0
0.611,-0.28,0.033,0
0.833,-0.395,0.347,0
0.823,-0.508,0.519,0
0.762,-0.673,0.646,0
0.735,-0.745,0.484,0
0.832,-0.678,0.128,0
0.887,-0.575,-0.376,0
0.822,-0.543,-1.11,0
0.689,-0.592,-1.485,0
0.754,-0.352,-1.828,0
0.873,-0.23,-2.106,0
0.952,-0.137,-2.335,0
0.818,-0.126,-2.026,0
0.548,-0.207,-1.659,0
0.477,-0.141,-1.461,0
0.701,0.1,-1.354,0
0.804,0.2,-1.38,0
0.794,0.212,-1.657,0
0.805,0.225,-1.771,0
0.828,0.293,-1.431,0
0.807,0.258,-0.832,0
0.643,0.171,-0.23,0
0.544,0.099,0.064,0
0.447,-0.015,0.335,0
0.322,-0.039,0.608,0
0.219,-0.095,0.99,0
0.139,-0.077,1.276,0
0.153,0.088,1.626,0
0.155,0.075,1.526,0
0.039,0.091,1.253,0
0.052,0.089,0.965,0
0.193,0.137,0.802,0
0.476,0.24,0.759,0
0.644,0.316,1.087,0
0.81,0.364,1.4,0
0.794,0.744,1.579,0
0.528,1.084,1.124,0
0.453,1.3,-0.138,0
0.696,1.265,-1.177,0
0.985,1.327,-1.765,1
1.136,1.297,-1.563,0
1.206,0.847,-0.198,0
1.21,0.195,1.497,0
1.121,-0.726,3.456,0
0.441,-1.325,4.943,0
-0.276,-2.041,6.418,0
-0.712,-1.966,6.533,0
-0.627,-1.536,4.469,0
-0.262,-1.018,1.89,0
0.143,-0.522,-0.707,0
0.262,-0.357,-2.139,0
0.214,-0.265,-3.144,0
0.089,-0.322,-2.931,0
0.125,-0.47,-1.588,0
0.304,-0.67,-0.429,0
0.464,-0.848,0.656,0
0.497,-1.034,1.181,0
0.543,-1.16,1.062,0
0.474,-1.27,0.541,0
0.578,-1.217,-0.31,0
0.787,-1.014,-1.075,0
0.844,-0.849,-1.817,0
0.857,-0.798,-2.019,0
0.641,-0.83,-1.894,0
0.503,-0.916,-1.617,0
0.505,-0.913,-1.618,0
0.255,-0.809,-1.024,0
0.321,-0.676,-1.126,0
0.495,-0.446,-1.353,0
0.667,-0.204,-2.09,0
0.648,-0.153,-2.509,0
0.733,-0.114,-2.858,0
0.716,-0.068,-2.718,0
0.475,-0.084,-2.051,0
0.28,-0.15,-1.423,0
0.045,-0.188,-0.747,0
-0.127,-0.169,-0.433,0
-0.236,-0.125,-0.288,0
-0.29,-0.142,-0.266,0
-0.191,-0.143,-0.228,0
0.017,-0.042,-0.251,0
0.183,0.109,-0.09,0
0.317,0.201,0.201,0
0.435,0.289,0.733,0
0.479,0.199,1.166,0
0.466,0.067,1.683,0
0.368,-0.085,1.927,0
0.43,-0.165,2.136,0
0.514,-0.099,2.182,0
0.512,-0.118,2.19,0
0.065,0.699,1.39,0
0.092,0.927,0.472,0
0.625,0.865,-0.07,0
1.263,0.83,-0.082,1
1.635,0.682,0.635,0
1.794,0.328,2.475,0
1.58,0.271,3.733,0
1.373,-0.271,4.698,0
1.603,-0.592,4.54,0
1.422,-0.753,4.215,0
1.18,-0.663,3.812,0
0.865,-0.454,2.692,0
0.818,-0.304,1.395,0
0.773,-0.266,-0.016,0
0.792,-0.265,-0.734,0
0.581,-0.452,-1.281,0
0.491,-0.573,-1.452,0
0.434,-0.902,-0.983,0
0.486,-1.157,-0.199,0
0.475,-1.308,0.571,0
0.54,-1.413,0.83,0
0.765,-1.364,0.883,0
0.89,-1.239,0.654,0
0.956,-1.084,-0.198,0
0.916,-0.928,-1.05,0
0.746,-0.804,-1.714,0
0.846,-0.629,-2.082,0
0.883,-0.372,-2.697,0
0.964,-0.35,-3.211,0
0.793,-0.313,-3.134,0
0.574,-0.313,-2.592,0
0.476,-0.256,-1.863,0
0.502,-0.192,-1.531,0
0.486,-0.13,-0.948,0
0.483,-0.123,-0.951,0
0.409,-0.049,-0.253,0
0.399,0.029,-0.307,0
0.408,0.073,-0.441,0
0.368,0.084,-0.473,0
0.403,0.107,-0.532,0
0.566,0.16,-0.47,0
0.718,0.271,-0.193,0
0.856,0.277,0.046,0
0.858,0.272,0.048,0
0.88,0.265,1.059,0
0.809,0.407,1.364,0
0.695,0.396,1.19,0
0.57,0.316,0.916,0
0.644,0.335,0.656,0
0.622,0.385,0.781,0
0.626,0.348,1.21,0
0.649,0.265,1.924,0
0.562,0.262,2.067,0
0.199,0.56,2.025,0
0.008,0.962,1.476,1
0.072,1.211,0.258,0
0.237,1.225,-0.78,0
0.494,1.236,-1.556,0
0.89,1.208,-1.864,0
1.347,0.9,-1.201,0
1.346,0.266,0.498,0
1.256,-0.749,2.983,0
0.78,-1.178,4.233,0
0.009,-1.842,6.011,0
-0.408,-1.987,6.168,0
-0.54,-1.73,4.089,0
-0.372,-1.315,1.664,0
-0.101,-0.833,-0.559,0
-0.081,-0.674,-1.693,0
-0.043,-0.509,-2.405,0
-0.109,-0.48,-2.146,0
-0.059,-0.692,-0.872,0
0.223,-0.819,0.084,0
0.538,-1.009,0.709,0
0.628,-1.178,1.116,0
0.784,-1.388,1.141,0
0.886,-1.357,0.627,0
0.922,-1.293,-0.312,0
0.947,-1.238,-1.087,0
0.734,-1.138,-1.866,0
0.599,-1.107,-2.064,0
0.421,-1.047,-2.375,0
0.339,-0.896,-2.506,0
0.376,-0.659,-2.364,0
0.595,-0.459,-2.071,0
0.682,-0.293,-1.774,0
0.654,-0.203,-1.576,0
0.545,-0.203,-1.277,0
0.368,-0.258,-1.164,0
0.081,-0.292,-1.076,0
-0.105,-0.345,-0.977,0
-0.106,-0.348,-0.976,0
-0.125,-0.209,-0.886,0
0.094,-0.04,-0.773,0
0.178,0.056,-0.556,0
0.287,0.084,-0.305,0
0.292,0.064,-0.218,0
0.238,0.055,-0.11,0
0.075,0.02,0.105,0
-0.164,0.035,0.54,0
-0.332,0.03,0.756,0
-0.312,0.147,0.913,0
-0.126,0.239,0.905,0
0.066,0.31,0.882,0
0.236,0.252,0.937,0
0.656,0.249,0.798,0
1.04,0.409,0.91,0
1.191,0.846,1.426,0
0.826,1.224,1.421,0
0.616,1.275,0.692,0
0.806,0.904,0.111,1
0.914,0.449,0.251,0
1.043,0.218,0.954,0
0.992,-0.023,2.741,0
0.85,-0.058,3.685,0
0.994,-0.325,3.782,0
1.278,-0.726,3.575,0
1.457,-0.922,3.336,0
1.353,-0.81,3.258,0
1.198,-0.755,2.726,0
1.092,-0.687,1.698,0
0.97,-0.548,0.039,0
1.049,-0.414,-1.069,0
1.113,-0.314,-1.768,0
1.066,-0.266,-1.981,0
1.1,-0.229,-1.997,0
1.164,-0.333,-1.613,0
1.2,-0.599,-0.644,0
1.171,-0.803,0.31,0
1.04,-1.04,1.176,0
0.728,-1.221,1.485,0
0.463,-1.379,1.769,0
0.359,-1.324,1.345,0
0.393,-1.103,-0.056,0
0.571,-0.845,-1.182,0
0.821,-0.436,-2.249,0
0.953,-0.245,-2.465,0
1.178,-0.002,-2.667,0
1.051,0.005,-2.203,0
0.85,0.01,-1.506,0
0.649,-0.003,-1.22,0
0.517,-0.023,-1.262,0
0.395,-0.07,-1.169,0
0.271,-0.191,-0.684,0
0.335,-0.128,-0.418,0
0.542,0.005,-0.176,0
0.827,0.053,-0.075,0
1.071,0.134,-0.173,0
1.239,0.189,-0.322,0
1.37,0.292,-0.541,0
1.252,0.18,-0.657,0
0.965,0.055,-0.346,0
0.84,-0.067,0.035,0
0.523,-0.07,0.655,0
0.335,-0.013,0.827,0
0.232,0.024,1.068,0
0.388,0.087,1.13,0
0.458,0.256,1.037,0
0.468,0.31,0.88,0
0.591,0.376,0.687,0
0.659,0.368,0.592,0
0.458,0.304,0.674,0
0.033,0.481,0.675,0
-0.042,0.75,-0.05,0
-0.012,0.875,-0.751,0
0.254,0.988,-1.122,0
0.731,1.144,-0.985,0
1.187,1.263,0.234,1
1.253,0.858,1.976,0
1.177,0.03,4.135,0
0.976,-0.551,5.45,0
0.679,-1.255,6.958,0
0.085,-1.578,7.324,0
-0.43,-1.602,5.503,0
-0.362,-1.391,2.961,0
-0.085,-0.866,0.131,0
-0.101,-0.753,-1.665,0
0.122,-0.599,-3.492,0
0.3,-0.352,-3.87,0
0.75,-0.14,-3.186,0
1.108,-0.252,-1.868,0
1.195,-0.63,-0.33,0
1.004,-0.975,0.394,0
0.778,-1.371,0.706,0
0.652,-1.509,0.484,0
0.449,-1.666,-0.232,0
0.379,-1.706,-0.842,0
0.283,-1.711,-1.362,0
0.295,-1.706,-1.364,0
0.184,-1.504,-1.696,0
0.166,-1.391,-1.739,0
0.075,-1.232,-1.794,0
0.079,-1.106,-1.819,0
0.277,-0.814,-1.819,0
0.453,-0.654,-1.804,0
0.598,-0.404,-1.826,0
0.615,-0.331,-1.945,0
0.648,-0.245,-1.967,0
0.608,-0.174,-1.819,0
0.366,-0.144,-1.588,0
0.231,-0.174,-1.339,0
0.065,-0.175,-0.905,0
0.037,-0.084,-0.506,0
0.16,0.052,-0.19,0
0.323,0.2,-0.205,0
0.488,0.23,-0.208,0
0.574,0.289,-0.21,0
0.435,0.321,0.029,0
0.317,0.353,0.243,0
0.358,0.53,0.503,0
0.428,0.627,0.69,0
0.506,0.635,1.069,0
0.506,0.623,1.419,0
0.528,0.377,2.197,0
0.597,0.237,2.571,0
0.564,0.205,2.646,0
0.295,0.426,2.268,0
-0.021,0.887,1.017,0
0.178,0.992,0.011,0
0.189,0.974,0.019,1
1.18,0.948,-0.281,0
1.429,0.791,1.004,0
1.3,0.5,2.329,0
0.825,0.078,3.523,0
0.768,-0.326,3.937,0
0.867,-0.708,4.09,0
0.672,-0.906,4.042,0
0.339,-0.988,3.683,0
0.199,-0.911,2.95,0
0.242,-0.739,1.517,0
0.446,-0.601,0.431,0
0.441,-0.52,-0.629,0
0.383,-0.563,-0.945,0
0.415,-0.617,-1.044,0
0.529,-0.597,-0.982,0
0.882,-0.59,-0.917,0
1.241,-0.613,-0.901,0
1.247,-0.594,-0.908,0
1.625,-0.702,-0.241,0
1.63,-0.677,-0.251,0
1.392,-0.964,0.464,0
1.194,-0.981,0.508,0
1.033,-0.938,-0.02,0
1.088,-0.757,-1.211,0
1.119,-0.605,-2.082,0
1.124,-0.345,-2.499,0
1.002,-0.184,-2.485,0
0.815,-0.151,-2.68,0
0.813,-0.079,-2.713,0
0.496,-0.079,-2.065,0
0.347,-0.095,-1.635,0
0.345,-0.088,-1.638,0
0.031,-0.216,-1.159,0
0.167,-0.241,-1.113,0
0.337,-0.176,-0.802,0
0.453,-0.115,-0.487,0
0.489,-0.111,-0.308,0
0.779,-0.021,-0.21,0
0.814,0.043,-0.003,0
1.114,0.129,0.017,0
1.278,0.233,-0.129,0
1.148,0.318,0.085,0
1.193,0.326,0.51,0
0.982,0.402,0.893,0
0.701,0.435,0.977,0
0.536,0.515,1.032,0
0.475,0.578,1.328,0
0.611,0.589,1.555,0
0.689,0.536,1.408,0
0.758,0.49,1.094,0
0.891,0.546,0.9,0
0.466,0.8,0.628,0
0.109,1.039,0.018,0
0.036,1.014,-0.954,1
0.212,0.941,-1.433,0
0.455,0.888,-1.501,0
0.605,0.803,-0.689,0
0.699,0.265,1.578,0
0.863,-0.1,2.974,0
0.735,-0.666,4.428,0
0.43,-1.23,5.423,0
-0.227,-1.729,5.923,0
-0.656,-1.703,5.151,0
-0.666,-1.471,2.294,0
-0.601,-1.219,0.824,0
-0.32,-0.816,-1.142,0
-0.003,-0.626,-1.921,0
0.53,0.004,-2.3,0
1.001,0.357,-1.868,0
1.565,0.392,-0.951,0
1.719,0.196,-0.302,0
1.448,-0.333,0.296,0
1.246,-0.729,0.501,0
0.951,-1.109,0.315,0
0.849,-1.148,-0.211,0
0.974,-0.967,-1.246,0
1.148,-0.78,-1.919,0
1.121,-0.549,-2.73,0
1.008,-0.485,-2.993,0
0.918,-0.484,-2.494,0
0.784,-0.419,-2.016,0
0.694,-0.346,-1.126,0
0.595,-0.384,-0.827,0
0.464,-0.436,-0.853,0
0.404,-0.439,-1.064,0
0.382,-0.375,-1.315,0
0.376,-0.3,-1.348,0
0.446,-0.151,-1.148,0
0.525,-0.077,-0.905,0
0.538,-0.04,-0.563,0
0.467,-0.031,-0.324,0
0.438,0.023,-0.211,0
0.478,0.115,-0.155,0
0.474,0.142,-0.06,0
0.504,0.133,-0.064,0
0.518,0.167,0.03,0
0.61,0.245,0.107,0
0.681,0.454,0.06,0
0.697,0.583,0.065,0
0.745,0.59,0.4,0
0.769,0.641,0.737,0
0.895,0.531,1.142,0
0.849,0.37,1.539,0
0.993,0.476,2.428,0
0.918,0.586,2.77,0
0.58,1.066,2.119,0
0.287,1.374,0.898,0
0.49,1.203,-0.666,0
1.033,1.091,-1.137,0
1.444,1.088,-0.167,1
1.498,0.696,1.682,0
1.161,0.221,4.059,0
0.561,-0.179,4.62,0
0.389,-0.796,4.47,0
0.346,-1.047,4.218,0
0.258,-1.02,3.702,0
0.379,-0.751,2.986,0
0.844,-0.444,1.468,0
0.945,-0.333,0.589,0
1.091,-0.314,-0.595,0
1.15,-0.359,-1.034,0
0.947,-0.533,-1.192,0
0.825,-0.664,-1.159,0
0.779,-0.893,-0.904,0
0.808,-1.11,-0.691,0
0.768,-1.285,-0.488,0
0.874,-1.232,-0.499,0
1.265,-0.978,-0.56,0
1.487,-0.792,-0.685,0
1.762,-0.52,-0.918,0
1.625,-0.481,-0.854,0
1.213,-0.562,-0.871,0
0.957,-0.534,-1.091,0
0.859,-0.447,-1.477,0
0.806,-0.371,-1.854,0
0.367,-0.548,-2.458,0
0.047,-0.579,-2.443,0
-0.09,-0.45,-1.991,0
0.097,-0.248,-1.687,0
0.097,-0.248,-1.687,0
0.645,0.251,-1.008,0
0.595,0.308,-0.815,0
0.46,0.2,-0.8,0
0.284,0.05,-0.767,0
0.234,-0.05,-0.678,0
0.191,-0.096,-0.546,0
0.231,-0.085,-0.306,0
0.269,-0.093,0.12,0
0.265,-0.131,0.293,0
0.471,0.086,0.603,0
0.439,0.235,0.784,0
0.268,0.336,0.984,0
0.232,0.305,0.926,0
0.362,0.373,0.937,0
0.399,0.374,1.016,0
0.434,0.307,1.428,0
0.526,0.243,1.612,0
0.511,0.411,1.578,0
0.113,0.77,1.176,0
-0.397,1.114,-0.108,0
-0.227,1.23,-1.636,0
0.254,1.428,-2.609,0
0.736,1.468,-2.69,0
0.72,1.466,-2.69,1
1.381,0.497,0.777,0
1.477,-0.517,3.833,0
1.158,-1.185,5.771,0
0.349,-1.75,8.004,0
-0.165,-2.004,8.261,0
-0.582,-1.95,5.962,0
-0.445,-1.574,3.254,0
-0.041,-0.802,-0.053,0
0.252,-0.569,-1.592,0
0.687,-0.225,-3.337,0
0.787,-0.029,-3.606,0
1.004,-0.075,-2.554,0
1.243,-0.29,-1.192,0
1.238,-0.588,0.098,0
1.109,-0.924,0.727,0
1.076,-1.15,0.542,0
0.948,-1.188,-0.091,0
0.968,-1.158,-1.249,0
1.052,-1.067,-1.847,0
0.932,-0.991,-2.165,0
0.723,-0.951,-1.993,0
0.734,-0.933,-2,0
0.422,-0.735,-1.358,0
0.422,-0.723,-1.363,0
0.381,-0.354,-1.902,0
0.239,-0.138,-2.086,0
0.308,-0.008,-2.23,0
0.376,0.139,-1.94,0
0.24,0.171,-1.483,0
0.188,0.158,-1.037,0
0.232,0.145,-0.824,0
0.108,0.097,-0.239,0
0.168,0.196,0.12,0
0.217,0.344,0.02,0
0.358,0.477,-0.327,0
0.402,0.579,-0.477,0
0.416,0.546,-0.312,0
0.401,0.543,0.136,0
0.505,0.678,0.624,0
0.517,0.731,1.085,0
0.362,0.632,1.44,0
0.217,0.442,1.291,0
0.235,0.305,1.208,0
0.249,0.292,1.094,0
0.181,0.222,1.012,0
0.119,0.14,0.854,0
0.159,0.213,0.728,0
-0.076,0.45,0.806,0
-0.515,0.609,0.87,0
-0.612,0.732,0.432,0
-0.077,0.742,-0.286,0
0.689,0.688,-0.242,1
0.971,0.68,0.291,0
0.818,0.327,2.098,0
0.49,-0.077,3.719,0
0.138,-0.263,4.73,0
0.041,-0.495,4.774,0
0.194,-0.639,4.122,0
0.098,-0.671,3.595,0
0.056,-0.569,2.881,0
-0.054,-0.546,2.229,0
-0.057,-0.581,1.143,0
-0.06,-0.63,0.549,0
-0.032,-0.628,0.548,0
-0.02,-0.688,-0.627,0
0.046,-0.708,-1.05,0
0.197,-0.729,-1.084,0
0.374,-0.737,-0.833,0
0.485,-0.772,-0.566,0
0.634,-0.804,-0.204,0
0.592,-0.799,-0.102,0
0.496,-0.847,-0.137,0
0.474,-0.757,-0.526,0
0.402,-0.682,-1.145,0
0.406,-0.542,-1.555,0
0.374,-0.307,-2.111,0
0.442,-0.216,-2.524,0
0.588,0.009,-2.66,0
0.722,0.259,-2.464,0
0.607,0.357,-2.214,0
0.405,0.343,-2.174,0
0.227,0.315,-2.151,0
0.045,0.27,-1.996,0
-0.228,0.124,-1.793,0
-0.151,0.189,-1.387,0
0.049,0.381,-1.205,0
0.097,0.414,-0.855,0
0.387,0.396,-0.776,0
0.434,0.392,-0.726,0
0.4,0.39,-0.352,0
0.408,0.29,0.146,0
0.348,0.152,0.471,0
0.279,0.096,0.514,0
0.133,0.056,0.391,0
-0.011,0.065,0.198,0
-0.07,0.064,0.028,0
-0.008,0.21,-0.121,0
0.031,0.393,-0.03,0
0.02,0.438,0.068,0
-0.099,0.476,0.207,0
-0.027,0.494,0.294,0
0.208,0.45,0.571,0
0.307,0.489,1.078,0
-0.146,0.848,1.532,0
-0.373,1.05,1.037,0
-0.002,1.144,-0.323,1
0.3,1.092,-1.043,0
0.812,1.104,-1.045,0
0.945,1.002,0.226,0
0.924,0.307,2.649,0
0.8,-0.348,4.11,0
0.48,-0.929,5.76,0
0.403,-1.335,6.751,0
0.266,-1.486,6.702,0
0.157,-1.456,4.872,0
0.132,-0.851,0.994,0
0.079,-0.682,-0.6,0
0.029,-0.773,-2.991,0
-0.275,-0.71,-4.051,0
-0.655,-0.634,-4.431,0
-0.837,-0.685,-3.907,0
-0.557,-0.773,-2.129,0
-0.067,-0.839,-0.8,0
0.113,-1.172,0.654,0
0.09,-1.375,1.102,0
-0.144,-1.523,1.182,0
-0.406,-1.579,0.824,0
-0.437,-1.46,0.037,0
-0.317,-1.248,-0.717,0
-0.291,-1.039,-1.682,0
-0.326,-0.91,-2.183,0
-0.193,-0.711,-2.453,0
-0.079,-0.595,-2.432,0
0.113,-0.281,-1.964,0
0.17,-0.112,-1.674,0
0.149,0.006,-1.515,0
0.084,0.042,-1.257,0
-0.047,-0.02,-0.963,0
-0.165,-0.014,-0.862,0
-0.191,-0.005,-0.662,0
-0.054,0.032,-0.515,0
0.237,0.278,-0.58,0
0.241,0.375,-0.581,0
0.205,0.281,-0.519,0
0.26,0.37,-0.32,0
0.555,0.594,-0.071,0
0.462,0.59,-0.062,0
0.102,0.451,0.153,0
-0.216,0.156,0.484,0
-0.216,0.148,0.487,0
-0.546,-0.035,1.299,0
-0.231,0.038,1.76,0
0.098,0.006,2.031,0
0.296,-0.033,2.358,0
0.335,0.116,2.599,0
0.185,0.979,2.539,0
0.053,1.401,1.659,0
0.595,1.291,0.301,0
1.123,1.62,-0.615,0
1.138,1.599,-0.607,1
1.556,1.134,-0.268,0
0.959,0.389,1.523,0
0.556,-0.051,2.529,0
0.173,-0.811,3.668,0
-0.076,-1.224,4.414,0
-0.311,-1.53,5.477,0
-0.392,-1.475,5.613,0
-0.242,-1.194,4.288,0
0.128,-0.858,2.274,0
0.39,-0.559,-0.107,0
0.528,-0.514,-1.254,0
0.646,-0.395,-2.506,0
0.868,-0.405,-2.748,0
1.219,-0.403,-2.028,0
1.316,-0.504,-1.141,0
1.337,-0.658,-0.259,0
1.278,-0.845,-0.07,0
1.163,-0.867,-0.188,0
1.145,-0.756,-0.486,0
1.227,-0.563,-1.162,0
1.226,-0.403,-1.481,0
1.233,-0.41,-1.478,0
0.865,-0.2,-1.796,0
0.608,-0.171,-1.882,0
0.546,-0.138,-2.08,0
0.661,0.069,-2.512,0
0.863,0.227,-2.307,0
0.972,0.385,-1.898,0
0.837,0.386,-1.681,0
0.608,0.313,-1.687,0
0.351,0.216,-1.614,0
0.228,0.208,-1.369,0
0.367,0.324,-1.169,0
0.55,0.42,-0.891,0
0.603,0.463,-0.623,0
0.689,0.468,-0.251,0
0.705,0.46,-0.15,0
0.721,0.354,-0.278,0
0.884,0.334,-0.145,0
0.884,0.346,0.314,0
0.689,0.316,0.528,0
0.467,0.262,0.875,0
0.173,0.043,1.115,0
-0.017,-0.043,1.404,0
0.135,-0.004,1.779,0
0.506,0.153,1.951,0
0.691,0.244,1.796,0
0.664,0.501,1.691,0
0.412,0.776,1.747,0
-0.182,1.281,0.913,0
-0.193,1.445,-0.189,0
0.194,1.52,-1.537,0
0.608,1.602,-2.18,0
1.208,1.237,-1.373,1
1.332,0.788,0.301,0
1.281,0.828,0.283,0
1.265,-0.871,5.185,0
0.329,-1.817,7.776,0
-0.405,-2.158,8.399,0
-1.047,-2.193,6.823,0
-1.185,-2.111,4.109,0
-1.051,-1.737,0.738,0
-0.954,-1.425,-1.282,0
-0.545,-1.084,-2.952,0
-0.39,-0.852,-3.127,0
-0.017,-0.485,-2.598,0
0.543,-0.344,-1.842,0
1.161,-0.289,-0.893,0
1.423,-0.348,-0.391,0
1.419,-0.563,-0.141,0
1.181,-0.769,-0.13,0
0.729,-0.977,-0.516,0
0.5,-1.007,-0.852,0
0.223,-1.094,-1.155,0
0.134,-1.061,-1.264,0
-0.155,-1.108,-1.721,0
-0.201,-0.999,-1.926,0
0.004,-0.661,-2.014,0
0.235,-0.378,-2.114,0
0.577,-0.074,-2.495,0
0.672,0.124,-2.857,0
0.507,0.233,-2.903,0
0.448,0.138,-2.694,0
0.146,-0.029,-1.996,0
-0.001,-0.13,-1.347,0
-0.02,-0.219,-0.511,0
-0.01,-0.245,-0.119,0
0.039,-0.225,0.11,0
0.034,-0.229,0.257,0
0.07,-0.144,0.383,0
0.228,-0.103,0.322,0
0.212,0.034,0.429,0
0.187,0.147,0.481,0
0.146,0.219,0.54,0
0.109,0.291,0.495,0
0.166,0.381,0.571,0
0.288,0.359,0.634,0
0.361,0.257,0.853,0
0.578,0.252,1.011,0
0.69,0.326,1.61,0
0.443,0.468,1.846,0
0.025,0.978,1.444,0
0.042,0.947,0.554,0
0.351,0.8,-0.326,0
0.743,0.888,-0.29,0
1.465,0.883,0.64,1
1.729,0.682,1.882,0
1.155,0.396,3.399,0
0.955,0.118,3.853,0
0.851,-0.363,3.869,0
0.675,-0.647,3.788,0
0.362,-0.864,3.789,0
0.173,-0.875,3.443,0
0.026,-0.966,2.362,0
-0.026,-1.068,1.186,0
-0.065,-1.133,-0.092,0
-0.109,-1.15,-0.84,0
0.201,-1.106,-1.787,0
0.545,-1.064,-2.126,0
1.05,-0.914,-1.928,0
1.325,-0.891,-1.386,0
1.496,-0.915,-0.542,0
1.265,-1.093,-0.084,0
0.981,-1.285,0.599,0
0.696,-1.353,0.878,0
0.504,-1.204,0.331,0
0.473,-1.08,-0.338,0
0.583,-0.815,-1.495,0
0.621,-0.586,-2.169,0
0.687,-0.303,-2.834,0
0.841,-0.071,-3.15,0
0.904,0.159,-3.371,0
0.784,0.268,-3.252,0
0.378,0.193,-2.463,0
0.193,0.145,-1.728,0
-0.014,0.127,-1.114,0
-0.102,0.168,-0.941,0
-0.059,0.182,-0.864,0
0.008,0.219,-1.055,0
0.141,0.299,-1.225,0
0.227,0.335,-1.015,0
0.555,0.577,-0.334,0
0.832,0.707,0.105,0
0.988,0.856,0.592,0
0.952,0.893,0.78,0
0.649,0.75,1.149,0
0.388,0.617,1.246,0
-0.019,0.496,1.348,0
-0.17,0.358,1.516,0
-0.14,0.365,1.734,0
-0.088,0.392,1.811,0
0.075,0.343,1.758,0
0.142,0.379,1.728,0
0.143,0.335,1.745,0
0.331,1.163,1.36,0
0.095,1.521,0.134,0
0.234,1.538,-0.975,0
0.471,1.627,-1.79,1
0.832,1.637,-1.751,0
1.175,1.519,-0.31,0
1.553,1.051,1.54,0
1.82,0.126,4.431,0
1.472,-0.392,6.146,0
0.525,-1.401,8.429,0
0.099,-1.606,8.469,0
-0.283,-1.374,5.94,0
-0.201,-1.038,3.229,0
-0.135,-0.718,-0.105,0
-0.146,-0.652,-2.152,0
-0.209,-0.45,-3.903,0
-0.351,-0.299,-4.435,0
-0.465,-0.339,-3.816,0
-0.11,-0.264,-2.879,0
0.593,-0.202,-1.079,0
0.81,-0.402,-0.248,0
0.733,-0.395,-0.25,0
0.48,-1.02,0.513,0
0.193,-1.233,0.371,0
0.013,-1.383,-0.19,0
-0.107,-1.367,-1.245,0
-0.056,-1.279,-1.771,0
0.113,-1.078,-2.605,0
0.236,-0.952,-2.943,0
0.323,-0.833,-3.209,0
0.309,-0.745,-3.268,0
0.27,-0.566,-3.191,0
0.03,-0.532,-2.796,0
-0.259,-0.561,-2.173,0
-0.445,-0.544,-1.722,0
-0.515,-0.56,-1.094,0
-0.479,-0.482,-0.877,0
-0.336,-0.336,-0.679,0
-0.167,-0.195,-0.631,0
0.012,0.001,-0.477,0
0.066,0.074,-0.344,0
0.083,0.135,-0.22,0
0.08,0.107,-0.076,0
0.111,0.14,0.187,0
0.023,0.111,0.339,0
-0.069,0.031,0.501,0
-0.008,0.036,0.686,0
0.087,0.146,1.089,0
0.194,0.186,1.178,0
0.403,0.282,1.028,0
0.465,0.263,1.066,0
0.519,0.486,1.147,0
0.335,0.881,1.215,0
0.206,1.404,0.586,0
0.571,1.402,-0.078,0
0.988,1.224,-0.822,0
0.997,1.14,-0.373,1
0.943,0.621,1.234,0
0.644,0.155,2.647,0
0.164,-0.133,3.638,0
-0.143,-0.535,4.395,0
-0.099,-0.988,4.954,0
-0.186,-1.056,5.099,0
-0.329,-0.982,5.107,0
-0.342,-0.886,4.152,0
-0.25,-0.719,2.18,0
-0.219,-0.686,0.704,0
-0.172,-0.747,-0.824,0
0.04,-0.667,-1.918,0
0.134,-0.624,-2.811,0
0.316,-0.69,-2.91,0
0.664,-0.652,-2.289,0
0.836,-0.647,-1.606,0
1.053,-0.761,-0.492,0
1.005,-0.908,0.054,0
0.73,-1.093,0.523,0
0.507,-1.123,0.581,0
0.465,-0.995,0.214,0
0.541,-0.866,-0.549,0
0.772,-0.397,-1.879,0
0.802,-0.254,-2.427,0
0.806,-0.278,-2.419,0
0.89,0.158,-2.909,0
0.9,0.27,-2.612,0
0.781,0.319,-2.233,0
0.528,0.287,-1.545,0
0.38,0.206,-0.886,0
0.369,0.202,-0.885,0
0.214,0.246,-0.432,0
0.241,0.341,-0.65,0
0.347,0.42,-0.77,0
0.577,0.481,-0.906,0
0.763,0.529,-0.947,0
0.846,0.531,-0.574,0
0.887,0.452,0.148,0
0.9,0.356,1.013,0
0.663,0.296,1.468,0
0.302,0.174,2.626,0
0.21,0.249,2.991,0
0.138,0.273,2.436,0
0.137,0.094,1.505,0
0.257,0.287,0.701,0
0.38,0.385,0.75,0
0.577,0.457,1.212,0
0.626,0.539,1.623,0
0.546,0.667,1.831,0
0.314,0.98,1.6,0
-0.167,1.338,0.188,0
-0.31,1.208,-0.847,0
-0.225,0.986,-1.802,1
-0.206,0.995,-2.077,0
-0.184,0.601,-0.891,0
0.011,0.347,0.576,0
0.367,-0.057,2.111,0
0.574,-0.45,2.855,0
0.265,-1.215,4.07,0
0.004,-1.413,4.868,0
-0.394,-1.374,4.883,0
-0.424,-1.09,3.275,0
-0.278,-0.599,0.408,0
-0.202,-0.343,-1.211,0
-0.348,-0.214,-2.475,0
-0.536,-0.274,-3.06,0
-0.716,-0.224,-3.087,0
-0.611,-0.354,-2.374,0
-0.305,-0.614,-0.798,0
-0.188,-0.761,0.089,0
-0.026,-0.993,0.813,0
0.007,-1.142,0.826,0
0.038,-1.237,0.453,0
0.155,-1.156,-0.097,0
0.328,-1.002,-0.955,0
0.452,-0.848,-1.555,0
0.271,-0.699,-1.702,0
0.107,-0.678,-1.547,0
-0.211,-0.661,-1.496,0
-0.328,-0.625,-1.468,0
-0.34,-0.628,-1.466,0
-0.12,-0.195,-1.739,0
0.141,0.085,-2.149,0
0.217,0.206,-2.155,0
0.306,0.266,-2.082,0
0.255,0.409,-1.994,0
0.155,0.441,-1.931,0
0.03,0.372,-1.775,0
-0.318,0.191,-1.156,0
-0.455,0.085,-0.797,0
-0.456,-0.046,-0.533,0
-0.332,0.01,-0.227,0
-0.262,0.048,0.542,0
-0.142,-0.062,0.955,0
0.012,-0.012,1.454,0
-0.033,0.087,1.708,0
-0.103,0.208,2.019,0
-0.032,0.27,2.022,0
-0.027,0.254,2.028,0
0.053,0.283,0.88,0
0.106,0.368,0.541,0
0.174,0.505,0.446,0
0.17,0.475,0.458,0
-0.178,1.248,0.201,0
0.501,1.04,-0.036,0
0.789,1.025,-0.045,0
0.78,0.938,0.614,1
0.721,0.543,1.606,0
0.43,-0.005,2.814,0
0.114,-0.212,3.324,0
0.084,-0.598,3.742,0
0.068,-0.858,4.105,0
0.014,-1.038,4.652,0
-0.088,-0.984,4.723,0
-0.217,-0.789,3.532,0
-0.109,-0.675,1.898,0
0.165,-0.495,0.095,0
0.483,-0.369,-0.933,0
0.664,-0.359,-1.872,0
0.838,-0.27,-2.303,0
0.856,-0.273,-2.302,0
0.955,-0.436,-1.793,0
0.947,-0.427,-1.795,0
0.925,-0.772,-0.361,0
0.823,-0.935,0.098,0
0.693,-0.966,-0.021,0
0.549,-0.957,-0.509,0
0.437,-0.872,-0.918,0
0.27,-0.787,-1.278,0
0.175,-0.711,-1.56,0
-0.05,-0.583,-1.898,0
-0.076,-0.464,-1.993,0
0.039,-0.219,-2.291,0
0.05,-0.079,-2.373,0
0.01,0.066,-2.191,0
-0.009,0.127,-1.972,0
-0.24,0.054,-1.641,0
-0.482,-0.032,-1.258,0
-0.729,-0.114,-0.564,0
-0.767,-0.103,-0.143,0
-0.637,0.001,-0.041,0
-0.453,0.134,-0.186,0
-0.453,0.119,-0.181,0
-0.147,0.356,-0.616,0
0.018,0.476,-0.386,0
0.087,0.492,-0.146,0
0.167,0.488,0.28,0
0.112,0.451,0.561,0
0.028,0.484,0.516,0
-0.027,0.468,0.361,0
-0.37,0.495,0.556,0
-0.576,0.44,0.896,0
-0.763,0.432,1.427,0
-0.771,0.435,1.7,0
-0.756,0.409,1.709,0
-0.186,0.472,1.532,0
-0.216,0.732,1.425,0
-0.442,1.047,1.084,0
-0.342,1.089,-0.337,1
-0.113,0.999,-1.089,0
0.081,0.893,-1.55,0
0.253,0.767,-1.193,0
0.331,0.455,0.306,0
0.549,0,1.737,0
0.533,-0.569,3.469,0
0.136,-1.013,4.598,0
-0.335,-1.775,5.692,0
-0.427,-1.845,5.427,0
-0.581,-1.696,3.042,0
-0.568,-1.412,0.685,0
-0.665,-1.107,-1.773,0
-0.581,-0.938,-3.37,0
-0.484,-0.767,-4.614,0
-0.445,-0.523,-4.631,0
-0.477,-0.255,-3.625,0
-0.622,-0.239,-1.975,0
-0.245,-0.37,0.29,0
-0.026,-0.355,1.332,0
0.091,-0.373,2.346,0
0.124,-0.373,2.57,0
0.14,-0.418,2.276,0
0.158,-0.449,1.577,0
0.095,-0.383,0.315,0
0.023,-0.355,-0.593,0
-0.028,-0.289,-1.493,0
-0.04,-0.241,-1.811,0
0.081,-0.067,-2.007,0
0.232,0.067,-1.923,0
0.231,0.063,-1.921,0
0.17,0.158,-1.637,0
-0.014,0.113,-1.52,0
-0.122,0.091,-1.597,0
-0.14,0.174,-1.678,0
-0.091,0.247,-1.595,0
0.005,0.31,-1.469,0
-0.036,0.302,-1.415,0
-0.143,0.258,-1.346,0
-0.224,0.184,-1.345,0
-0.301,0.174,-1.075,0
-0.136,0.289,-0.599,0
0.121,0.391,-0.037,0
0.049,0.381,0.482,0
0.039,0.376,0.484,0
0.049,0.44,1.466,0
0.205,0.597,1.484,0
0.2,0.661,1.332,0
0.1,0.703,1.022,0
-0.089,0.614,0.839,0
-0.312,0.518,0.703,0
-0.47,0.554,0.738,0
-0.863,0.847,0.747,0
-0.922,1.072,0.355,0
0.03,1.067,-0.355,0
0.435,1.157,-0.332,0
0.768,1.105,0.8,1
0.869,0.585,2.264,0
0.518,-0.102,4.114,0
-0.245,-0.407,5.089,0
-0.724,-1.09,5.729,0
-0.809,-1.418,5.703,0
-0.793,-1.442,5.213,0
-0.693,-1.305,4.571,0
-0.534,-0.908,2.715,0
-0.351,-0.613,1.338,0
-0.118,-0.481,-0.082,0
0.048,-0.393,-1.044,0
0.24,-0.362,-2.011,0
0.342,-0.332,-2.519,0
0.584,-0.338,-2.42,0
0.65,-0.455,-1.847,0
0.617,-0.651,-0.578,0
0.555,-0.839,0.118,0
0.404,-1.008,0.63,0
0.17,-1.093,0.734,0
-0.015,-1.176,0.716,0
0.071,-1.068,0.424,0
0.084,-1.08,0.427,0
0.371,-0.589,-1.396,0
0.378,-0.378,-2.27,0
0.345,-0.288,-2.555,0
0.287,-0.136,-3.057,0
0.359,-0.138,-3.395,0
0.233,-0.048,-3.095,0
0.087,0,-2.523,0
-0.121,-0.017,-1.844,0
-0.25,-0.065,-1.633,0
-0.388,-0.139,-1.931,0
-0.415,-0.129,-2.053,0
-0.238,-0.018,-1.764,0
-0.192,0.128,-1.574,0
-0.224,0.156,-1.476,0
-0.053,0.239,-1.533,0
-0.02,0.351,-1.335,0
0.11,0.355,-1.173,0
0.271,0.379,-0.939,0
0.242,0.488,-0.576,0
0.087,0.377,0.785,0
0.276,0.45,0.971,0
0.042,0.66,1.443,0
-0.094,0.615,1.645,0
-0.084,0.603,1.649,0
-0.137,0.701,1.765,0
-0.044,0.766,1.91,0
0.048,0.726,2.006,0
0.178,0.767,2.1,0
0.172,0.999,2.043,0
0.174,0.964,2.056,0
-0.192,1.449,-0.081,0
-0.156,1.234,-1.066,1
-0.251,1.013,-1.278,0
-0.219,0.862,-0.435,0
-0.169,0.616,0.902,0
0.34,0.281,2.828,0
0.717,0.038,4.101,0
0.732,-0.557,5.581,0
0.484,-0.96,6.14,0
-0.176,-1.335,5.357,0
-0.641,-1.359,3.487,0
-0.486,-1.032,0.914,0
-0.372,-0.81,-0.828,0
-0.374,-0.743,-2.683,0
-0.322,-0.564,-3.193,0
-0.298,-0.247,-3.161,0
-0.358,-0.25,-2.206,0
-0.159,-0.53,-0.551,0
-0.098,-0.754,0.283,0
-0.312,-1.131,0.919,0
-0.434,-1.339,1.129,0
-0.499,-1.418,0.934,0
-0.459,-1.396,0.514,0
-0.334,-1.24,-0.411,0
-0.179,-1.046,-1.212,0
-0.094,-0.81,-2.133,0
-0.155,-0.754,-2.35,0
-0.093,-0.698,-2.397,0
-0.11,-0.54,-2.287,0
-0.142,-0.365,-2.1,0
-0.06,-0.26,-2.149,0
0.045,0.019,-2.264,0
0.182,0.234,-2.278,0
0.232,0.369,-2.205,0
0.14,0.415,-2.142,0
-0.091,0.379,-1.896,0
-0.256,0.341,-1.559,0
-0.462,0.078,-0.995,0
-0.517,0.048,-0.341,0
-0.449,0.031,0.342,0
-0.607,-0.049,0.622,0
-0.518,0.012,1.078,0
-0.084,0.256,1.245,0
0.227,0.51,0.956,0
0.315,0.673,0.714,0
0.265,0.749,0.612,0
0.187,0.794,0.647,0
0.114,0.697,0.814,0
0.079,0.585,0.971,0
0.063,0.445,1.073,0
0.059,0.408,1.243,0
0.163,0.512,1.319,0
-0.129,0.893,1.276,0
-0.375,1.191,0.74,0
0.143,0.949,0.139,0
0.592,0.908,-0.107,1
0.857,0.969,0.555,0
1.252,0.809,2.365,0
1.174,0.509,3.343,0
1.16,0.549,3.329,0
0.28,-0.183,4.48,0
-0.138,-0.625,3.877,0
-0.321,-0.782,3.327,0
-0.289,-0.768,3.32,0
-0.461,-0.507,1.522,0
-0.234,-0.391,0.563,0
-0.195,-0.415,-0.088,0
-0.239,-0.495,-0.598,0
-0.228,-0.613,-0.767,0
-0.218,-0.765,-0.752,0
-0.081,-0.838,-0.797,0
0.173,-0.999,-0.958,0
0.347,-1.07,-0.862,0
0.347,-1.067,-0.863,0
0.325,-1.058,-0.032,0
0.313,-1.001,0.092,0
0.321,-0.982,-0.207,0
0.195,-0.903,-0.753,0
0.196,-0.863,-1.281,0
0.179,-0.781,-1.913,0
0.106,-0.692,-2.04,0
0.073,-0.52,-2.233,0
0.11,-0.393,-2.31,0
0.1,-0.264,-2.185,0
0.07,-0.144,-2.091,0
0.113,-0.064,-1.985,0
0.074,-0.004,-1.773,0
-0.103,0.105,-1.573,0
-0.132,0.127,-1.526,0
-0.121,0.061,-1.461,0
-0.159,0.168,-1.273,0
-0.167,0.154,-1.268,0
-0.045,0.232,-0.983,0
0.024,0.311,-0.633,0
0.05,0.322,-0.485,0
0.029,0.33,-0.254,0
0.106,0.426,0.07,0
0.153,0.479,0.255,0
-0.053,0.459,0.295,0
-0.318,0.356,0.271,0
-0.306,0.314,0.124,0
-0.399,0.372,0.266,0
-0.412,0.367,0.419,0
-0.255,0.513,0.656,0
-0.073,0.69,0.959,0
0.431,0.875,1.556,0
0.666,0.828,1.794,0
0.419,1.067,1.92,0
0.173,1.292,1.94,0
0.205,1.33,0.856,1
0.23,1.276,-0.081,0
0.314,1.2,-0.804,0
0.514,1.133,-0.799,0
0.65,1.007,0.017,0
0.718,0.787,0.955,0
0.955,0.212,2.534,0
0.925,-0.171,3.242,0
0.492,-0.691,3.947,0
0.006,-1.015,4.157,0
-0.557,-1.083,3.133,0
-0.638,-0.97,1.777,0
-0.822,-0.958,-0.567,0
-0.977,-0.839,-1.727,0
-1.052,-0.813,-2.506,0
-0.942,-0.625,-2.512,0
-0.53,-0.316,-1.634,0
-0.144,-0.357,-0.845,0
0.147,-0.586,0.071,0
0.053,-0.83,0.483,0
-0.095,-1.25,0.682,0
-0.139,-1.314,0.611,0
-0.216,-1.316,-0.008,0
-0.22,-1.282,-0.469,0
0.049,-1.047,-1.373,0
0.215,-0.785,-1.937,0
0.225,-0.55,-2.483,0
0.237,-0.44,-2.686,0
0.23,-0.188,-2.736,0
0.207,-0.004,-2.484,0
0.167,0.133,-1.798,0
0.014,0.15,-1.475,0
-0.283,0.081,-1.083,0
-0.364,0.075,-1.001,0
-0.414,0.174,-1.126,0
-0.443,0.257,-1.086,0
-0.467,0.285,-0.828,0
-0.567,0.349,-0.582,0
-0.716,0.384,-0.248,0
-0.717,0.374,-0.109,0
-0.639,0.497,0.252,0
-0.568,0.469,0.353,0
-0.332,0.447,0.614,0
-0.333,0.362,0.978,0
-0.332,0.367,0.976,0
-0.369,0.173,1.689,0
-0.56,0.142,1.609,0
-0.668,0.139,1.199,0
-0.459,0.23,0.751,0
-0.323,0.323,0.766,0
0.014,0.493,1.088,0
0.115,0.554,1.164,0
-0.069,1.025,1.05,0
-0.183,1.385,0.581,0
-0.193,1.353,0.593,1
0.733,1.544,-0.957,0
0.906,1.274,-0.632,0
0.799,0.738,0.938,0
0.532,-0.138,3.749,0
-0.14,-0.383,5.01,0
-0.546,-0.8,7.252,0
-0.143,-0.677,7.523,0
0.326,-0.42,6.592,0
0.595,-0.26,5.127,0
0.801,-0.038,2.828,0
0.763,0.002,1.411,0
0.79,0.056,-0.362,0
0.792,-0.028,-1.14,0
0.779,-0.237,-2.116,0
0.663,-0.377,-2.479,0
0.475,-0.697,-2.683,0
0.419,-0.964,-2.455,0
0.437,-1.134,-1.546,0
0.638,-1.116,-0.983,0
0.993,-0.995,-0.383,0
1.07,-0.929,-0.347,0
1.087,-0.8,-0.979,0
1.079,-0.694,-1.503,0
0.847,-0.747,-2.48,0
0.578,-0.774,-3.15,0
0.183,-0.809,-3.448,0
0.114,-0.77,-3.402,0
0.23,-0.551,-3.094,0
0.212,-0.447,-2.621,0
0.124,-0.292,-1.978,0
0.051,-0.183,-1.623,0
-0.207,-0.105,-1.324,0
-0.341,-0.124,-1.395,0
-0.48,-0.039,-1.433,0
-0.465,0.005,-1.355,0
-0.231,0.111,-1.241,0
-0.129,0.133,-1.076,0
-0.107,0.113,-0.703,0
-0.175,0.023,-0.344,0
-0.155,0.001,0.133,0
-0.146,-0.028,0.293,0
-0.124,-0.006,0.411,0
-0.031,0.115,0.563,0
0.063,0.3,0.574,0
0.068,0.45,0.432,0
0.119,0.628,0.036,0
0.101,0.699,-0.3,0
0.18,0.845,-0.543,0
0.235,0.838,-0.523,0
0.239,0.861,0.094,0
0.281,0.785,0.918,0
0.223,0.693,2.154,0
-0.218,0.935,2.457,0
-0.615,1.25,1.751,1
-0.299,1.265,0.724,0
0.034,1.314,-0.555,0
0.187,1.294,-1.087,0
0.392,1.333,-0.639,0
0.402,1.099,0.28,0
0.58,0.277,2.248,0
0.512,-0.42,3.387,0
0.151,-1.048,3.892,0
-0.033,-1.518,4.529,0
0.202,-1.676,4.226,0
0.298,-1.393,2.981,0
0.001,-1.319,0.28,0
-0.277,-1.344,-1.212,0
-0.561,-1.127,-2.977,0
-0.471,-0.984,-3.407,0
-0.487,-0.912,-3.287,0
-0.498,-0.736,-2.501,0
-0.337,-0.738,-0.761,0
-0.207,-0.8,0.369,0
-0.11,-0.963,1.731,0
-0.326,-1.144,2.146,0
-0.597,-1.343,2.24,0
-0.684,-1.399,1.789,0
-0.761,-1.406,0.851,0
-0.657,-1.318,-0.016,0
-0.49,-0.929,-1.017,0
-0.253,-0.556,-1.598,0
-0.088,-0.326,-2.02,0
0.081,-0.164,-2.183,0
0.028,0.048,-2.16,0
0.05,0.222,-1.966,0
0.112,0.381,-1.731,0
-0.01,0.478,-1.598,0
-0.152,0.544,-1.402,0
-0.094,0.539,-1.231,0
-0.049,0.609,-0.696,0
-0.031,0.593,-0.286,0
0.031,0.561,0.489,0
0.075,0.56,0.809,0
0.104,0.576,1.436,0
0.023,0.577,1.601,0
-0.118,0.441,1.265,0
-0.161,0.365,0.658,0
-0.174,0.347,0.003,0
-0.23,0.248,-0.039,0
-0.163,0.223,0.119,0
-0.158,0.327,0.548,0
-0.004,0.381,1.321,0
0.068,0.402,1.443,0
0.024,0.297,1.312,0
0.056,0.205,1.398,0
0.218,0.42,1.693,0
0.067,0.934,1.737,0
-0.08,1.445,0.812,0
0.456,1.32,0.061,0
0.471,1.286,0.072,1
1.093,1.192,-0.964,0
1.278,0.908,0.036,0
1.02,0.603,1.358,0
0.324,0.127,3.029,0
0.051,-0.278,3.567,0
0.016,-0.798,3.864,0
0.117,-0.983,4.035,0
-0.074,-0.92,4.115,0
-0.295,-0.996,3.8,0
-0.423,-1.06,2.764,0
-0.407,-1.062,1.83,0
-0.321,-0.961,0.485,0
-0.254,-0.918,-0.118,0
-0.188,-0.82,-0.857,0
0.007,-0.814,-1.162,0
0.505,-0.673,-1.436,0
0.843,-0.56,-1.51,0
1.123,-0.595,-1.231,0
1.137,-0.58,-0.983,0
1.133,-0.589,-0.98,0
0.982,-0.729,-0.656,0
0.806,-0.769,-0.67,0
0.592,-0.717,-1.007,0
0.56,-0.597,-1.634,0
0.61,-0.477,-2.08,0
0.628,-0.264,-2.52,0
0.626,-0.266,-2.836,0
0.582,-0.071,-2.429,0
0.614,0.071,-1.992,0
0.609,0.052,-1.985,0
0.628,0.306,-1.643,0
0.479,0.312,-1.886,0
0.358,0.311,-2.012,0
0.188,0.145,-2.021,0
0.122,0.065,-1.747,0
0.128,0.031,-1.334,0
0.16,-0.01,-0.944,0
0.245,0.024,-0.557,0
0.173,0.051,-0.431,0
0.179,0.128,-0.29,0
0.161,0.273,-0.115,0
0.035,0.399,-0.36,0
0.05,0.435,-0.733,0
-0.003,0.469,-1.321,0
-0.011,0.381,-1.699,0
-0.032,0.311,-1.118,0
0.047,0.249,-0.466,0
0.193,0.23,0.664,0
0.361,0.31,1.396,0
0.232,0.196,2.625,0
0.046,0.114,3.218,0
-0.47,0.737,2.862,0
-0.634,1.035,1.75,0
-0.2,1.102,0.07,0
0.512,1.305,-0.91,0
1.208,1.657,-1.991,1
1.327,1.622,-1.584,0
0.968,0.625,0.757,0
0.822,-0.133,2.877,0
0.244,-0.89,5.324,0
0.068,-1.365,6.721,0
0.04,-1.368,7.191,0
0.125,-1.01,5.481,0
0.201,-0.538,1.69,0
0.295,-0.269,-0.211,0
0.338,0.039,-2.502,0
0.161,-0.071,-3.35,0
-0.398,-0.105,-3.204,0
-0.604,-0.297,-1.857,0
-0.208,-0.584,0.441,0
0.02,-0.668,1.277,0
-0.037,-1.057,2.462,0
-0.046,-1.077,2.537,0
-0.062,-1.119,1.876,0
-0.042,-1.128,0.952,0
0.198,-0.882,-0.854,0
0.327,-0.732,-1.863,0
0.326,-0.546,-2.885,0
0.191,-0.503,-3.272,0
0.082,-0.562,-3.243,0
-0.024,-0.522,-3.011,0
-0.078,-0.322,-2.722,0
-0.044,-0.182,-2.549,0
-0.09,0.029,-2.18,0
-0.123,0.133,-1.971,0
-0.279,0.129,-1.568,0
-0.336,0.182,-1.344,0
-0.41,0.192,-0.938,0
-0.513,0.141,-0.666,0
-0.527,0.113,-0.277,0
-0.568,0.088,-0.056,0
-0.472,0.127,0.125,0
-0.345,0.229,0.149,0
-0.076,0.31,0.062,0
0.15,0.28,0.017,0
0.084,0.064,0.242,0
-0.038,-0.119,0.493,0
-0.01,-0.093,0.745,0
-0.107,-0.113,0.577,0
-0.203,-0.102,0.266,0
-0.177,-0.042,0.124,0
0.133,0.126,0.145,0
0.385,0.234,0.61,0
0.579,0.528,1.707,0
0.539,1.029,2.291,0
0.408,1.629,1.649,0
0.668,1.512,0.933,0
1.186,1.213,-0.137,0
1.093,1.143,-0.389,0
0.95,0.601,0.526,1
0.753,0.193,1.627,0
0.173,0.041,3.084,0
-0.041,-0.275,3.421,0
-0.018,-0.217,3.399,0
0.469,-0.75,3.583,0
0.349,-0.758,3.473,0
0.012,-0.741,3.17,0
-0.455,-1.045,2.388,0
-0.696,-1.172,1.706,0
-0.817,-1.286,0.513,0
-0.733,-1.251,-0.18,0
-0.443,-1.011,-0.777,0
-0.186,-0.849,-1.004,0
0.323,-0.722,-1.026,0
0.679,-0.615,-1.095,0
0.92,-0.572,-0.91,0
0.963,-0.582,-0.67,0
0.85,-0.688,-0.498,0
0.685,-0.748,-0.52,0
0.454,-0.713,-0.712,0
0.308,-0.647,-1.054,0
0.257,-0.494,-1.644,0
0.284,-0.336,-2.046,0
0.261,-0.197,-2.355,0
0.424,-0.065,-2.124,0
0.417,-0.072,-2.122,0
0.616,0.374,-1.631,0
0.303,0.274,-1.468,0
-0.011,0.184,-1.368,0
-0.405,0.062,-1.345,0
-0.46,0.013,-1.346,0
-0.352,0.107,-1.153,0
-0.195,0.161,-1.063,0
0.089,0.226,-1.041,0
0.185,0.244,-1.046,0
0.366,0.323,-1.06,0
0.709,0.561,-0.735,0
1.108,0.711,-0.19,0
1.15,0.703,0.136,0
0.81,0.512,0.822,0
0.599,0.428,1.23,0
0.147,0.183,1.442,0
-0.204,0.073,1.26,0
-0.073,0.036,0.453,0
0.085,0.122,0.173,0
0.1,0.074,0.19,0
0.413,0.166,0.632,0
0.535,0.388,1.091,0
0.443,0.691,1.259,0
-0.09,1.31,0.61,0
-0.146,1.418,-0.24,0
0.195,1.375,-1.472,0
0.382,1.429,-1.829,0
0.605,1.499,-1.637,1
0.56,1.086,-0.873,0
1.012,-0.066,1.768,0
0.825,-0.827,3.654,0
0.22,-1.721,6.43,0
0.137,-2.042,7.64,0
-0.115,-1.656,7.446,0
-0.246,-1.358,5.492,0
-0.27,-0.934,1.642,0
-0.381,-0.775,-0.228,0
-0.818,-0.666,-2.265,0
-1.082,-0.631,-2.752,0
-1.112,-0.51,-2.428,0
-0.812,-0.361,-1.647,0
-0.053,-0.289,-0.343,0
0.415,-0.215,0.245,0
0.749,-0.432,0.911,0
0.746,-0.566,0.778,0
0.593,-0.752,0.12,0
0.565,-0.783,-0.445,0
0.585,-0.773,-1.057,0
0.538,-0.72,-1.274,0
0.545,-0.713,-1.276,0
0.063,-0.746,-1.481,0
-0.116,-0.678,-1.551,0
-0.14,-0.556,-1.556,0
-0.067,-0.348,-1.711,0
-0.039,-0.243,-1.869,0
-0.037,-0.255,-1.866,0
0.054,0.007,-2.315,0
0.076,0.075,-1.922,0
-0.046,0.062,-1.266,0
-0.045,0.056,-1.264,0
-0.294,-0.081,-0.43,0
-0.241,-0.039,-0.345,0
-0.153,0.014,-0.437,0
0.004,0.13,-0.623,0
0.064,0.197,-0.564,0
0.38,0.429,-0.158,0
0.552,0.542,0.075,0
0.519,0.604,0.457,0
0.485,0.634,0.467,0
0.349,0.506,0.184,0
0.162,0.38,-0.014,0
-0.096,0.236,-0.022,0
-0.025,0.191,0.123,0
0.031,0.215,0.577,0
0.035,0.258,0.792,0
-0.085,0.257,0.795,0
-0.281,0.478,0.763,0
-0.661,1.033,0.084,0
-0.475,1.076,-0.588,0
0.255,0.904,-1.126,0
0.737,0.96,-1.047,0
1.017,0.829,0.002,1
0.911,0.486,1.448,0
0.415,0.218,3.683,0
0.13,-0.009,4.867,0
0.634,-0.183,5.336,0
0.459,-0.378,5.172,0
-0.005,-0.482,4.251,0
-0.047,-0.468,3.282,0
0.122,-0.225,1.639,0
0.131,-0.223,0.87,0
0.142,-0.38,-0.304,0
-0.072,-0.534,-1.265,0
0.014,-0.732,-2.244,0
0.179,-0.88,-2.267,0
0.246,-1.039,-1.172,0
0.293,-1.06,-0.314,0
0.351,-1.122,0.515,0
0.163,-1.199,1.078,0
0.043,-1.27,1.45,0
0.019,-1.193,1.301,0
0.045,-0.998,0.307,0
0.141,-0.761,-0.644,0
0.325,-0.438,-1.743,0
0.415,-0.256,-2.399,0
0.548,-0.058,-2.847,0
0.576,0.052,-2.913,0
0.334,0.129,-2.43,0
0.233,0.097,-2.013,0
0.094,0.095,-1.583,0
0.004,0.131,-1.572,0
0.193,0.264,-1.748,0
0.123,0.3,-1.962,0
0.359,0.399,-2.152,0
0.57,0.517,-1.982,0
0.565,0.507,-1.978,0
0.907,0.736,-1.419,0
0.902,0.723,-0.855,0
0.817,0.618,-0.26,0
0.674,0.334,0.572,0
0.367,0.121,1.11,0
-0.134,-0.056,1.523,0
-0.395,-0.077,1.815,0
-0.332,-0.267,2.575,0
-0.039,-0.155,2.257,0
0.262,0.079,1.286,0
0.289,0.2,1.234,0
0.327,0.225,1.382,0
0.371,0.149,1.508,0
0.492,0.007,1.762,0
0.157,0.246,1.664,0
-0.64,0.991,0.826,0
-0.712,1.108,-0.263,0
-0.376,0.979,-1.79,0
-0.201,0.968,-2.023,0
0.319,1.131,-1.16,1
0.513,0.874,0.217,0
1.129,-0.042,2.505,0
1.375,-0.772,3.775,0
1.04,-1.256,4.958,0
0.484,-1.457,5.599,0
-0.013,-1.5,4.438,0
-0.291,-1.307,2.382,0
-0.455,-1.054,0.145,0
-0.371,-0.79,-0.704,0
-0.453,-0.338,-1.042,0
-0.412,-0.317,-0.602,0
-0.022,-0.454,0.139,0
0.155,-0.563,0.539,0
0.308,-0.875,0.654,0
0.249,-1.064,0.537,0
0.222,-1.055,0.535,0
0.536,-0.987,-0.205,0
0.67,-0.92,-0.897,0
0.706,-0.821,-1.393,0
0.596,-0.655,-2.07,0
0.333,-0.717,-2.347,0
0.295,-0.528,-2.598,0
0.101,-0.433,-2.365,0
0.073,-0.39,-2.167,0
0.134,-0.266,-2.216,0
0.218,0.065,-2.264,0
0.292,0.117,-2.431,0
0.233,0.237,-2.762,0
0.106,0.174,-2.967,0
-0.055,0.147,-3.023,0
-0.249,0.115,-2.711,0
-0.54,0.184,-2.087,0
-0.727,0.143,-1.467,0
-0.892,-0.085,-0.379,0
-0.757,-0.127,0.052,0
-0.461,0.013,0.247,0
-0.352,0.038,0.168,0
-0.359,0.03,0.171,0
-0.185,0.395,-0.043,0
-0.187,0.386,-0.04,0
-0.257,0.378,0.187,0
-0.267,0.485,0.672,0
-0.138,0.442,1.149,0
-0.147,0.441,1.149,0
0.049,0.334,2.503,0
0.245,0.432,3.13,0
0.347,0.793,2.974,0
0.145,1.345,1.81,0
0.146,1.31,1.823,0
0.977,1.296,0.439,0
1.132,1.331,0.367,0
1.14,1.329,0.368,1
0.936,0.409,2.496,0
0.048,-0.252,4.127,0
-0.4,-0.535,4.372,0
-0.688,-0.931,4.051,0
-0.636,-0.98,3.521,0
-0.379,-0.739,2.536,0
-0.16,-0.579,1.857,0
-0.214,-0.619,1.333,0
-0.155,-0.68,0.817,0
-0.092,-0.907,0.301,0
0.001,-0.979,0.191,0
0.184,-1.077,0.109,0
0.328,-1.081,0.059,0
0.523,-1.042,-0.055,0
0.537,-1.033,-0.058,0
0.665,-0.941,-0.773,0
0.661,-0.928,-1.063,0
0.562,-0.837,-1.511,0
0.493,-0.891,-1.749,0
0.369,-0.844,-2.151,0
0.289,-0.83,-2.28,0
0.29,-0.831,-2.28,0
0.345,-0.496,-2.024,0
0.318,-0.498,-2.024,0
0.633,-0.114,-1.551,0
0.457,-0.111,-1.39,0
0.272,-0.135,-1.276,0
-0.131,-0.286,-1.097,0
-0.261,-0.305,-1.064,0
-0.385,-0.242,-1.101,0
-0.307,-0.113,-1.124,0
-0.016,0.151,-1.326,0
0.183,0.309,-1.609,0
0.44,0.405,-1.792,0
0.535,0.431,-1.694,0
0.592,0.388,-1.422,0
0.624,0.34,-1.132,0
0.345,0.092,-0.026,0
0.142,-0.063,0.606,0
-0.192,-0.196,0.884,0
-0.28,-0.176,0.474,0
-0.053,0.033,-0.077,0
0.133,0.104,-0.442,0
0.205,0.323,-0.455,0
0.385,0.536,-0.028,0
0.737,0.717,0.579,0
0.51,0.631,0.975,0
0.518,0.619,0.979,0
0.417,0.118,2.249,0
0.008,-0.053,2.584,0
-0.61,0.237,2.164,0
-1.267,1.017,-0.067,0
