accelX,accelY,accelZ,label
0.286,1.263,0.873,1
-0.092,1.413,1.193,0
-0.296,1.563,1.065,0
-0.187,1.528,0.213,0
0.291,1.344,-0.504,0
1.518,1.211,-1.141,0
2.112,1.228,-0.594,0
2.104,0.601,1.207,0
1.665,0.215,2.376,0
0.611,-0.189,3.588,0
-0.089,-0.355,3.91,0
-0.061,-0.265,3.883,0
-0.723,-0.561,2.367,0
-0.436,-0.282,0.343,0
0,0.054,-0.718,0
0.425,0.387,-1.961,0
0.534,0.401,-2.275,0
0.632,0.173,-2.407,0
0.704,0.111,-2.47,0
0.658,0.09,-2.369,0
0.609,0.125,-2.135,0
0.669,0.215,-1.796,0
0.803,0.353,-1.774,0
1.018,0.695,-1.944,0
1.063,0.912,-2.067,0
0.984,1.059,-2.169,0
0.914,1.068,-2.249,0
0.583,1.107,-2.215,0
0.348,1.135,-2.188,0
0.037,1.175,-2.392,0
-0.087,1.201,-2.598,0
-0.087,1.271,-2.858,0
0.039,1.335,-2.884,0
0.264,1.343,-2.81,0
0.391,1.374,-2.608,0
0.673,1.447,-1.692,0
0.816,1.444,-0.817,0
0.81,1.285,0.525,0
0.688,1.153,0.977,0
0.335,0.908,1.129,0
0.054,0.774,0.939,0
-0.327,0.649,0.44,0
-0.441,0.631,0.21,0
-0.263,0.787,-0.029,0
-0.185,0.97,0.074,0
-0.005,1.185,0.677,0
0.136,1.262,1.15,0
0.207,1.264,1.856,0
0.302,1.213,2.162,0
0.41,1.218,2.289,0
0.456,1.342,1.919,0
0.513,1.332,1.068,0
0.505,1.173,0.763,0
0.294,1.082,0.485,1
0.029,1.171,0.423,0
-0.409,1.337,0.364,0
-0.665,1.466,0.271,0
-0.703,1.688,-0.093,0
-0.26,1.522,-0.503,0
0.612,1.001,-0.87,0
0.736,0.568,-0.158,0
0.698,-0.3,2.077,0
0.505,-0.667,3.488,0
-0.505,-1.294,4.847,0
-1.253,-1.387,4.815,0
-1.584,-1.111,3.236,0
-1.104,-0.744,1.792,0
-0.177,0.133,-0.584,0
0.319,0.612,-1.754,0
0.816,1.076,-2.304,0
1.028,1.223,-1.949,0
1.15,1.177,-0.857,0
0.961,0.978,-0.207,0
0.493,0.36,0.619,0
0.227,0.009,0.806,0
-0.099,-0.301,0.355,0
-0.08,-0.228,-0.216,0
0.158,-0.004,-1.323,0
0.376,0.131,-1.883,0
0.459,0.305,-2.317,0
0.396,0.41,-2.289,0
0.178,0.358,-1.925,0
-0.013,0.266,-1.666,0
-0.321,0.172,-1.431,0
-0.473,0.135,-1.39,0
-0.594,0.085,-1.585,0
-0.568,0.139,-1.767,0
-0.416,0.412,-1.912,0
-0.255,0.594,-1.901,0
-0.017,0.824,-1.698,0
0.072,0.852,-1.536,0
0.025,0.798,-1.188,0
-0.042,0.727,-0.995,0
-0.155,0.616,-0.747,0
-0.255,0.593,-0.514,0
-0.36,0.566,-0.24,0
-0.41,0.595,-0.249,0
-0.543,0.74,-0.277,0
-0.523,0.824,-0.279,0
-0.36,0.892,-0.04,0
-0.204,0.921,0.161,0
0.17,0.892,0.605,0
0.412,0.86,1.008,0
0.779,0.562,1.896,0
0.766,0.36,2.21,0
0.307,0.139,1.994,0
-0.065,0.119,1.639,0
-0.738,0.196,1.034,0
-0.924,0.312,0.807,0
-0.821,0.79,0.57,0
-0.756,1.209,0.599,0
-0.736,1.195,0.603,1
-0.108,2.301,0.399,0
0.701,2.438,-0.531,0
1.237,2.113,-1.011,0
2.004,1.284,-0.485,0
2.2,0.768,0.708,0
1.668,-0.134,3.381,0
0.95,-0.474,4.593,0
-0.345,-0.798,5.642,0
-0.77,-0.886,5.448,0
-0.802,-0.852,2.884,0
-0.483,-0.635,1,0
-0.403,-0.623,0.994,0
0.244,-0.165,-2.531,0
0.154,-0.209,-2.553,0
0.113,-0.347,-1.792,0
0.161,-0.48,-0.333,0
0.143,-0.278,0.229,0
0.23,-0.057,0.343,0
0.273,-0.023,-0.134,0
0.55,0.283,-1.697,0
0.748,0.487,-2.599,0
1.118,0.784,-3.511,0
1.23,0.903,-3.439,0
1.156,1.049,-2.931,0
1.088,1.141,-2.554,0
0.91,1.124,-1.634,0
0.75,0.953,-1.266,0
0.366,0.72,-1.059,0
0.048,0.702,-1.245,0
-0.134,0.635,-1.675,0
-0.164,0.569,-1.764,0
-0.161,0.583,-1.455,0
-0.04,0.655,-1.173,0
0.329,0.768,-0.72,0
0.399,0.798,-0.445,0
0.328,0.69,-0.248,0
0.214,0.597,-0.255,0
0.169,0.586,-0.265,0
0.271,0.605,-0.298,0
0.255,0.745,-0.121,0
0.207,0.779,0.195,0
0.246,0.892,0.482,0
0.284,0.997,0.508,0
0.27,1.195,0.406,0
0.314,1.267,0.247,0
0.312,1.347,0.051,0
0.297,1.327,0.104,0
0.185,1.229,0.354,0
0.13,1.104,0.554,0
0.118,0.976,1.014,0
0.036,0.954,1.369,0
-0.317,1.206,1.775,0
-0.272,1.364,1.792,0
0.06,1.436,0.849,1
0.005,1.435,0.04,0
-0.405,1.429,-0.943,0
-0.797,1.398,-1.317,0
-1.101,1.198,-1.405,0
-1.122,0.892,-1.181,0
-0.94,0.165,-0.182,0
-0.689,-0.243,0.804,0
-0.02,-0.551,3.068,0
0.276,-0.643,4.544,0
0.57,-0.858,4.904,0
0.519,-0.885,3.965,0
0.505,-0.871,3.96,0
0.086,-0.704,0.012,0
-0.153,-0.546,-1.325,0
-0.322,-0.484,-1.579,0
-0.559,-0.387,-1.526,0
-0.643,-0.337,-1.206,0
-0.591,-0.301,-0.383,0
-0.523,-0.242,-0.085,0
-0.497,-0.26,-0.104,0
-0.475,-0.304,-0.412,0
-0.478,-0.296,-0.415,0
0.013,-0.141,-2.091,0
0.222,0.124,-2.676,0
0.297,0.159,-2.671,0
0.304,0.176,-2.677,0
-0.155,0.121,-1.194,0
-0.539,0.028,-0.254,0
-0.745,-0.063,-0.089,0
-1.039,-0.092,-0.517,0
-1.109,0.007,-1.01,0
-0.99,0.351,-1.649,0
-0.761,0.548,-1.874,0
-0.291,0.744,-1.916,0
-0.129,0.838,-1.765,0
0.052,0.877,-1.164,0
0.011,0.803,-0.846,0
-0.301,0.653,-0.276,0
-0.544,0.53,-0.109,0
-0.909,0.36,-0.268,0
-0.994,0.412,-0.626,0
-0.91,0.542,-1.2,0
-0.721,0.6,-1.368,0
-0.467,0.696,-1.08,0
-0.448,0.704,-1.083,0
-0.228,0.924,0.247,0
-0.366,0.922,0.48,0
-0.86,0.657,0.483,0
-1.154,0.485,0.409,0
-1.423,0.27,0.405,0
-1.452,0.238,0.703,0
-1.446,0.228,0.706,0
-1.146,0.422,1.777,0
-0.93,0.599,1.821,0
-0.858,0.839,1.824,0
-0.645,0.989,1.417,0
-0.54,0.849,0.795,0
-0.713,0.664,-0.095,1
-0.906,0.692,-0.149,0
-1.015,0.822,0.661,0
-1.035,0.854,1.427,0
-0.949,1.108,2.605,0
-0.81,1.254,2.638,0
-0.406,1.021,1.857,0
-0.272,0.729,1.231,0
-0.393,-0.003,0.743,0
-0.673,-0.476,1.128,0
-1.295,-0.931,2.442,0
-1.463,-1.024,3.033,0
-1.637,-1.09,3.275,0
-1.515,-0.998,2.787,0
-1.121,-0.644,0.998,0
-0.969,-0.368,0.059,0
-0.705,-0.052,-1.358,0
-0.542,0.1,-1.997,0
-0.464,0.15,-2.422,0
-0.501,0.103,-2.347,0
-0.699,-0.086,-1.688,0
-0.758,-0.178,-1.069,0
-0.648,-0.175,-0.239,0
-0.57,-0.097,0.083,0
-0.456,0.059,-0.022,0
-0.315,0.215,-0.344,0
-0.147,0.421,-1.186,0
-0.092,0.512,-1.702,0
-0.179,0.67,-2.303,0
-0.409,0.735,-2.246,0
-0.751,0.688,-1.644,0
-0.89,0.653,-1.202,0
-1.012,0.681,-0.584,0
-0.99,0.671,-0.502,0
-0.927,0.753,-0.709,0
-0.915,0.755,-0.99,0
-1.085,0.783,-1.369,0
-1.197,0.761,-1.292,0
-1.226,0.558,-0.808,0
-1.252,0.468,-0.261,0
-1.066,0.356,0.741,0
-0.803,0.342,1.15,0
-0.637,0.365,1.091,0
-0.695,0.288,0.82,0
-0.706,0.236,0.838,0
-0.871,0.145,0.037,0
-0.975,0.161,-0.105,0
-1.032,0.148,0.039,0
-1.037,0.075,0.535,0
-0.958,0.089,0.991,0
-0.966,0.069,0.999,0
-0.919,0.031,2.357,0
-1.126,-0.117,2.57,0
-1.267,-0.146,2.155,0
-1.408,0.153,0.82,0
-1.346,0.322,0.051,0
-1.328,0.585,-0.821,0
-1.456,0.792,-0.919,1
-1.517,1.009,-0.9,0
-1.468,1.083,-0.8,0
-1.32,0.912,-0.825,0
-1.125,0.549,-0.74,0
-0.846,-0.186,0.103,0
-0.86,-0.438,1.098,0
-1.1,-0.877,2.593,0
-1.557,-1.181,3.005,0
-2.401,-1.562,2.746,0
-2.81,-1.66,1.949,0
-2.876,-1.348,-0.336,0
-2.626,-1.008,-1.439,0
-2.281,-0.608,-2.806,0
-2.089,-0.359,-3.241,0
-1.717,0.135,-3.125,0
-1.335,0.346,-2.526,0
-0.802,0.53,-1.066,0
-0.621,0.519,-0.186,0
-0.611,0.109,1.022,0
-0.847,-0.248,1.385,0
-1.185,-0.525,0.81,0
-1.261,-0.57,0.214,0
-1.024,-0.683,-0.805,0
-0.865,-0.6,-1.248,0
-0.849,-0.386,-1.613,0
-0.904,-0.225,-1.612,0
-0.994,0.144,-1.224,0
-1.005,0.289,-1.061,0
-0.968,0.624,-1.156,0
-0.929,0.808,-1.391,0
-0.868,0.961,-1.898,0
-0.856,0.978,-2.112,0
-0.869,0.968,-2.144,0
-0.922,0.996,-1.885,0
-0.967,0.866,-1.186,0
-0.95,0.781,-0.766,0
-1.068,0.593,-0.265,0
-1.225,0.544,-0.12,0
-1.4,0.427,0.059,0
-1.408,0.365,0.227,0
-1.193,0.547,0.608,0
-0.988,0.722,0.767,0
-0.568,0.19,0.628,0
-0.903,0.55,0.735,0
-1.379,1.849,1.439,0
-0.367,1.62,1.159,0
-0.349,1.626,1.155,0
-0.462,1.784,0.818,0
-0.343,1.239,0.989,0
-0.278,0.888,1.063,0
-0.786,1.024,1.12,0
-0.923,1.094,1.218,0
-0.622,0.7,1.146,1
-0.534,0.547,0.967,0
-0.774,0.532,1.143,0
-1.112,0.304,2.646,0
-0.293,0.866,2.006,0
-0.567,1.155,2.235,0
-0.374,1.193,1.393,0
-0.196,1.039,0.932,0
0.362,0.737,0.058,0
0.619,0.64,-0.259,0
0.16,0.207,0.305,0
-0.396,-0.156,1.145,0
-1.118,-0.735,2.307,0
-1.393,-0.886,2.506,0
-1.684,-1.148,2.245,0
-1.724,-1.234,1.819,0
-1.68,-1.24,0.898,0
-1.453,-1.097,0.433,0
-0.761,-0.754,-0.244,0
-0.321,-0.573,-0.742,0
0.088,-0.379,-1.451,0
0.06,-0.33,-1.478,0
0.08,-0.326,-1.479,0
-0.377,-0.563,-0.887,0
-0.603,-0.576,-0.683,0
-0.635,-0.548,-0.682,0
-0.417,-0.303,-1.211,0
-0.295,-0.076,-1.636,0
-0.114,0.132,-2.285,0
-0.012,0.23,-2.569,0
0.102,0.478,-2.801,0
0.131,0.619,-2.694,0
-0.057,0.673,-2.057,0
-0.244,0.589,-1.559,0
-0.494,0.411,-0.935,0
-0.681,0.319,-0.728,0
-0.833,0.186,-0.907,0
-0.803,0.168,-1.217,0
-0.792,0.146,-1.21,0
-0.467,0.333,-1.437,0
-0.125,0.378,-1.103,0
-0.047,0.469,-0.699,0
0.146,0.492,0.103,0
0.186,0.505,0.54,0
-0.063,0.389,0.885,0
-0.266,0.324,0.81,0
-0.881,0.073,0.843,0
-1.099,-0.034,0.867,0
-0.993,0.079,0.955,0
-0.801,0.236,1.083,0
-0.777,0.223,1.087,0
-0.329,0.269,1.001,0
-0.066,0.444,1.038,0
0.12,0.665,1.286,0
0.097,0.629,1.3,0
0.493,0.956,1.332,0
0.426,1.021,0.782,1
0.213,1.094,0.575,0
-0.142,1.246,0.189,0
-0.316,1.215,-0.151,0
-0.503,1.11,-0.508,0
-0.383,0.969,-0.685,0
0.252,0.435,-1.099,0
0.467,-0.011,-0.653,0
0.661,-0.666,1.306,0
0.51,-0.946,2.988,0
-0.037,-1.328,4.829,0
-0.524,-1.463,5.234,0
-0.974,-1.538,3.682,0
-0.959,-1.362,1.965,0
-0.712,-0.977,-0.517,0
-0.531,-0.871,-1.593,0
-0.744,-0.754,-2.517,0
-0.91,-0.699,-2.391,0
-0.917,-0.695,-2.393,0
-0.979,-0.772,-0.621,0
-0.759,-0.858,0.263,0
-0.671,-0.833,0.683,0
-0.359,-0.829,0.649,0
-0.101,-0.81,0.153,0
0.134,-0.674,-0.767,0
0.078,-0.593,-1.049,0
-0.047,-0.527,-1.029,0
-0.17,-0.504,-0.937,0
-0.584,-0.437,-0.992,0
-0.755,-0.425,-1.088,0
-0.829,-0.444,-1.34,0
-0.807,-0.349,-1.514,0
-0.688,-0.098,-1.725,0
-0.635,0.016,-1.651,0
-0.615,0.086,-1.367,0
-0.594,0.123,-1.256,0
-0.513,0.279,-0.932,0
-0.52,0.251,-0.71,0
-0.626,0.183,-0.745,0
-0.7,0.155,-0.9,0
-0.835,0.121,-1.072,0
-0.792,0.046,-1.136,0
-0.714,-0.053,-0.704,0
-0.775,-0.094,-0.082,0
-0.769,-0.128,0.923,0
-0.724,-0.083,1.187,0
-0.784,0.009,1.365,0
-0.735,0.001,1.237,0
-0.561,-0.051,0.835,0
-0.336,-0.056,0.583,0
-0.033,0.039,0.551,0
0.158,0.093,0.768,0
0.227,0.144,1.174,0
0.106,0.117,1.28,0
-0.283,-0.054,1.186,0
-0.462,-0.135,1.003,0
-0.493,0.003,0.53,0
-0.504,0.144,0.309,1
-0.468,0.135,0.311,0
-0.631,0.718,0.54,0
-0.747,0.96,0.637,0
-0.52,0.979,0.45,0
0.48,0.507,0.075,0
0.956,0.12,0.255,0
1.473,-0.432,2.333,0
1.536,-0.677,4.068,0
0.878,-1.16,6.002,0
0.304,-1.237,6.365,0
-0.415,-1.373,5.161,0
-0.362,-1.313,3.388,0
-0.068,-0.867,0.109,0
0.24,-0.679,-0.937,0
0.631,-0.55,-2.387,0
0.67,-0.489,-2.465,0
0.586,-0.435,-1.557,0
0.615,-0.525,-0.783,0
0.63,-0.575,0.228,0
0.629,-0.603,0.606,0
0.74,-0.622,0.281,0
0.815,-0.573,-0.4,0
0.982,-0.481,-1.592,0
1.058,-0.486,-2.031,0
1.113,-0.4,-2.367,0
1.062,-0.354,-2.307,0
0.779,-0.308,-1.758,0
0.588,-0.384,-1.399,0
0.339,-0.419,-0.991,0
0.333,-0.358,-0.976,0
0.347,-0.38,-0.967,0
0.581,-0.13,-1.476,0
0.774,-0.101,-1.798,0
0.958,-0.056,-1.84,0
1.033,0.031,-1.448,0
0.871,-0.05,-1.043,0
0.567,-0.254,-0.301,0
0.397,-0.332,0.198,0
0.251,-0.356,1.042,0
0.241,-0.313,1.238,0
0.197,-0.201,0.848,0
0.184,-0.153,0.514,0
0.064,-0.036,0.329,0
0,0.029,0.344,0
0.019,0.019,0.349,0
0.101,0.236,0.649,0
0.24,0.293,0.885,0
0.318,0.31,1.239,0
0.59,0.313,1.991,0
0.674,0.31,2.372,0
0.691,0.36,2.972,0
0.875,0.466,3.091,0
1.04,0.513,2.331,0
0.829,0.512,1.657,0
0.352,0.41,0.561,0
0.11,0.309,0.104,1
-0.209,0.31,-0.254,0
-0.154,0.311,-0.139,0
0.413,0.07,0.399,0
0.864,-0.161,1.106,0
1.685,-0.704,3.157,0
1.766,-0.92,4.401,0
1.112,-1.458,5.802,0
0.399,-1.791,5.86,0
-0.534,-2.175,4.21,0
-0.681,-2.103,2.402,0
-0.452,-1.809,-0.802,0
-0.276,-1.591,-2.05,0
0.081,-1.208,-3.053,0
0.176,-1.014,-2.882,0
0.21,-0.867,-1.377,0
0.23,-0.987,-0.446,0
0.161,-1.194,0.483,0
-0.026,-1.329,0.539,0
-0.258,-1.537,0.167,0
-0.212,-1.449,-0.409,0
0.049,-1.137,-1.348,0
0.129,-1.001,-1.802,0
-0.014,-0.876,-2.298,0
-0.102,-0.861,-2.394,0
-0.168,-0.769,-2.255,0
-0.282,-0.801,-1.957,0
-0.278,-0.799,-1.958,0
-0.652,-0.975,-1.076,0
-0.829,-0.961,-0.045,0
-0.787,-0.965,0.356,0
-0.605,-0.76,0.293,0
-0.45,-0.524,-0.008,0
-0.436,-0.533,-0.005,0
0.021,-0.073,-1.055,0
0.214,0.018,-1.28,0
0.318,0.086,-1.261,0
0.345,0.085,-1.047,0
0.274,-0.014,-0.837,0
0.15,-0.168,-0.302,0
0.181,-0.143,0.147,0
0.334,-0.067,0.885,0
0.343,-0.078,1.1,0
0.278,-0.243,1.012,0
0.29,-0.25,0.703,0
0.234,-0.083,0.532,0
0.328,-0.085,0.545,0
0.415,-0.067,0.759,0
0.415,-0.113,0.918,0
0.353,-0.134,1.213,0
0.401,-0.196,1.42,0
0.45,-0.412,1.709,0
0.231,-0.474,1.911,0
-0.329,-0.516,1.942,0
-0.477,-0.613,1.744,0
-0.356,-0.828,1.459,1
-0.164,-0.886,1.465,0
0.066,-0.558,2.005,0
0.17,-0.403,2.393,0
0.193,-0.317,2.575,0
0.072,-0.287,2.293,0
0.07,-0.309,2.303,0
0.471,-0.466,0.994,0
0.861,-0.816,1.088,0
0.878,-0.987,1.589,0
0.504,-1.284,2.805,0
0.224,-1.36,3.038,0
-0.219,-1.356,2.421,0
-0.326,-1.329,1.698,0
-0.27,-1.195,0.37,0
-0.158,-1.053,-0.258,0
0.175,-0.961,-1.136,0
0.389,-0.883,-1.431,0
0.54,-0.8,-1.436,0
0.617,-0.842,-1.187,0
0.536,-1.046,-0.768,0
0.463,-1.193,-0.596,0
0.157,-1.427,-0.357,0
0.065,-1.523,-0.303,0
0.183,-1.488,-0.492,0
0.295,-1.331,-0.632,0
0.301,-1.328,-0.633,0
0.672,-0.863,-1.091,0
0.852,-0.562,-1.2,0
0.882,-0.347,-1.297,0
0.829,-0.124,-1.528,0
0.787,-0.118,-1.786,0
0.473,-0.137,-2.382,0
0.296,-0.198,-2.586,0
0.002,-0.35,-2.298,0
-0.16,-0.454,-1.726,0
-0.262,-0.59,-0.711,0
-0.166,-0.529,-0.216,0
0.138,-0.367,0.216,0
0.293,-0.331,0.27,0
0.427,-0.316,0.179,0
0.461,-0.317,0.048,0
0.462,-0.323,0.051,0
0.316,-0.404,-0.104,0
0.268,-0.42,0.208,0
0.248,-0.375,0.481,0
0.227,-0.234,1.013,0
0.171,-0.116,1.171,0
0.093,0.06,1.206,0
0.074,0.063,1.104,0
0.219,0.183,0.81,0
0.345,0.184,0.66,0
0.469,0.177,0.736,0
0.497,0.114,1.037,0
0.56,0.134,1.828,0
0.543,0.123,1.832,1
0.331,0.394,2.272,0
0.436,0.211,2.205,0
0.357,0.035,1.85,0
0.028,0.104,1.507,0
-0.486,0.136,0.97,0
-0.726,0.045,0.595,0
-1.032,-0.097,0.026,0
-1.089,-0.12,-0.213,0
-0.695,-0.318,-0.521,0
-0.256,-0.615,-0.52,0
0.474,-1.016,0.385,0
0.876,-1.21,1.397,0
1.38,-1.411,3.094,0
1.279,-1.387,3.668,0
0.653,-1.501,3.414,0
0.21,-1.638,2.201,0
-0.452,-1.633,-0.149,0
-0.684,-1.557,-1.496,0
-0.687,-1.195,-2.694,0
-0.64,-0.967,-2.9,0
-0.538,-0.845,-2.594,0
-0.401,-0.833,-2.289,0
-0.018,-0.612,-1.799,0
0.303,-0.476,-1.584,0
0.561,-0.491,-1.176,0
0.486,-0.653,-1.066,0
0.39,-0.838,-1.088,0
0.33,-0.884,-0.97,0
0.154,-1.012,-0.206,0
0.1,-1.049,0.362,0
0.046,-0.989,0.942,0
0.004,-0.908,1.104,0
0.105,-0.678,1.214,0
0.227,-0.52,1.031,0
0.231,-0.504,1.024,0
0.22,-0.35,-0.319,0
0.203,-0.452,-0.736,0
0.253,-0.413,-0.703,0
0.154,-0.437,-0.333,0
0.035,-0.517,-0.05,0
0.037,-0.508,-0.054,0
-0.086,-0.568,0.779,0
0.122,-0.435,0.801,0
0.271,-0.322,0.584,0
0.494,-0.191,0.18,0
0.555,-0.197,0.013,0
0.636,-0.18,-0.073,0
0.589,-0.144,0.092,0
0.423,-0.27,0.431,0
0.313,-0.329,0.634,0
0.359,-0.455,0.965,0
0.364,-0.472,0.972,0
0.299,-0.572,1.167,0
0.437,-0.625,1.129,0
0.597,-0.576,1.209,0
0.552,-0.519,1.28,0
0.51,-0.441,1.104,0
0.516,-0.441,0.941,0
0.44,-0.621,0.686,0
0.406,-0.657,0.633,0
0.43,-0.658,0.635,1
0.026,-0.41,1.263,0
-0.372,-0.216,1.262,0
-0.595,-0.168,0.903,0
-0.405,-0.315,-0.001,0
0.123,-0.496,-0.322,0
1.245,-0.774,0.521,0
1.643,-0.955,1.38,0
1.735,-1.3,3.482,0
1.397,-1.381,4.333,0
0.592,-1.468,4.604,0
0.058,-1.499,4.023,0
-0.192,-1.52,2.329,0
-0.098,-1.423,1.086,0
0.245,-0.906,-0.507,0
0.472,-0.637,-0.961,0
0.783,-0.417,-0.954,0
0.928,-0.393,-0.676,0
1.051,-0.541,-0.351,0
1.054,-0.605,-0.331,0
1.049,-0.607,-0.331,0
0.884,-1.006,-0.468,0
0.875,-1.03,-0.566,0
0.963,-0.947,-0.669,0
1.103,-0.763,-0.867,0
1.124,-0.695,-0.954,0
1.142,-0.54,-1.017,0
1.124,-0.474,-1.083,0
1.059,-0.351,-1.365,0
0.958,-0.31,-1.453,0
0.842,-0.327,-1.301,0
0.757,-0.354,-1.212,0
0.565,-0.429,-1.026,0
0.466,-0.511,-0.869,0
0.315,-0.591,-0.583,0
0.309,-0.575,-0.476,0
0.381,-0.494,-0.532,0
0.562,-0.395,-0.631,0
0.814,-0.232,-0.791,0
0.87,-0.19,-0.836,0
0.776,-0.286,-0.759,0
0.784,-0.293,-0.755,0
0.45,-0.346,0.03,0
0.337,-0.352,0.447,0
0.124,-0.292,0.552,0
-0.029,-0.285,0.36,0
-0.131,-0.262,-0.124,0
-0.065,-0.283,-0.312,0
0.002,-0.245,-0.069,0
0.101,-0.199,0.366,0
0.385,-0.008,1.746,0
0.499,0.159,2.807,0
0.672,0.346,3.69,0
0.611,0.315,3.264,0
0.366,0.102,1.738,0
0.135,-0.067,0.754,0
0.018,0.031,-0.219,0
-0.095,0.203,-0.461,1
-0.347,0.156,-0.658,0
-0.5,0.026,-0.668,0
-0.624,-0.239,-0.478,0
-0.416,-0.444,0.097,0
0.475,-0.771,1.673,0
0.923,-0.942,2.69,0
1.11,-1.293,4.253,0
0.739,-1.56,4.66,0
-0.019,-1.856,3.803,0
-0.267,-1.897,2.528,0
-0.255,-1.76,0.443,0
-0.206,-1.61,-0.619,0
-0.245,-1.287,-1.543,0
-0.148,-1.139,-1.489,0
0.182,-0.823,-0.535,0
0.371,-0.695,0.401,0
0.508,-0.689,1.308,0
0.456,-0.8,1.539,0
0.132,-1.053,1.236,0
-0.027,-1.088,0.699,0
-0.02,-1.001,-0.339,0
0.113,-0.946,-0.806,0
0.374,-0.772,-1.175,0
0.426,-0.723,-1.146,0
0.498,-0.655,-0.826,0
0.458,-0.563,-0.595,0
0.369,-0.533,-0.566,0
0.298,-0.508,-0.686,0
0.19,-0.409,-0.879,0
0.202,-0.37,-0.998,0
0.052,-0.294,-1.195,0
-0.045,-0.264,-1.196,0
-0.193,-0.317,-1.115,0
-0.3,-0.377,-1.016,0
-0.269,-0.344,-0.848,0
-0.135,-0.28,-0.798,0
0.052,-0.265,-0.79,0
0.097,-0.301,-0.757,0
0.18,-0.329,-0.629,0
0.23,-0.366,-0.387,0
0.274,-0.371,0.351,0
0.308,-0.345,0.8,0
0.185,-0.36,1.57,0
0.088,-0.36,1.671,0
0.084,-0.435,1.374,0
0.151,-0.474,1.03,0
0.313,-0.532,0.643,0
0.471,-0.54,0.603,0
0.475,-0.571,0.617,0
0.694,-0.178,1.222,0
0.666,-0.032,1.254,0
0.628,-0.118,0.949,0
0.584,-0.439,0.69,0
0.383,-0.482,0.934,0
0.388,-0.49,0.938,0
-0.132,-0.441,2.031,1
-0.426,-0.229,1.79,0
-0.631,-0.107,1.259,0
-0.281,-0.129,0.026,0
0.237,-0.255,-0.464,0
1.493,-0.274,-0.922,0
1.886,-0.311,-0.262,0
1.525,-0.786,1.516,0
0.963,-1.116,2.432,0
-0.079,-1.646,3.337,0
-0.545,-1.847,3.214,0
-0.96,-2.07,2.46,0
-0.795,-2.018,1.805,0
-0.163,-1.568,0.452,0
0.16,-1.192,-0.313,0
0.498,-1.054,-1.126,0
0.588,-1.04,-1.379,0
0.436,-1.089,-1.297,0
0.304,-1.187,-0.984,0
0.062,-1.417,-0.301,0
-0.015,-1.455,-0.102,0
0.149,-1.428,0.063,0
0.317,-1.281,-0.02,0
0.745,-0.905,-0.33,0
1.037,-0.628,-0.653,0
1.158,-0.366,-1.156,0
1.124,-0.244,-1.373,0
1.012,-0.053,-1.541,0
0.878,-0.049,-1.521,0
0.533,-0.177,-1.513,0
0.316,-0.244,-1.587,0
0.174,-0.25,-1.641,0
0.134,-0.268,-1.508,0
0.218,-0.257,-1.173,0
0.33,-0.209,-0.843,0
0.508,-0.036,-0.278,0
0.589,-0.015,-0.029,0
0.771,0.074,0.368,0
0.841,0.12,0.544,0
0.721,0.023,0.527,0
0.406,-0.061,0.353,0
-0.112,-0.29,-0.129,0
-0.391,-0.348,-0.272,0
-0.511,-0.361,-0.018,0
-0.416,-0.319,0.39,0
-0.409,-0.326,0.394,0
0.069,-0.022,1.496,0
0.276,-0.118,1.576,0
0.446,-0.04,1.683,0
0.728,0.154,2.198,0
0.791,0.158,2.674,0
0.543,0.043,2.917,0
0.462,0.009,2.683,0
0.434,0.043,1.769,0
0.461,-0.031,1.289,0
0.268,0.042,0.811,1
0.046,0.179,0.711,0
-0.18,0.226,0.364,0
-0.272,0.169,0.24,0
-0.358,0.105,0.011,0
-0.215,-0.105,-0.304,0
0.299,-0.593,-0.457,0
0.475,-1.083,0.064,0
0.56,-1.694,1.717,0
0.404,-1.753,2.741,0
-0.056,-1.867,3.314,0
-0.4,-1.845,2.824,0
-0.929,-1.816,1.349,0
-1.173,-1.866,0.181,0
-1.402,-1.61,-1.086,0
-1.52,-1.463,-1.539,0
-1.625,-1.236,-1.694,0
-1.395,-1.013,-1.271,0
-0.466,-0.642,-0.058,0
0.084,-0.376,0.529,0
0.723,-0.167,1.032,0
0.749,-0.197,0.941,0
0.593,-0.287,0.226,0
0.414,-0.357,-0.305,0
0.267,-0.61,-0.985,0
0.259,-0.75,-1.142,0
0.258,-0.748,-1.142,0
0.155,-0.922,-0.15,0
0.105,-0.902,0.365,0
0.009,-0.864,0.628,0
-0.109,-0.774,0.797,0
-0.238,-0.745,0.755,0
-0.435,-0.704,0.135,0
-0.468,-0.639,-0.492,0
-0.404,-0.607,-1.309,0
-0.371,-0.613,-1.52,0
-0.257,-0.61,-1.517,0
-0.124,-0.598,-1.351,0
-0.032,-0.507,-0.723,0
-0.042,-0.525,-0.455,0
-0.042,-0.61,-0.366,0
-0.208,-0.689,-0.278,0
-0.202,-0.714,-0.268,0
-0.205,-0.779,-0.536,0
-0.278,-0.535,-0.402,0
-0.167,-0.505,-0.122,0
0.254,-0.34,0.392,0
0.374,-0.241,0.724,0
0.541,-0.28,1.388,0
0.594,-0.412,1.749,0
0.495,-0.637,2.065,0
0.388,-0.729,2.053,0
0.081,-0.597,1.217,0
-0.002,-0.717,0.455,0
0.107,-0.897,-0.382,0
0.173,-0.749,-0.299,0
0.193,-0.752,-0.297,0
0.05,0.029,1.171,0
-0.441,0.316,1.53,0
-0.709,0.452,1.173,0
-0.143,0.324,0.175,1
0.627,0.161,-0.383,0
1.659,-0.055,-0.436,0
1.76,-0.197,0.224,0
1.263,-0.735,1.938,0
0.618,-1.056,2.798,0
-0.538,-1.502,3.225,0
-1.047,-1.605,2.921,0
-1.349,-1.642,2.134,0
-1.137,-1.501,1.501,0
-0.514,-0.993,0.132,0
-0.093,-0.646,-0.74,0
0.285,-0.366,-1.561,0
0.443,-0.438,-1.564,0
0.537,-0.752,-0.684,0
0.468,-0.918,-0.159,0
0.201,-1.292,0.36,0
-0.02,-1.438,0.43,0
-0.082,-1.343,0.448,0
0.159,-1.183,0.337,0
0.165,-1.172,0.333,0
1.039,-0.481,-0.434,0
1.293,-0.29,-1.147,0
1.311,-0.202,-1.433,0
0.979,-0.133,-1.425,0
0.69,-0.242,-1.158,0
0.285,-0.427,-0.884,0
0.05,-0.497,-0.698,0
0.054,-0.506,-0.694,0
-0.326,-0.633,-0.286,0
-0.169,-0.558,-0.34,0
0.037,-0.48,-0.359,0
0.473,-0.196,-0.222,0
0.639,-0.063,0.029,0
0.727,0.021,0.374,0
0.65,-0.062,0.407,0
0.444,-0.215,0.395,0
0.272,-0.298,0.38,0
0.144,-0.425,0.16,0
0.101,-0.423,-0.137,0
0.117,-0.3,-0.363,0
0.175,-0.235,-0.241,0
0.337,-0.208,0.423,0
0.376,-0.15,1.026,0
0.362,-0.164,1.032,0
0.395,-0.115,2.237,0
0.4,0.079,3.192,0
0.351,0.139,3.483,0
0.149,0.048,2.76,0
0.136,0.001,1.73,0
0.118,0.07,0.481,0
0.059,0.144,0.175,0
-0.107,0.343,0.1,1
-0.157,0.37,0.114,0
-0.415,0.367,-0.057,0
-0.675,0.311,-0.107,0
-0.517,-0.122,-0.186,0
-0.164,-0.493,0.009,0
0.451,-0.992,1.398,0
0.707,-1.115,2.49,0
0.377,-1.361,4.003,0
-0.115,-1.547,3.886,0
-0.707,-1.682,2.485,0
-0.81,-1.679,1.324,0
-0.961,-1.631,-0.65,0
-0.992,-1.532,-1.434,0
-0.941,-1.311,-2.28,0
-0.802,-1.141,-2.642,0
-0.612,-0.977,-2.625,0
-0.49,-0.937,-2.023,0
0.012,-0.922,-0.817,0
0.23,-0.902,-0.267,0
0.326,-0.983,0.131,0
0.33,-1.11,0.033,0
0.399,-1.187,-0.258,0
0.435,-1.078,-0.301,0
0.416,-1.075,-0.302,0
0.321,-0.932,-0.388,0
0.12,-0.936,-0.688,0
0.022,-0.933,-0.864,0
0.031,-0.861,-0.915,0
0.096,-0.76,-0.848,0
0.237,-0.635,-0.993,0
0.248,-0.55,-1.047,0
0.243,-0.452,-1.213,0
0.192,-0.461,-1.317,0
-0.071,-0.459,-1.326,0
-0.269,-0.481,-1.144,0
-0.299,-0.563,-0.662,0
-0.255,-0.602,-0.504,0
-0.125,-0.596,-0.101,0
0.054,-0.578,0.179,0
0.207,-0.423,0.786,0
0.127,-0.336,1.085,0
-0.073,-0.285,1.119,0
-0.217,-0.205,0.974,0
-0.021,-0.07,0.623,0
0.232,-0.069,0.417,0
0.196,-0.17,0.589,0
0.293,-0.199,1.054,0
0.288,-0.205,1.056,0
0.401,0.009,2.647,0
0.129,-0.021,2.788,0
0.135,-0.26,2.145,0
0.298,-0.335,0.576,0
0.359,-0.257,0.148,1
0.437,-0.056,0.313,0
0.461,0.063,0.629,0
0.311,0.299,1.031,0
0.18,0.425,1.141,0
0.221,0.306,0.923,0
0.453,0.059,0.629,0
1.045,-0.338,0.492,0
1.218,-0.563,0.908,0
1.047,-1.055,2.4,0
0.639,-1.261,3.052,0
0.006,-1.505,3.426,0
-0.133,-1.519,3.081,0
0.005,-1.332,1.834,0
0.248,-1.188,0.939,0
0.7,-0.832,-0.445,0
0.869,-0.745,-0.906,0
0.794,-0.838,-0.773,0
0.61,-0.996,-0.33,0
0.36,-1.292,0.527,0
0.262,-1.461,0.837,0
0.257,-1.441,0.829,0
-0.053,-1.65,0.516,0
0.375,-1.357,-0.159,0
0.784,-1.02,-0.578,0
1.273,-0.565,-1.141,0
1.514,-0.418,-1.422,0
1.585,-0.121,-1.836,0
1.485,-0.008,-1.922,0
1.103,-0.065,-1.927,0
0.79,-0.157,-1.866,0
0.5,-0.279,-1.796,0
0.446,-0.352,-1.751,0
0.423,-0.34,-1.466,0
0.426,-0.309,-1.194,0
0.582,-0.238,-0.924,0
0.698,-0.138,-0.792,0
0.765,-0.036,-0.685,0
0.776,-0.064,-0.766,0
0.891,-0.047,-0.916,0
0.906,0.002,-0.688,0
0.764,-0.095,0.128,0
0.54,-0.198,0.538,0
0.128,-0.307,0.866,0
0.032,-0.366,0.951,0
-0.094,-0.367,0.816,0
0.02,-0.222,0.762,0
0.195,-0.006,0.725,0
0.314,0.011,0.563,0
0.518,0.106,0.343,0
0.653,0.137,0.454,0
0.925,0.185,1.205,0
0.946,0.219,1.869,0
0.693,0.396,3.085,0
0.503,0.354,3.512,0
0.422,0.027,2.91,0
0.425,-0.003,2.923,0
0.003,0.036,1.154,1
-0.113,0.063,0.705,0
-0.195,0.159,0.006,0
-0.261,0.13,-0.352,0
-0.383,0.159,-0.563,0
-0.028,0.01,-0.605,0
0.958,-0.33,-0.412,0
1.453,-0.624,0.472,0
1.905,-1.092,2.642,0
1.725,-1.276,3.776,0
0.679,-1.709,4.394,0
0.055,-1.857,3.674,0
-0.283,-1.836,1.567,0
-0.238,-1.645,0.345,0
-0.011,-1.317,-1.404,0
0.122,-1.225,-1.964,0
0.249,-0.935,-2.275,0
0.358,-0.743,-2.065,0
0.643,-0.575,-1.415,0
0.762,-0.527,-1.081,0
0.991,-0.572,-0.801,0
1.057,-0.615,-0.87,0
1.084,-0.688,-0.944,0
1.134,-0.717,-0.822,0
1.292,-0.72,-0.452,0
1.277,-0.756,-0.258,0
1.109,-0.842,0.06,0
0.922,-0.895,0.146,0
0.633,-0.957,0.078,0
0.533,-0.915,-0.01,0
0.423,-0.815,-0.185,0
0.428,-0.769,-0.357,0
0.443,-0.759,-0.36,0
0.411,-0.497,-0.542,0
0.351,-0.485,-0.358,0
0.319,-0.415,-0.475,0
0.194,-0.331,-0.68,0
0.256,-0.362,-0.839,0
0.457,-0.36,-1.171,0
0.623,-0.257,-1.263,0
0.725,-0.143,-1.222,0
0.669,-0.212,-0.844,0
0.509,-0.369,-0.195,0
0.46,-0.398,0.295,0
0.278,-0.263,1.046,0
0.393,-0.258,1.533,0
0.626,-0.307,1.957,0
0.686,-0.365,1.941,0
0.773,-0.38,1.705,0
0.876,-0.399,1.639,0
0.976,-0.283,1.478,0
0.912,-0.21,1.274,0
0.923,-0.247,1.29,0
0.768,-0.124,0.467,0
0.861,-0.247,0.439,0
0.87,-0.235,0.793,0
0.669,0.063,1.339,0
0.441,0.254,1.392,0
-0.222,0.556,1.08,1
-0.22,0.503,0.415,0
0.841,0.241,-0.786,0
1.895,0.107,-1.144,0
3.033,-0.309,0.036,0
3.234,-0.666,1.548,0
2.287,-1.316,4.272,0
1.438,-1.5,5.389,0
0.343,-1.934,5.693,0
-0.072,-1.979,4.678,0
-0.269,-1.755,2.325,0
0.096,-1.359,0.955,0
0.414,-0.877,-0.847,0
0.571,-0.68,-1.425,0
0.973,-0.532,-1.662,0
1.276,-0.5,-1.66,0
1.568,-0.442,-1.55,0
1.569,-0.417,-1.261,0
1.456,-0.554,-0.621,0
1.361,-0.69,-0.275,0
1.356,-0.602,0.026,0
1.417,-0.421,0.217,0
1.646,-0.169,0.154,0
1.668,-0.075,-0.095,0
1.535,0.087,-0.706,0
1.525,0.073,-1.174,0
1.408,0.219,-1.785,0
1.314,0.234,-1.947,0
1.257,0.22,-2.163,0
1.222,0.239,-2.071,0
1.258,0.254,-1.647,0
1.364,0.288,-1.366,0
1.447,0.363,-0.802,0
1.424,0.331,-0.535,0
1.378,0.2,-0.254,0
1.295,0.094,-0.029,0
1.182,0.004,0.336,0
1.126,-0.038,0.533,0
1.136,-0.047,0.538,0
1.196,-0.01,0.738,0
1.352,0.163,0.711,0
1.466,0.224,0.506,0
1.381,0.349,0.321,0
1.299,0.394,0.318,0
1.267,0.383,0.36,0
1.237,0.353,0.564,0
1.25,0.227,1.332,0
1.329,0.209,1.716,0
1.414,0.352,2.025,0
1.304,0.54,2.328,0
1.19,0.501,2.31,0
1.232,0.384,1.723,0
1.21,0.484,0.783,0
1.131,0.548,0.6,0
0.803,0.71,0.446,1
0.612,0.703,0.289,0
0.322,0.646,-0.107,0
0.162,0.559,-0.215,0
0.559,0.038,-0.367,0
0.997,-0.394,-0.098,0
1.598,-1.183,1.704,0
1.822,-1.309,3.057,0
1.57,-1.587,4.78,0
1.071,-1.81,4.891,0
0.362,-1.885,2.953,0
0.338,-1.627,1.308,0
0.478,-1.341,-0.886,0
0.578,-1.26,-1.944,0
0.554,-1.044,-2.902,0
0.565,-0.929,-2.883,0
0.681,-0.838,-1.985,0
0.799,-0.829,-1.091,0
1.073,-0.794,0.185,0
1.14,-0.827,0.462,0
1.297,-0.791,0.11,0
1.327,-0.754,-0.327,0
1.273,-0.679,-1.006,0
1.25,-0.62,-1.256,0
1.189,-0.589,-1.424,0
1.076,-0.595,-1.368,0
0.833,-0.568,-0.918,0
0.666,-0.565,-0.502,0
0.649,-0.549,-0.51,0
0.277,-0.499,0.17,0
0.111,-0.435,-0.093,0
0.129,-0.328,-0.372,0
0.292,-0.123,-0.736,0
0.359,-0.079,-1.009,0
0.519,0.069,-1.042,0
0.723,0.176,-0.834,0
1.032,0.22,-0.589,0
1.086,0.215,-0.475,0
0.96,0.114,-0.113,0
0.919,0.011,0.12,0
0.846,-0.159,0.442,0
0.741,-0.262,0.655,0
0.67,-0.416,1.184,0
0.687,-0.427,1.364,0
0.772,-0.265,1.317,0
0.71,-0.243,1.24,0
0.743,-0.225,0.906,0
1.056,-0.043,0.842,0
1.781,0.231,0.836,0
2.058,0.305,0.899,0
2.151,0.282,1.016,0
2.101,0.163,1.025,0
1.375,-0.007,0.987,0
0.886,-0.241,0.716,0
0.668,-0.66,0.101,0
0.698,-0.656,0.062,1
0.638,-0.314,0.581,0
0.563,-0.009,0.835,0
0.088,0.615,0.57,0
-0.191,0.782,0.066,0
0.58,0.737,-1.122,0
1.557,0.675,-1.936,0
2.878,0.377,-2.351,0
3.097,0.099,-1.465,0
2.752,-0.711,1.509,0
2.097,-1.122,2.748,0
0.605,-1.582,3.8,0
0.115,-1.588,3.51,0
-0.002,-1.413,2.174,0
0.393,-1.048,1.133,0
1.03,-0.145,-0.394,0
1.315,0.215,-0.935,0
1.649,0.338,-1.322,0
1.602,0.175,-1.077,0
1.277,-0.228,-0.404,0
1.08,-0.489,0.059,0
0.748,-0.971,0.757,0
0.736,-0.931,0.742,0
0.693,-1.057,0.992,0
1.144,-0.824,0.676,0
1.973,-0.318,-0.257,0
2.238,-0.071,-0.829,0
2.346,0.141,-1.404,0
2.105,0.193,-1.394,0
1.337,0.041,-1.187,0
0.927,-0.094,-1.196,0
0.439,-0.194,-1.402,0
0.351,-0.185,-1.524,0
0.576,0.041,-1.683,0
0.821,0.187,-1.579,0
1.231,0.474,-1.255,0
1.545,0.548,-1.014,0
1.628,0.619,-0.506,0
1.503,0.555,-0.106,0
1.267,0.288,0.492,0
1.138,0.181,0.709,0
1.135,0.184,0.707,0
0.752,0.148,0.863,0
0.714,0.055,0.878,0
0.788,0.137,0.894,0
1.064,0.432,0.813,0
1.137,0.596,0.745,0
1.225,0.801,0.648,0
1.31,0.895,0.638,0
1.6,1.027,0.919,0
1.665,0.98,1.184,0
1.507,0.97,1.875,0
1.357,0.978,2.2,0
1.144,0.986,2.003,0
1.144,0.915,1.498,0
1.065,0.599,0.79,0
0.863,0.546,0.707,0
0.507,0.547,0.7,1
0.279,0.435,0.736,0
-0.023,0.394,0.475,0
-0.026,0.502,0.13,0
0.397,0.561,-0.635,0
0.805,0.502,-0.934,0
1.272,0.173,-0.166,0
1.396,-0.209,0.741,0
1.587,-0.827,2.052,0
1.284,-1.172,2.65,0
0.438,-1.502,3.073,0
0.042,-1.568,2.747,0
-0.063,-1.501,1.397,0
0.058,-1.325,0.629,0
0.375,-0.788,-0.73,0
0.716,-0.548,-1.369,0
1.021,-0.327,-1.913,0
1.022,-0.348,-1.927,0
0.825,-0.486,-1.504,0
0.65,-0.593,-1.08,0
0.441,-0.841,-0.245,0
0.292,-0.889,-0.01,0
0.321,-0.838,-0.227,0
0.602,-0.564,-0.608,0
1.064,-0.198,-1.087,0
1.159,-0.027,-1.313,0
1.094,0.128,-1.469,0
0.905,0.118,-1.396,0
0.43,-0.077,-1.067,0
0.238,-0.11,-0.881,0
0.241,-0.086,-0.888,0
0.251,-0.014,-0.736,0
0.513,0.154,-0.64,0
0.781,0.352,-0.583,0
1.082,0.592,-0.661,0
1.081,0.684,-0.704,0
0.85,0.61,-0.627,0
0.703,0.557,-0.572,0
0.444,0.317,-0.529,0
0.318,0.213,-0.471,0
0.289,0.103,-0.274,0
0.463,0.038,-0.164,0
0.62,0.069,0.063,0
0.652,0.121,0.262,0
0.51,0.147,0.578,0
0.449,0.204,0.791,0
0.552,0.263,1.15,0
0.612,0.25,1.304,0
0.676,0.193,1.433,0
0.728,0.18,1.479,0
0.748,0.147,1.541,0
0.73,0.061,1.494,0
0.427,0.191,1.333,0
0.233,0.201,1.036,0
0.313,0.077,0.381,0
0.44,-0.03,0.202,0
0.363,0.086,0.348,1
0.276,0.186,0.714,0
0.098,0.342,1.368,0
-0.13,0.465,1.42,0
-0.235,0.525,0.777,0
0.012,0.441,0.303,0
0.984,0.333,-0.428,0
1.528,0.252,-0.422,0
1.513,0.271,-0.43,0
1.493,-0.412,1.461,0
0.556,-0.906,2.712,0
-0.097,-1.127,2.866,0
-0.759,-1.404,2.522,0
-0.836,-1.351,1.968,0
-0.435,-1.124,0.86,0
-0.08,-0.812,0.065,0
0.393,-0.439,-0.743,0
0.629,-0.336,-0.941,0
0.993,-0.25,-1.117,0
1.108,-0.239,-1.178,0
1.002,-0.391,-0.952,0
0.887,-0.601,-0.631,0
0.767,-0.773,-0.17,0
0.682,-0.785,0.015,0
0.711,-0.704,-0.134,0
0.867,-0.564,-0.475,0
1.182,-0.195,-1.191,0
1.313,-0.015,-1.641,0
1.353,0.229,-2.229,0
1.229,0.305,-2.459,0
1.006,0.373,-2.615,0
0.787,0.335,-2.43,0
0.335,0.173,-1.602,0
0.197,0.078,-1.179,0
0.06,0.052,-0.726,0
0.033,0.104,-0.303,0
0.157,0.235,0.013,0
0.308,0.324,-0.208,0
0.482,0.474,-0.783,0
0.521,0.492,-1.021,0
0.692,0.459,-1.048,0
0.68,0.441,-0.562,0
0.643,0.345,0.454,0
0.548,0.409,0.83,0
0.105,0.434,1.44,0
-0.042,0.272,1.729,0
-0.071,0.21,1.606,0
0.003,0.323,1.306,0
0.271,0.451,0.804,0
0.372,0.46,0.81,0
0.515,0.557,1.332,0
0.631,0.632,1.746,0
0.686,0.846,2.398,0
0.676,0.926,2.525,0
0.831,0.883,2.295,1
0.817,0.793,1.936,0
0.838,0.752,1.952,0
0.374,0.7,1.023,0
0.117,0.742,0.434,0
-0.011,0.726,-0.03,0
-0.1,1.009,-0.829,0
0.051,1.078,-1.301,0
0.664,0.807,-1.886,0
1.076,0.594,-1.756,0
1.562,-0.077,0.524,0
1.638,-0.313,1.811,0
0.903,-0.825,4.205,0
0.007,-1.284,5.02,0
-1.05,-1.79,4.113,0
-1.177,-1.691,2.733,0
-0.933,-1.221,0.395,0
-0.711,-0.882,-0.822,0
-0.462,-0.623,-2.155,0
-0.344,-0.468,-2.597,0
-0.089,-0.16,-2.754,0
0.211,-0.099,-2.4,0
0.478,-0.121,-1.718,0
0.547,-0.201,-1.4,0
0.579,-0.404,-1.039,0
0.569,-0.445,-0.941,0
0.651,-0.385,-1.157,0
0.783,-0.303,-1.422,0
0.91,-0.172,-1.818,0
0.846,-0.15,-1.869,0
0.656,-0.247,-1.793,0
0.507,-0.345,-1.567,0
0.269,-0.332,-0.747,0
0.186,-0.337,-0.318,0
-0.011,-0.293,0.321,0
-0.071,-0.281,0.483,0
-0.057,-0.205,0.1,0
0.031,-0.075,-0.425,0
0.352,0.165,-1.181,0
0.563,0.286,-1.437,0
0.701,0.429,-1.434,0
0.855,0.486,-1.372,0
0.984,0.494,-1.079,0
0.893,0.41,-0.755,0
0.833,0.252,-0.3,0
0.878,0.117,-0.241,0
0.883,0.111,-0.238,0
0.547,-0.063,0.457,0
0.591,-0.187,0.503,0
0.588,-0.185,0.481,0
0.551,-0.127,0.782,0
0.714,-0.112,1.082,0
0.998,0.14,1.672,0
1.193,0.249,1.907,0
1.183,0.226,1.914,0
1.273,0.562,1.576,0
1.201,0.451,0.877,0
1.068,0.239,0.491,0
0.817,0.102,0.415,0
0.574,0.138,0.695,0
0.238,0.142,1.365,1
0.059,0.293,1.488,0
-0.202,0.72,1.02,0
0.085,0.796,0.503,0
1.021,0.932,-0.492,0
1.643,1,-0.83,0
2.284,0.87,-0.367,0
2.202,0.565,0.296,0
1.505,-0.072,1.589,0
0.909,-0.456,2.082,0
0.124,-0.898,2.477,0
-0.126,-0.899,2.257,0
-0.255,-0.802,1.65,0
-0.165,-0.727,1.033,0
0.166,-0.336,-0.217,0
0.351,-0.107,-0.834,0
0.733,-0.102,-1.393,0
0.826,-0.187,-1.57,0
0.74,-0.287,-1.181,0
0.719,-0.397,-0.66,0
0.676,-0.563,0.289,0
0.621,-0.643,0.535,0
0.777,-0.6,0.319,0
0.946,-0.415,0.021,0
1.308,-0.178,-0.586,0
1.5,0.03,-0.932,0
1.494,0.015,-0.927,0
1.235,0.273,-1.14,0
0.849,0.239,-1.298,0
0.669,0.224,-1.427,0
0.51,0.211,-1.624,0
0.474,0.252,-1.549,0
0.551,0.354,-1.234,0
0.69,0.416,-0.895,0
0.705,0.466,-0.397,0
0.721,0.423,-0.223,0
0.664,0.316,-0.195,0
0.662,0.303,-0.191,0
0.751,0.223,-0.405,0
0.731,0.253,-0.394,0
0.584,0.265,-0.226,0
0.429,0.256,0.06,0
0.137,0.15,0.532,0
0.033,0.13,0.693,0
0.012,0.177,1.132,0
0.157,0.211,1.195,0
0.452,0.253,1.12,0
0.574,0.242,1.109,0
0.763,0.218,1.288,0
0.833,0.279,1.492,0
0.698,0.523,1.716,0
0.594,0.691,1.689,0
0.822,0.74,1.211,0
0.936,0.847,0.965,0
0.751,1.026,0.546,0
0.702,1.073,0.077,1
0.675,1.023,-0.63,0
0.658,0.874,-0.744,0
0.543,0.526,-0.45,0
0.603,0.256,-0.01,0
1.088,-0.231,1.005,0
1.293,-0.456,2.032,0
1.049,-0.887,3.694,0
0.747,-1.139,4.391,0
0.171,-1.476,4.176,0
0.049,-1.38,3.268,0
0.07,-1.353,3.26,0
0.006,-1.214,1.217,0
-0.167,-0.884,-1.62,0
-0.072,-0.897,-2.024,0
0.265,-0.7,-1.879,0
0.557,-0.548,-1.544,0
1.089,-0.315,-0.99,0
1.271,-0.248,-0.813,0
1.377,-0.174,-1.036,0
1.272,-0.184,-1.437,0
1.064,-0.24,-2.005,0
1.026,-0.204,-2.033,0
1.037,-0.195,-1.724,0
1.094,-0.132,-1.332,0
1.077,-0.011,-0.723,0
0.968,-0.047,-0.242,0
0.949,-0.025,-0.251,0
0.662,-0.066,0.326,0
0.405,-0.038,-0.123,0
0.352,0.048,-0.628,0
0.339,0.185,-1.444,0
0.368,0.323,-1.705,0
0.621,0.473,-1.674,0
0.78,0.548,-1.448,0
0.925,0.604,-0.848,0
0.988,0.551,-0.497,0
0.87,0.425,0.007,0
0.753,0.297,0.21,0
0.746,0.294,0.211,0
0.692,0.107,0.38,0
0.91,0.198,0.261,0
0.919,0.242,0.151,0
0.962,0.31,-0.078,0
1.008,0.341,-0.171,0
1.077,0.405,-0.031,0
1.205,0.366,0.262,0
1.486,0.323,1.004,0
1.577,0.271,1.42,0
1.586,0.207,1.998,0
1.36,0.173,2.419,0
1.06,0.237,1.947,0
0.974,0.153,1.156,0
0.765,0.084,0.251,0
0.622,0.208,0.002,1
0.287,0.548,0.113,0
0.035,0.753,0.389,0
-0.084,0.999,0.39,0
0.32,0.997,0.077,0
1.565,0.753,-0.288,0
2.528,0.536,0.035,0
2.863,0.043,1.656,0
2.691,-0.224,2.911,0
1.85,-0.738,4.245,0
1.173,-1.055,4.219,0
0.365,-1.32,2.881,0
0.266,-1.287,1.708,0
0.58,-0.885,-0.224,0
0.844,-0.549,-1.074,0
1.021,-0.118,-1.688,0
1.123,0.008,-1.588,0
1.247,-0.144,-1.189,0
1.267,-0.201,-1.008,0
1.246,-0.193,-1.013,0
0.942,-0.442,-0.403,0
1.048,-0.514,-0.261,0
1.17,-0.47,-0.23,0
1.421,-0.273,-0.308,0
1.561,-0.121,-0.366,0
1.652,0.035,-0.885,0
1.576,0.083,-1.265,0
1.264,0.156,-1.762,0
1.156,0.204,-1.943,0
1.09,0.332,-2.056,0
1.019,0.456,-2.085,0
0.954,0.603,-1.962,0
0.958,0.591,-1.958,0
0.812,0.543,-1.251,0
0.756,0.507,-1.023,0
0.717,0.413,-0.666,0
0.677,0.398,-0.452,0
0.668,0.4,-0.454,0
0.732,0.299,0.432,0
0.724,0.306,0.429,0
0.794,0.204,1.113,0
0.663,0.235,1.353,0
0.587,0.189,1.38,0
0.35,0.243,1.087,0
0.241,0.328,0.777,0
0.124,0.421,0.27,0
0.14,0.462,0.073,0
0.285,0.39,-0.071,0
0.449,0.317,0.118,0
0.436,0.3,0.122,0
0.979,0.454,2.592,0
0.85,0.411,3.656,0
0.6,0.358,3.361,0
0.374,0.287,1.562,0
0.354,0.196,0.636,1
0.41,0.437,-0.182,0
0.532,0.63,-0.29,0
0.554,1.076,-0.321,0
0.573,1.155,-0.404,0
0.609,1.085,-0.646,0
0.614,1.013,-0.766,0
0.724,0.479,-0.915,0
0.794,0.023,-0.715,0
0.823,-0.772,0.41,0
0.664,-1.038,1.391,0
0.105,-1.281,2.807,0
-0.222,-1.33,3.169,0
-0.286,-1.135,2.625,0
0.039,-0.85,1.879,0
0.633,-0.223,0.364,0
0.805,0.095,-0.368,0
0.922,0.392,-1.058,0
0.902,0.356,-1.062,0
0.641,0.167,-0.747,0
0.501,0.039,-0.488,0
0.381,-0.228,-0.229,0
0.333,-0.327,-0.339,0
0.348,-0.425,-0.985,0
0.475,-0.428,-1.416,0
0.923,-0.163,-2.112,0
1.215,0.009,-2.431,0
1.568,0.19,-2.544,0
1.492,0.25,-2.273,0
1.479,0.264,-2.278,0
0.775,0.074,-0.522,0
0.209,-0.176,0.33,0
-0.11,-0.241,0.498,0
-0.216,-0.208,0.255,0
-0.104,-0.113,-0.105,0
0.298,0.208,-0.832,0
0.598,0.355,-1.167,0
0.916,0.519,-1.248,0
0.935,0.546,-0.974,0
0.561,0.433,-0.022,0
0.344,0.263,0.345,0
0.336,0.263,0.345,0
-0.186,-0.072,0.268,0
-0.113,-0.099,-0.077,0
0.133,0.044,-0.432,0
0.549,0.302,-0.574,0
0.577,0.421,-0.138,0
0.592,0.435,0.52,0
0.657,0.46,0.771,0
0.746,0.553,1.147,0
0.941,0.493,1.222,0
1.003,0.443,1.426,0
0.871,0.33,1.574,0
0.365,0.183,1.252,0
-0.075,0.108,0.797,0
-0.401,-0.143,0.101,0
-0.328,-0.296,0.107,0
-0.286,-0.084,0.926,0
-0.298,0.172,1.497,1
-0.464,0.426,1.783,0
-0.62,0.582,1.499,0
-0.62,0.574,1.502,0
-0.239,0.745,-0.204,0
1.056,0.554,-0.837,0
1.734,0.543,-0.742,0
2,0.444,0.581,0
1.624,0.077,1.574,0
0.408,-0.606,2.622,0
-0.234,-0.814,2.444,0
-0.206,-0.759,2.426,0
-0.71,-0.915,0.866,0
-0.224,-0.576,-0.263,0
0.164,-0.224,-0.886,0
0.544,0.181,-1.462,0
0.622,0.255,-1.617,0
0.762,0.078,-1.669,0
0.813,-0.069,-1.618,0
0.804,-0.055,-1.623,0
0.312,-0.61,-1.026,0
0.011,-0.947,-0.496,0
-0.165,-0.966,-0.123,0
-0.161,-0.869,0.25,0
0.063,-0.663,0.227,0
0.065,-0.642,0.221,0
0.783,0.053,-0.912,0
0.937,0.312,-1.817,0
0.811,0.386,-2.175,0
0.383,0.335,-2.198,0
0.052,0.224,-2.031,0
0.06,0.225,-2.031,0
-0.673,0.068,-1.636,0
-0.607,0.169,-1.547,0
-0.483,0.312,-1.472,0
-0.031,0.538,-1.297,0
0.172,0.66,-1.209,0
0.248,0.77,-0.934,0
0.304,0.686,-0.82,0
0.43,0.661,-0.421,0
0.413,0.617,0.14,0
0.376,0.4,1.048,0
0.279,0.368,1.395,0
-0.136,0.396,1.754,0
-0.338,0.443,1.84,0
-0.5,0.466,1.408,0
-0.472,0.504,0.955,0
-0.449,0.488,0.961,0
-0.18,0.671,0.783,0
-0.185,0.653,0.788,0
0.216,0.655,2.145,0
0.428,0.921,2.828,0
0.326,0.982,3.077,0
0.3,0.954,3.084,1
0.231,0.704,1.579,0
-0.016,0.668,0.512,0
-0.226,0.607,0.192,0
-0.471,0.714,-0.262,0
-0.512,0.806,-0.566,0
-0.387,0.963,-1.036,0
-0.149,1.013,-1.304,0
0.426,0.807,-1.523,0
0.689,0.553,-1.233,0
0.758,-0.183,0.535,0
0.673,-0.614,1.892,0
0.03,-1.205,3.926,0
-0.571,-1.434,4.489,0
-1.098,-1.463,3.684,0
-0.975,-1.263,2.398,0
-0.498,-0.688,-0.202,0
-0.175,-0.338,-1.499,0
0.314,0.235,-2.918,0
0.387,0.442,-3.21,0
0.303,0.641,-2.804,0
0.126,0.484,-2.113,0
-0.087,0.027,-0.807,0
-0.22,-0.187,-0.124,0
-0.336,-0.463,0.595,0
-0.332,-0.509,0.752,0
-0.016,-0.336,0.441,0
0.426,-0.101,-0.176,0
0.84,0.07,-1.265,0
0.92,0.116,-1.667,0
0.774,0.116,-1.564,0
0.49,0.056,-1.231,0
0.478,0.063,-1.234,0
-0.319,-0.207,-0.533,0
-0.528,-0.16,-0.509,0
-0.553,-0.102,-0.558,0
-0.429,0.076,-0.778,0
-0.352,0.188,-0.953,0
-0.346,0.175,-0.949,0
-0.027,0.376,-1.483,0
0.061,0.454,-1.572,0
0.011,0.417,-1.36,0
-0.038,0.293,-0.74,0
-0.087,0.213,-0.361,0
-0.101,0.212,-0.361,0
-0.109,0.096,0.319,0
-0.069,0.125,0.801,0
-0.076,0.155,1.056,0
-0.043,0.175,1.259,0
-0.012,0.218,1.282,0
0.054,0.212,1.274,0
0.09,0.176,1.151,0
-0.041,0.132,1.061,0
-0.14,0.184,1.041,0
-0.124,0.395,0.857,0
0.018,0.402,0.686,0
0.244,0.401,0.53,0
0.187,0.412,0.595,0
-0.138,0.365,1.088,0
-0.375,0.299,1.35,0
-0.86,0.311,1.203,1
-1.07,0.462,0.816,0
-1.062,0.461,0.816,0
-0.125,0.662,-0.52,0
0.97,0.67,-0.522,0
1.602,0.661,0.11,0
1.61,0.27,1.688,0
1.206,-0.037,2.801,0
0.157,-0.588,4.069,0
-0.36,-0.783,3.948,0
-0.838,-0.968,2.373,0
-0.781,-0.9,1.198,0
-0.715,-0.889,1.197,0
0.094,-0.295,-1.528,0
0.303,-0.075,-1.961,0
0.4,-0.054,-1.941,0
0.491,-0.069,-1.657,0
0.46,-0.189,-1.398,0
0.444,-0.184,-1.4,0
0.363,-0.574,-0.789,0
0.263,-0.633,-0.56,0
0.184,-0.592,-0.453,0
0.124,-0.521,-0.411,0
0.086,-0.486,-0.494,0
0.171,-0.408,-0.792,0
0.265,-0.251,-1.036,0
0.484,0.067,-1.412,0
0.54,0.194,-1.565,0
0.491,0.353,-1.75,0
0.434,0.384,-1.864,0
0.239,0.386,-1.738,0
0.112,0.388,-1.43,0
0.099,0.341,-0.833,0
0.144,0.4,-0.61,0
0.369,0.502,-0.601,0
0.512,0.537,-0.646,0
0.687,0.562,-0.643,0
0.747,0.541,-0.67,0
0.701,0.521,-0.648,0
0.518,0.503,-0.363,0
0.522,0.496,-0.361,0
0.134,0.404,0.176,0
-0.211,0.356,0.43,0
-0.337,0.289,0.605,0
-0.357,0.227,0.691,0
-0.313,0.224,0.778,0
-0.041,0.182,1.031,0
0.151,0.193,1.23,0
0.752,0.295,1.769,0
0.801,0.44,2.168,0
0.675,0.708,2.806,0
0.659,0.682,2.707,0
0.49,0.719,1.49,0
0.177,0.735,0.655,0
-0.383,0.766,-0.157,1
-0.56,0.878,-0.377,0
-0.588,1.065,-0.573,0
-0.567,1.162,-0.698,0
-0.2,1.057,-1.001,0
0.215,0.841,-1.094,0
0.834,0.249,0.066,0
1.236,-0.157,1.242,0
1.122,-0.6,3.748,0
0.677,-0.889,5.111,0
-0.163,-1.373,5.742,0
-0.504,-1.394,4.924,0
-0.348,-0.991,2.068,0
-0.295,-0.616,0.446,0
0.004,-0.335,-1.798,0
0.172,-0.262,-2.719,0
0.134,0.132,-3.403,0
0.252,0.195,-3.22,0
0.477,0.048,-1.822,0
0.472,-0.106,-0.871,0
0.331,-0.368,0.052,0
0.197,-0.574,0.171,0
-0.034,-0.621,-0.243,0
-0.071,-0.567,-0.741,0
0.16,-0.5,-1.785,0
0.315,-0.45,-2.256,0
0.267,-0.34,-2.255,0
0.173,-0.327,-2.009,0
-0.123,-0.36,-1.517,0
-0.311,-0.327,-1.204,0
-0.378,-0.251,-1.094,0
-0.328,-0.131,-1.316,0
-0.318,-0.131,-1.316,0
-0.065,0.287,-1.775,0
-0.012,0.389,-1.55,0
-0.012,0.441,-1.346,0
-0.044,0.43,-0.998,0
-0.071,0.327,-0.717,0
-0.128,0.204,-0.209,0
-0.103,0.173,0.184,0
-0.012,0.18,0.551,0
0.057,0.167,0.678,0
0.069,0.286,0.7,0
0.084,0.38,0.629,0
0.091,0.364,0.634,0
0.37,0.627,0.16,0
0.51,0.743,0.169,0
0.658,0.696,0.252,0
0.759,0.734,0.679,0
0.677,0.71,1.141,0
0.603,0.452,2.093,0
0.417,0.42,2.427,0
-0.063,0.519,1.98,0
-0.18,0.361,1.217,0
-0.184,0.092,0.097,0
-0.126,0.052,-0.164,0
-0.106,0.032,-0.157,1
0.007,0.575,0.477,0
-0.052,0.724,0.686,0
-0.161,0.813,0.507,0
0.09,0.696,-0.118,0
0.462,0.556,-0.452,0
1.017,0.391,-0.501,0
1.035,0.164,0.074,0
0.762,-0.502,1.841,0
0.356,-0.625,2.456,0
-0.575,-1.051,3.281,0
-0.909,-1.234,3.22,0
-0.958,-1.248,2.404,0
-0.652,-1.022,1.589,0
-0.068,-0.533,0.249,0
0.17,-0.329,-0.297,0
0.376,-0.183,-0.843,0
0.397,-0.212,-1.036,0
0.312,-0.284,-1.016,0
0.15,-0.498,-0.814,0
-0.026,-0.791,-0.621,0
-0.071,-0.844,-0.687,0
-0.147,-0.841,-0.906,0
-0.069,-0.707,-1.042,0
0.247,-0.332,-1.132,0
0.425,-0.103,-1.22,0
0.502,0.195,-1.414,0
0.537,0.308,-1.578,0
0.631,0.555,-1.788,0
0.553,0.609,-1.844,0
0.311,0.553,-1.727,0
0.182,0.538,-1.515,0
0.215,0.545,-1.061,0
0.364,0.571,-0.756,0
0.597,0.591,-0.368,0
0.62,0.57,-0.225,0
0.609,0.506,-0.198,0
0.588,0.471,-0.208,0
0.567,0.476,-0.263,0
0.518,0.421,-0.212,0
0.429,0.39,-0.209,0
0.327,0.392,-0.112,0
0.161,0.418,-0.056,0
0.083,0.409,-0.042,0
-0.076,0.49,0.066,0
-0.096,0.5,0.245,0
-0.082,0.483,0.251,0
0.114,0.461,0.72,0
0.401,0.484,1.186,0
0.591,0.505,1.658,0
0.678,0.643,2.303,0
0.637,0.719,2.629,0
0.544,0.727,2.288,0
0.553,0.733,1.557,0
0.53,0.905,0.505,0
0.478,1.003,0.254,0
0.349,1.084,0.268,1
0.352,1.045,0.259,0
0.263,0.971,0.161,0
0.262,0.887,0.017,0
0.663,0.465,-0.158,0
0.993,0.145,0.121,0
1.504,-0.424,1.768,0
1.627,-0.672,2.609,0
1.282,-0.947,3.27,0
0.675,-1.154,3.076,0
0.11,-1.426,1.707,0
0.148,-1.228,0.655,0
0.27,-0.949,-0.782,0
0.2,-0.752,-1.448,0
0.013,-0.674,-2.034,0
-0.078,-0.718,-2.213,0
-0.268,-0.666,-2.157,0
-0.205,-0.657,-1.831,0
0.103,-0.571,-1.03,0
0.348,-0.506,-0.531,0
0.329,-0.487,-0.538,0
0.818,-0.33,0.144,0
0.706,-0.44,-0.243,0
0.557,-0.5,-0.737,0
0.33,-0.613,-1.587,0
0.332,-0.524,-1.809,0
0.173,-0.53,-1.936,0
-0.036,-0.569,-1.842,0
-0.113,-0.365,-1.234,0
0.105,-0.188,-0.843,0
0.102,-0.169,-0.85,0
0.485,0.293,-0.398,0
0.318,0.216,-0.487,0
0.124,0.169,-0.543,0
-0.199,0.044,-0.677,0
-0.292,-0.022,-0.843,0
-0.138,0.048,-0.988,0
0.003,0.137,-0.869,0
0.272,0.25,-0.441,0
0.411,0.318,-0.141,0
0.525,0.42,0.3,0
0.439,0.386,0.409,0
0.455,0.518,0.606,0
0.612,0.622,0.827,0
0.787,0.784,1.241,0
0.86,0.808,1.308,0
1.029,0.77,1.39,0
1.165,0.695,1.456,0
1.246,0.621,1.387,0
1.035,0.606,1.369,0
0.585,0.496,0.929,0
0.429,0.423,0.638,0
0.456,0.407,0.646,1
0.226,0.301,0.672,0
-0.013,0.407,1.549,0
-0.076,0.463,1.865,0
-0.177,0.642,1.501,0
-0.121,0.785,0.986,0
-0.12,0.777,0.989,0
0.866,0.517,-0.477,0
1.74,0.294,0.129,0
1.813,0.048,1.24,0
1.444,-0.35,3.019,0
0.828,-0.536,3.637,0
0.022,-0.804,3.604,0
-0.174,-0.81,2.906,0
0.014,-0.684,1.023,0
0.3,-0.484,0.012,0
0.701,-0.288,-1.106,0
0.763,-0.294,-1.365,0
0.754,-0.465,-1.576,0
0.725,-0.596,-1.487,0
0.716,-0.596,-1.488,0
0.66,-0.742,-0.713,0
0.681,-0.784,-0.562,0
0.732,-0.753,-0.66,0
0.837,-0.602,-0.797,0
0.921,-0.469,-0.712,0
0.961,-0.261,-0.524,0
0.803,-0.166,-0.342,0
0.636,-0.079,-0.395,0
0.561,-0.002,-0.676,0
0.562,-0.029,-0.667,0
0.495,0.287,-1.536,0
0.685,0.352,-1.785,0
0.849,0.498,-1.825,0
1.079,0.658,-1.608,0
1.15,0.625,-1.464,0
1.07,0.549,-1.027,0
1.001,0.504,-0.629,0
0.946,0.34,-0.277,0
0.868,0.25,-0.107,0
0.798,0.163,0.031,0
0.769,0.168,0.184,0
0.791,0.227,0.652,0
0.764,0.273,0.774,0
0.738,0.409,0.99,0
0.743,0.466,1.035,0
0.673,0.481,1.024,0
0.695,0.456,0.869,0
0.664,0.441,0.808,0
0.618,0.443,0.948,0
0.503,0.463,1.324,0
0.494,0.466,1.428,0
0.215,0.637,1.233,0
0.128,0.697,0.896,0
0.356,0.801,-0.232,0
0.571,0.774,-0.767,0
0.457,0.822,-0.537,0
0.247,0.847,-0.017,0
-0.172,0.658,0.72,1
-0.385,0.457,0.943,0
-0.422,0.257,1.092,0
-0.411,0.273,1.097,0
0.037,-0.052,0.98,0
0.492,-0.285,1.064,0
1.14,-0.444,1.695,0
1.371,-0.415,1.974,0
1.186,-0.526,1.872,0
0.691,-0.728,1.351,0
0.21,-0.908,0.317,0
0.121,-0.91,-0.109,0
-0.044,-0.814,-0.74,0
-0.123,-0.738,-0.939,0
0.077,-0.731,-1.153,0
0.352,-0.637,-1.134,0
0.659,-0.603,-0.919,0
0.839,-0.618,-0.858,0
0.891,-0.667,-0.735,0
0.89,-0.685,-0.745,0
0.971,-0.698,-0.948,0
1.021,-0.627,-1.125,0
0.886,-0.494,-1.366,0
0.771,-0.5,-1.393,0
0.725,-0.445,-1.183,0
0.538,-0.384,-0.832,0
0.389,-0.313,-0.263,0
0.255,-0.283,-0.036,0
0.115,-0.194,0.257,0
0.094,-0.138,0.112,0
0.04,0.028,-0.479,0
0.057,0.108,-0.698,0
0.065,0.104,-0.696,0
0.1,0.306,-1.218,0
0.247,0.446,-1.25,0
0.303,0.512,-1.111,0
0.297,0.55,-0.811,0
0.299,0.524,-0.7,0
0.233,0.524,-0.729,0
0.228,0.478,-0.784,0
0.205,0.419,-0.716,0
0.206,0.496,-0.526,0
0.322,0.603,-0.194,0
0.352,0.701,-0.018,0
0.602,0.817,0.137,0
0.714,0.884,0.287,0
0.874,0.942,0.617,0
0.949,0.861,0.781,0
0.964,0.773,1.252,0
0.978,0.626,1.572,0
0.848,0.333,2.129,0
0.382,0.046,2.258,0
0.391,0.027,2.265,0
-0.895,-0.086,0.86,0
-0.593,-0.051,-0.095,0
-0.319,0.128,-0.185,0
0.146,0.628,0.483,1
0.541,0.968,0.861,0
1.155,1.276,1.183,0
1.233,1.266,1.028,0
1.439,0.966,0.268,0
1.691,0.626,-0.11,0
1.776,-0.023,0.122,0
1.592,-0.49,0.942,0
0.84,-0.936,2.719,0
0.262,-1.122,3.468,0
-0.688,-1.406,4.009,0
-0.828,-1.493,3.847,0
-0.605,-1.339,2.578,0
-0.27,-1.069,1.208,0
0.118,-0.646,-0.496,0
0.38,-0.539,-1.185,0
0.829,-0.478,-1.969,0
0.981,-0.478,-2.223,0
1.015,-0.608,-2.107,0
1.059,-0.651,-1.789,0
1.079,-0.597,-1.059,0
0.96,-0.566,-0.683,0
0.627,-0.548,-0.408,0
0.453,-0.44,-0.492,0
0.382,-0.168,-1.068,0
0.39,-0.009,-1.544,0
0.411,0.252,-2.247,0
0.48,0.327,-2.521,0
0.537,0.455,-2.391,0
0.576,0.504,-2.055,0
0.576,0.499,-2.053,0
0.437,0.437,-1.579,0
0.194,0.465,-1.26,0
0.113,0.434,-1.025,0
-0.058,0.388,-0.237,0
0.001,0.354,0.236,0
0.128,0.365,0.683,0
0.18,0.427,0.744,0
0.2,0.415,0.422,0
0.176,0.438,0.247,0
0.06,0.386,0.106,0
-0.039,0.259,0.116,0
-0.346,0.132,0.179,0
-0.522,0.081,0.432,0
-0.722,0.103,1.135,0
-0.765,0.148,1.635,0
-0.761,0.179,2.33,0
-0.739,0.222,2.382,0
-0.783,0.361,2.01,0
-0.718,0.443,1.56,0
-0.697,0.411,1.573,0
-0.752,0.716,0.555,0
-0.41,0.86,0.344,1
-0.147,0.966,0.322,0
0.137,1.005,0.383,0
0.181,0.84,0.542,0
0.158,0.838,0.54,0
0.217,-0.066,1.791,0
0.238,-0.4,2.874,0
0.115,-0.616,3.582,0
-0.026,-0.959,4.487,0
-0.265,-0.99,4.454,0
-0.675,-0.903,2.986,0
-0.677,-0.795,1.656,0
-0.355,-0.354,-0.439,0
-0.188,-0.313,-1.2,0
-0.172,-0.383,-1.669,0
-0.339,-0.458,-1.51,0
-0.456,-0.677,-0.657,0
-0.592,-0.845,-0.063,0
-0.661,-1.079,0.639,0
-0.53,-1.066,0.711,0
-0.13,-0.852,0.318,0
0.095,-0.663,-0.252,0
0.453,-0.28,-1.663,0
0.515,-0.211,-2.238,0
0.555,-0.208,-2.886,0
0.42,-0.179,-2.97,0
0.042,-0.245,-2.537,0
-0.183,-0.368,-1.998,0
-0.529,-0.383,-1.247,0
-0.678,-0.362,-0.932,0
-0.647,-0.321,-0.648,0
-0.604,-0.125,-0.735,0
-0.289,0.269,-1.075,0
-0.116,0.418,-1.206,0
-0.148,0.452,-1.425,0
-0.227,0.461,-1.556,0
-0.524,0.375,-1.452,0
-0.712,0.229,-1.214,0
-0.802,0.064,-0.709,0
-0.708,0.079,-0.421,0
-0.504,0.218,-0.032,0
-0.49,0.271,0.192,0
-0.474,0.276,0.444,0
-0.376,0.313,0.411,0
-0.408,0.385,0.298,0
-0.381,0.358,0.265,0
-0.215,0.3,0.428,0
-0.248,0.225,0.782,0
0.011,0.2,1.357,0
0.102,0.141,1.582,0
0.098,0.077,1.864,0
0.057,0.126,1.975,0
-0.128,0.315,1.803,0
-0.188,0.439,1.377,0
-0.164,0.418,1.386,0
-0.217,0.284,0.233,0
-0.084,0.538,0.366,1
-0.031,0.717,0.797,0
-0.085,0.764,1.588,0
-0.34,0.742,1.784,0
-0.307,0.471,1.251,0
-0.028,0.159,0.878,0
-0.03,0.159,0.879,0
0.67,-0.431,1.003,0
0.485,-0.6,1.384,0
0.272,-0.637,1.38,0
-0.06,-0.647,0.617,0
-0.032,-0.588,0.058,0
0.03,-0.451,-0.466,0
0.011,-0.529,-0.564,0
-0.093,-0.705,-0.814,0
-0.289,-0.753,-0.91,0
-0.466,-0.982,-1.051,0
-0.399,-1.071,-1.159,0
-0.088,-1.056,-1.177,0
0.172,-1.018,-1.124,0
0.41,-0.884,-0.998,0
0.448,-0.824,-0.938,0
0.483,-0.774,-0.962,0
0.438,-0.666,-0.996,0
0.281,-0.551,-0.953,0
0.223,-0.495,-0.898,0
0.129,-0.282,-0.799,0
0.111,-0.128,-0.921,0
0.205,0.214,-1.497,0
0.197,0.308,-1.778,0
0.369,0.437,-2.203,0
0.533,0.56,-2.409,0
0.662,0.751,-2.384,0
0.641,0.726,-2.093,0
0.537,0.604,-1.108,0
0.499,0.554,-0.41,0
0.359,0.411,0.781,0
0.263,0.271,1.321,0
0.051,-0.047,1.529,0
-0.017,-0.08,1.336,0
-0.024,-0.022,0.804,0
0.064,0.01,0.36,0
0.044,0.198,-0.18,0
0.063,0.245,-0.214,0
0.066,0.291,0.033,0
0.059,0.273,0.398,0
-0.155,0.252,1.376,0
-0.099,0.149,1.818,0
-0.055,0.194,2.183,0
-0.097,0.163,2.353,0
-0.039,0.297,2.375,0
0.075,0.476,2.105,0
0.341,0.692,0.915,1
0.434,0.712,0.247,0
0.159,0.892,0.063,0
-0.048,0.961,0.109,0
-0.373,1.01,-0.067,0
-0.573,0.857,0.029,0
-0.748,0.453,0.523,0
-0.612,0.143,0.799,0
-0.353,-0.5,1.603,0
-0.335,-0.901,2.413,0
-0.385,-1.165,3.757,0
-0.551,-1.222,4.199,0
-0.751,-1.303,3.245,0
-0.675,-1.187,1.947,0
-0.477,-0.914,-0.219,0
-0.385,-0.756,-1.219,0
-0.315,-0.582,-2.146,0
-0.338,-0.449,-2.28,0
-0.269,-0.363,-2.021,0
-0.19,-0.347,-1.719,0
0.07,-0.316,-1.039,0
0.278,-0.311,-0.647,0
0.733,-0.358,-0.358,0
0.867,-0.405,-0.474,0
0.791,-0.424,-0.718,0
0.73,-0.553,-0.889,0
0.483,-0.734,-1.414,0
0.3,-0.773,-1.575,0
0.027,-0.776,-1.458,0
-0.054,-0.74,-1.182,0
-0.048,-0.729,-1.186,0
-0.151,-0.424,-0.53,0
-0.104,-0.234,-0.637,0
0.002,-0.198,-0.683,0
-0.123,-0.034,-0.839,0
-0.247,0.008,-1.224,0
-0.258,0.019,-1.738,0
-0.214,0.058,-1.829,0
0.018,0.07,-1.823,0
0.056,0.027,-1.739,0
-0.056,-0.045,-1.117,0
-0.1,-0.088,-0.62,0
-0.076,-0.179,0.05,0
-0.074,-0.185,0.317,0
-0.134,-0.042,0.791,0
-0.053,0.049,0.849,0
0.027,0.237,0.61,0
0.098,0.283,0.448,0
0.279,0.358,0.536,0
0.395,0.33,0.914,0
0.49,0.152,1.628,0
0.419,0.119,1.914,0
0.168,0.23,1.995,0
0.162,0.324,1.638,0
0.184,0.301,1.647,0
-0.111,0.229,0.473,0
-0.63,0.347,0.57,0
-0.72,0.295,0.769,1
-1.018,0.494,0.814,0
-1.131,0.709,0.527,0
-0.312,0.616,-0.434,0
0.513,0.381,-0.899,0
1.325,-0.092,0.655,0
1.795,-0.367,2.259,0
1.505,-1.009,5.126,0
0.836,-1.364,6.249,0
-0.401,-1.957,5.977,0
-0.602,-2.011,4.582,0
-0.014,-1.851,1.781,0
0.484,-1.471,0.284,0
0.842,-1.043,-1.281,0
1.122,-0.943,-1.619,0
1.539,-0.675,-1.188,0
1.707,-0.575,-0.579,0
1.677,-0.708,0.279,0
1.485,-0.882,0.653,0
1.472,-0.869,0.649,0
1.041,-0.969,0.326,0
1.221,-0.776,-0.405,0
1.527,-0.599,-0.957,0
1.83,-0.232,-1.762,0
1.941,-0.083,-2.163,0
1.916,0.027,-2.331,0
1.749,0.007,-2.279,0
1.334,-0.112,-2.054,0
1.113,-0.195,-1.877,0
1.115,-0.203,-1.874,0
0.631,-0.394,-1.306,0
0.456,-0.461,-0.935,0
0.465,-0.49,-0.845,0
0.377,-0.392,-0.688,0
0.31,-0.36,-0.375,0
0.421,-0.341,0.08,0
0.57,-0.232,0.238,0
0.737,-0.108,0.413,0
0.83,-0.106,0.484,0
0.794,-0.143,0.507,0
0.659,-0.162,0.495,0
0.617,-0.137,0.462,0
0.606,-0.082,0.56,0
0.661,-0.013,0.744,0
0.701,0.008,0.824,0
0.791,0.053,1.063,0
0.839,0.019,1.279,0
0.969,-0.014,2.025,0
1.097,-0.03,2.27,0
1.105,0.162,2.259,0
1.104,0.318,1.919,0
1.056,0.515,0.85,0
0.991,0.584,0.168,0
0.997,0.784,-0.209,0
1.001,0.946,-0.013,0
1.015,0.923,-0.001,1
1.014,0.909,0.244,0
0.81,0.455,0.336,0
0.837,0.003,0.48,0
1.21,-0.903,1.208,0
1.539,-1.233,2.077,0
1.715,-1.463,3.67,0
1.391,-1.49,4.347,0
0.547,-1.857,3.981,0
0.233,-1.917,2.855,0
0.207,-1.693,0.783,0
0.308,-1.664,-0.248,0
0.44,-1.577,-1.305,0
0.468,-1.529,-1.366,0
0.461,-1.463,-0.943,0
0.457,-1.398,-0.621,0
0.433,-1.403,-0.621,0
0.728,-1.157,-0.28,0
0.984,-1.037,-0.346,0
1.38,-0.806,-1.342,0
1.464,-0.649,-1.655,0
1.499,-0.665,-1.677,0
1.338,-0.654,-1.394,0
1.175,-0.746,-1.091,0
0.9,-0.861,-0.614,0
0.773,-0.87,-0.459,0
0.562,-0.812,-0.605,0
0.453,-0.748,-0.842,0
0.393,-0.562,-1.226,0
0.389,-0.456,-1.479,0
0.457,-0.322,-1.637,0
0.5,-0.264,-1.401,0
0.522,-0.274,-0.76,0
0.476,-0.286,-0.334,0
0.403,-0.267,0.091,0
0.516,-0.222,0.301,0
0.78,-0.022,0.262,0
0.87,0.159,0.04,0
0.877,0.154,0.043,0
0.732,0.187,-0.488,0
0.748,0.241,-0.422,0
0.748,0.265,-0.287,0
0.587,0.26,0.018,0
0.48,0.19,0.055,0
0.483,0.261,-0.123,0
0.626,0.303,-0.056,0
0.97,0.353,0.017,0
0.965,0.381,0.119,0
1.015,0.196,0.508,0
1.011,0.043,0.864,0
1.003,0.035,0.866,0
0.935,-0.373,1.907,0
0.844,-0.304,2.038,0
0.576,-0.178,1.811,0
0.255,-0.039,1.05,1
0.277,-0.08,0.639,0
0.578,-0.121,0.857,0
0.578,-0.024,1.445,0
0.371,0.353,1.953,0
0.309,0.418,1.669,0
0.202,0.438,0.761,0
0.322,0.435,0.175,0
1.268,0.259,-0.416,0
1.953,0.144,-0.383,0
2.618,0.031,0.681,0
2.653,-0.136,1.77,0
2.232,-0.55,3.178,0
1.696,-0.815,3.309,0
0.885,-1.155,2.544,0
0.563,-1.274,1.847,0
0.422,-1.288,0.587,0
0.596,-1.034,-0.15,0
0.779,-0.707,-0.809,0
0.91,-0.694,-1.159,0
1.244,-0.706,-1.862,0
1.494,-0.654,-2.225,0
1.63,-0.639,-1.885,0
1.643,-0.72,-1.129,0
1.627,-0.69,-1.141,0
1.377,-0.844,0.663,0
1.132,-0.826,1.053,0
1.094,-0.785,0.802,0
1.083,-0.46,-0.259,0
1.105,-0.234,-0.981,0
1.129,-0.049,-1.785,0
1.184,0.024,-2.048,0
1.321,0.317,-2.251,0
1.401,0.419,-2.195,0
1.262,0.43,-1.767,0
1.046,0.273,-1.302,0
0.693,0.035,-0.605,0
0.551,-0.06,-0.329,0
0.293,-0.126,-0.135,0
0.254,-0.185,-0.057,0
0.378,-0.037,-0.049,0
0.586,0.084,-0.122,0
0.84,0.31,0.001,0
0.912,0.369,0.272,0
0.843,0.462,0.607,0
0.578,0.475,0.754,0
0.142,0.338,1.05,0
-0.063,0.358,1.092,0
-0.267,0.364,1.068,0
-0.248,0.357,1.15,0
0.007,0.487,1.491,0
0.215,0.646,1.702,0
0.449,0.71,1.993,0
0.442,0.732,2.146,0
0.155,0.715,2.338,0
-0.083,0.651,2.136,0
-0.081,0.632,2.143,1
-0.006,0.354,0.982,0
-0.032,0.441,0.778,0
-0.137,0.567,0.756,0
-0.305,0.659,0.417,0
-0.384,0.646,0.044,0
-0.308,0.49,-0.461,0
-0.186,0.459,-0.362,0
0.2,0.23,0.016,0
0.267,-0.047,0.507,0
0.34,-0.598,1.582,0
0.282,-0.829,1.921,0
-0.041,-1.094,2.147,0
-0.215,-1.165,1.946,0
-0.182,-1.08,1.214,0
0.061,-0.851,0.629,0
0.045,-0.855,0.629,0
0.294,-0.384,-0.401,0
0.502,-0.333,-0.762,0
0.56,-0.339,-0.862,0
0.495,-0.508,-0.735,0
0.475,-0.677,-0.556,0
0.322,-0.909,-0.414,0
0.265,-0.981,-0.445,0
0.251,-0.919,-0.668,0
0.326,-0.789,-0.978,0
0.329,-0.786,-0.979,0
0.685,-0.432,-1.823,0
0.866,-0.348,-2.119,0
0.766,-0.332,-2.031,0
0.588,-0.348,-1.365,0
0.428,-0.4,-0.759,0
0.41,-0.383,-0.766,0
-0.046,-0.417,0.115,0
-0.259,-0.371,-0.173,0
-0.214,-0.216,-0.501,0
-0.218,-0.228,-0.496,0
0.434,0.316,-1.274,0
0.566,0.51,-1.461,0
0.615,0.565,-1.311,0
0.6,0.591,-0.85,0
0.497,0.527,-0.481,0
0.273,0.255,-0.027,0
0.15,0.111,0.31,0
0.133,0.105,0.312,0
0.066,0.033,1.14,0
-0.129,0.03,1.58,0
-0.171,0.042,1.68,0
0.064,0.069,1.171,0
0.209,0.138,0.872,0
0.216,0.105,0.884,0
0.635,0.356,1.285,0
0.83,0.434,1.95,0
0.825,0.363,2.088,0
0.651,0.277,1.709,0
0.377,0.293,1.283,0
0.391,0.255,1.299,1
-0.029,-0.145,-0.141,0
0.1,-0.336,0.122,0
0.105,-0.183,0.929,0
-0.072,0.043,1.974,0
-0.127,0.082,2.018,0
-0.457,0.248,1.184,0
-0.408,0.33,0.466,0
0.305,0.258,-0.596,0
0.85,0.137,-0.717,0
1.539,0.103,-0.043,0
1.549,0.019,0.633,0
0.906,-0.484,1.342,0
0.213,-0.833,1.48,0
-0.398,-1.165,1.138,0
-0.536,-1.224,0.883,0
-0.418,-1.129,0.524,0
-0.246,-0.992,0.134,0
-0.113,-0.799,-0.873,0
-0.07,-0.789,-1.293,0
0.072,-0.926,-1.773,0
0.114,-1.035,-1.762,0
0.053,-1.183,-1.293,0
0.033,-1.305,-0.955,0
0.107,-1.275,-0.397,0
0.192,-1.166,-0.312,0
0.502,-1.103,-0.407,0
0.707,-0.896,-0.463,0
0.868,-0.569,-0.47,0
0.911,-0.405,-0.528,0
0.896,-0.414,-0.525,0
0.673,-0.072,-1.374,0
0.403,0.067,-2.099,0
0.261,0.13,-2.373,0
0.208,0.207,-2.543,0
0.271,0.316,-2.412,0
0.495,0.5,-1.762,0
0.52,0.472,-1.257,0
0.437,0.393,-0.472,0
0.479,0.451,-0.194,0
0.434,0.496,0.32,0
0.334,0.389,0.603,0
0.112,0.221,0.66,0
-0.022,0.141,0.434,0
-0.149,0.074,-0.072,0
-0.234,0.092,-0.089,0
-0.214,0.092,-0.089,0
-0.29,0.248,0.482,0
-0.24,0.399,0.811,0
-0.298,0.448,0.884,0
-0.341,0.311,1.156,0
-0.268,0.29,1.525,0
-0.284,0.28,1.528,0
0,0.197,2.342,0
0.163,0.145,2.37,0
0.161,0.222,2.151,1
0.092,0.497,1.478,0
0.233,0.586,0.819,0
0.475,0.701,0.156,0
0.54,0.842,0.135,0
0.499,1.055,0.347,0
0.368,1.15,0.38,0
0.091,0.912,0.129,0
-0.111,0.703,-0.046,0
-0.303,0.254,-0.288,0
-0.189,-0.019,-0.334,0
0.127,-0.639,0.262,0
0.304,-0.983,1.333,0
0.338,-1.219,2.86,0
0.12,-1.184,3.319,0
-0.31,-1.285,2.971,0
-0.452,-1.272,1.948,0
-0.52,-1.011,-0.086,0
-0.524,-0.804,-0.705,0
-0.526,-0.679,-1.346,0
-0.699,-0.56,-1.734,0
-0.816,-0.419,-1.939,0
-0.715,-0.382,-1.964,0
-0.197,-0.178,-1.812,0
0.176,-0.02,-1.583,0
0.842,0.135,-1.292,0
1.011,0.184,-1.007,0
0.894,-0.019,-0.431,0
0.633,-0.267,-0.241,0
0.004,-0.667,-0.116,0
-0.322,-0.864,-0.07,0
-0.326,-0.851,-0.074,0
-0.578,-0.727,-0.078,0
-0.589,-0.73,-0.077,0
-0.352,-0.232,-0.928,0
-0.178,0.015,-1.113,0
-0.19,0.117,-0.876,0
-0.469,0.091,-0.11,0
-0.716,-0.01,0.325,0
-0.704,0.002,0.32,0
-1.132,-0.167,0.249,0
-1.119,-0.171,0.25,0
-0.679,-0.081,-0.192,0
-0.226,0.168,-0.15,0
0.043,0.267,0.048,0
0.315,0.243,0.38,0
0.286,0.234,0.544,0
0.037,0.13,0.924,0
-0.088,0.055,1.202,0
-0.267,-0.05,1.381,0
-0.383,-0.178,1.35,0
-0.358,-0.43,1.292,0
-0.167,-0.557,1.335,0
0.166,-0.537,1.633,0
0.245,-0.497,1.733,0
0.192,-0.332,1.462,0
0.113,-0.141,0.945,0
0.246,0.099,0.126,0
0.363,0.059,-0.12,0
0.309,0.036,0.161,1
0.235,0.026,0.662,0
0.072,0.085,1.42,0
-0.117,0.176,1.575,0
-0.242,0.216,0.837,0
-0.084,0.205,0.313,0
0.877,0.013,-0.335,0
1.567,-0.149,-0.093,0
1.704,-0.5,1.689,0
1.395,-0.754,2.667,0
0.503,-1.172,3.654,0
-0.269,-1.479,3.53,0
-0.792,-1.755,2.178,0
-0.672,-1.667,1.13,0
-0.086,-1.249,-0.461,0
0.258,-0.975,-1.287,0
0.491,-0.852,-1.621,0
0.574,-0.829,-1.597,0
0.73,-0.899,-1.654,0
0.669,-0.989,-1.675,0
0.387,-1.204,-1.269,0
0.257,-1.248,-0.866,0
0.099,-1.116,-0.282,0
0.134,-0.943,-0.228,0
0.458,-0.501,-0.5,0
0.688,-0.181,-0.922,0
0.863,0.123,-1.715,0
0.994,0.196,-2.134,0
1.067,0.435,-2.685,0
0.904,0.53,-2.71,0
0.556,0.397,-2.42,0
0.312,0.24,-2.095,0
0.303,0.24,-2.095,0
-0.159,-0.01,-0.601,0
-0.322,-0.065,0.083,0
-0.329,-0.094,0.341,0
-0.136,-0.059,0.504,0
0.116,0.059,0.315,0
0.401,0.198,-0.336,0
0.495,0.23,-0.628,0
0.607,0.269,-0.678,0
0.59,0.267,-0.488,0
0.401,0.314,0.02,0
0.258,0.361,0.126,0
-0.109,0.347,0.527,0
-0.228,0.277,0.883,0
-0.258,0.318,1.255,0
-0.209,0.35,1.229,0
-0.019,0.467,1.038,0
0.144,0.53,1.01,0
0.417,0.612,1.161,0
0.669,0.627,1.272,0
0.815,0.652,1.323,0
0.575,0.787,1.454,0
0.404,0.726,1.482,1
0.532,0.598,1.393,0
0.425,0.58,2.085,0
0.153,0.615,2.679,0
-0.717,0.5,2.636,0
-1.186,0.386,1.969,0
-1.897,0.122,0.534,0
-1.849,0.221,-0.026,0
-0.795,0.567,-0.362,0
0.189,0.54,-0.247,0
1.755,0.312,0.318,0
2.133,0.084,0.726,0
2.084,-0.145,2.009,0
1.687,-0.393,2.701,0
0.676,-0.972,2.544,0
0.044,-1.204,1.286,0
-0.565,-1.32,-0.301,0
-0.744,-1.377,-1.147,0
-0.939,-1.181,-2.062,0
-0.88,-1.014,-2.504,0
-0.536,-0.758,-3.015,0
-0.205,-0.607,-3.043,0
0.394,-0.377,-2.607,0
0.639,-0.331,-2.198,0
0.561,-0.613,-1.17,0
0.31,-0.84,-0.667,0
0.108,-1.074,-0.145,0
0.005,-1.075,-0.117,0
0.02,-1.079,-0.425,0
0.202,-0.918,-0.737,0
0.724,-0.419,-1.368,0
0.9,-0.097,-1.603,0
0.912,0.094,-1.578,0
0.75,-0.017,-1.424,0
0.307,-0.167,-0.732,0
0.082,-0.24,-0.194,0
0.015,-0.312,0.547,0
-0.048,-0.274,0.791,0
-0.072,-0.279,0.918,0
0.083,-0.225,0.859,0
0.089,-0.218,0.856,0
0.574,0.104,-0.115,0
0.705,0.137,-0.455,0
0.609,0.125,-0.268,0
0.486,0.013,0.21,0
0.29,-0.121,0.546,0
0.298,-0.125,0.548,0
-0.095,-0.24,0.733,0
-0.08,-0.254,0.739,0
0.313,-0.017,0.321,0
0.65,0.105,0.202,0
0.809,0.167,0.281,0
1.098,0.33,0.284,0
1.142,0.407,0.416,0
0.846,0.519,0.739,0
0.396,0.589,0.766,0
-0.062,0.412,0.026,1
-0.04,0.167,-0.304,0
-0.067,0.073,0.226,0
-0.108,0.211,0.912,0
-0.129,0.251,1.615,0
-0.256,0.307,1.445,0
-0.695,0.458,0.407,0
-0.583,0.411,0.008,0
0.209,0.048,-0.458,0
0.431,-0.19,-0.078,0
0.486,-0.616,1.751,0
0.466,-0.555,1.725,0
-0.084,-0.968,3.781,0
-0.523,-1.26,3.752,0
-0.7,-1.219,2.704,0
-0.513,-1.021,1.472,0
-0.114,-0.728,-0.627,0
-0.079,-0.734,-0.624,0
0.739,-0.409,-2.677,0
0.981,-0.367,-2.783,0
0.973,-0.549,-1.474,0
0.887,-0.784,-0.27,0
0.841,-0.983,1.046,0
0.635,-0.996,1.8,0
0.383,-0.99,2.163,0
0.443,-0.854,1.882,0
0.711,-0.509,0.605,0
0.837,-0.241,-0.376,0
0.861,-0.017,-1.702,0
0.97,0.029,-2.302,0
0.945,0.245,-2.586,0
0.901,0.302,-2.317,0
0.75,0.264,-1.471,0
0.591,0.243,-0.962,0
0.384,0.239,-0.182,0
0.359,0.239,0.042,0
0.272,0.334,0.22,0
0.359,0.424,0.129,0
0.692,0.565,-0.47,0
0.823,0.612,-0.766,0
0.774,0.607,-0.724,0
0.722,0.491,-0.513,0
0.713,0.466,-0.504,0
0.311,0.307,0.243,0
0.128,0.406,0.539,0
-0.028,0.342,0.836,0
-0.005,0.331,0.84,0
0.013,0.115,0.908,0
0.203,0.238,0.694,0
0.318,0.292,0.702,0
0.559,0.316,0.891,0
0.672,0.375,0.908,0
0.596,0.537,0.829,0
0.467,0.723,0.718,0
0.252,0.729,0.434,0
0.125,0.605,0.287,0
0.088,0.433,0.335,0
0.101,0.554,0.478,0
0.105,0.689,0.545,0
0.01,0.602,0.418,1
-0.049,0.327,0.15,0
0.018,0.149,-0.049,0
0.398,-0.255,0.309,0
0.656,-0.592,1.133,0
0.967,-1.126,2.738,0
0.776,-1.186,3.412,0
-0.01,-1.449,3.682,0
-0.393,-1.643,2.789,0
-0.396,-1.413,0.767,0
-0.399,-1.271,-0.318,0
-0.453,-1.059,-1.627,0
-0.447,-0.916,-1.965,0
-0.448,-0.762,-2.271,0
-0.439,-0.651,-2.349,0
-0.283,-0.641,-2.078,0
-0.154,-0.698,-1.806,0
-0.194,-0.692,-1.809,0
0.312,-0.609,-0.718,0
0.523,-0.616,-0.029,0
0.482,-0.612,0.279,0
0.435,-0.628,0.659,0
0.365,-0.604,0.668,0
0.252,-0.533,0.316,0
0.217,-0.507,0.002,0
0.251,-0.384,-0.703,0
0.256,-0.288,-1.075,0
0.316,-0.076,-1.182,0
0.433,0.076,-1.201,0
0.437,0.256,-1.137,0
0.314,0.29,-1.017,0
0.073,0.185,-0.828,0
-0.053,0.061,-0.764,0
-0.042,0.067,-0.766,0
-0.302,-0.189,-0.506,0
-0.119,-0.285,-0.458,0
-0.083,-0.213,-0.301,0
0.205,-0.163,-0.101,0
0.429,-0.071,-0.017,0
0.429,-0.079,-0.014,0
0.345,0.168,0.528,0
0.196,0.218,0.464,0
0.178,0.213,0.515,0
0.286,0.238,0.769,0
0.444,0.13,0.996,0
0.448,0.11,1.004,0
0.378,-0.043,1.32,0
0.391,-0.031,1.21,0
0.228,0.097,1.053,0
0.228,0.063,1.066,0
0.253,0.202,0.175,0
0.626,0.224,0.334,0
0.621,0.483,0.78,0
0.597,0.658,1.391,1
0.556,0.581,1.419,0
0.091,0.526,1.034,0
-0.082,0.517,0.694,0
0.26,0.126,0.322,0
0.565,-0.082,0.135,0
1.018,-0.159,0.504,0
1.113,-0.336,1.244,0
1.15,-0.627,2.248,0
0.87,-0.736,2.37,0
0.341,-1.016,1.907,0
0.171,-1.117,1.476,0
0.006,-1.228,0.789,0
-0.038,-1.277,0.307,0
-0.277,-1.368,-0.471,0
-0.319,-1.38,-0.855,0
0.008,-1.299,-1.494,0
0.256,-1.164,-1.479,0
0.25,-1.143,-1.487,0
1.138,-0.842,-0.349,0
1.272,-0.625,0.238,0
1.126,-0.64,0.313,0
0.736,-0.739,-0.038,0
0.559,-0.664,-0.386,0
0.541,-0.44,-1.18,0
0.547,-0.326,-1.725,0
0.591,-0.094,-2.217,0
0.666,0.089,-2.221,0
0.824,0.356,-1.934,0
0.863,0.532,-1.628,0
0.631,0.508,-1.109,0
0.316,0.351,-0.981,0
-0.085,0.14,-0.887,0
-0.136,0.127,-0.72,0
-0.074,0.099,-0.361,0
0.004,0.121,-0.185,0
0.207,0.205,0.249,0
0.288,0.265,0.578,0
0.462,0.266,0.981,0
0.601,0.314,1.142,0
0.504,0.44,1.425,0
0.313,0.386,1.54,0
0.084,0.216,1.403,0
-0.029,0.181,1.217,0
-0.067,0.108,1.055,0
0.045,0.111,0.975,0
0.291,0.281,1.045,0
0.413,0.203,1.101,0
0.669,0.267,1.317,0
0.942,0.504,1.723,0
1.294,0.957,1.978,0
1.364,1.101,1.868,0
1.518,0.84,1.103,1
1.289,0.701,0.739,0
0.492,0.546,0.507,0
0.153,0.417,0.462,0
-0.12,0.156,0.381,0
-0.34,-0.09,0.21,0
-0.722,-0.47,-0.051,0
-0.587,-0.723,-0.186,0
0.377,-0.94,0.059,0
1.282,-0.698,0.742,0
2.448,-0.217,1.985,0
2.571,-0.136,2.303,0
1.96,-0.375,1.271,0
1.338,-0.53,0.226,0
1.351,-0.517,0.221,0
0.523,-0.981,-0.83,0
-0.099,-0.997,-1.128,0
-0.439,-0.988,-1.122,0
-0.485,-1.042,-0.778,0
-0.255,-0.974,-0.69,0
0.191,-0.741,-0.384,0
0.441,-0.675,-0.155,0
0.685,-0.645,0.135,0
0.672,-0.702,0.062,0
0.584,-0.778,-0.199,0
0.552,-0.747,-0.445,0
0.434,-0.714,-0.824,0
0.534,-0.593,-0.975,0
0.841,-0.273,-1.377,0
0.817,-0.123,-1.489,0
0.445,-0.138,-1.237,0
0.213,-0.2,-1,0
0.069,-0.183,-0.825,0
0.028,-0.155,-0.911,0
0.076,-0.086,-1.069,0
0.063,-0.111,-1.093,0
0.068,-0.12,-0.78,0
0.041,-0.161,-0.787,0
-0.115,-0.189,-0.814,0
-0.135,-0.25,-0.759,0
-0.141,-0.242,-0.491,0
-0.132,-0.295,-0.245,0
-0.137,-0.301,-0.243,0
-0.16,-0.338,0.542,0
-0.125,-0.204,0.681,0
-0.149,-0.046,0.506,0
-0.132,-0.056,0.51,0
-0.1,0.027,0.122,0
0.014,0.016,0.476,0
0.073,-0.042,0.875,0
0.034,-0.321,1.535,0
-0.032,-0.402,1.678,0
-0.178,-0.24,1.631,0
-0.188,-0.119,1.435,0
-0.034,0.126,0.356,0
0.051,0.195,-0.199,0
0.097,0.168,-0.306,0
0.051,0.309,0.004,0
0.075,0.305,0.006,1
0.023,0.763,0.464,0
0.15,1.039,0.151,0
0.502,1.109,-0.285,0
1.73,0.884,-0.9,0
2.359,0.872,-0.748,0
2.464,0.311,1.157,0
2.347,-0.185,2.313,0
1.325,-0.784,3.944,0
0.825,-1.133,4.184,0
0.387,-1.384,3.479,0
0.334,-1.329,2.7,0
0.712,-1.011,1.197,0
0.932,-0.756,0.368,0
1.133,-0.489,-0.806,0
1.225,-0.433,-1.154,0
1.216,-0.551,-1.378,0
1.129,-0.664,-1.295,0
1.028,-0.822,-0.835,0
0.951,-0.862,-0.384,0
1.007,-0.821,0.099,0
1.16,-0.669,0.064,0
1.162,-0.652,0.058,0
1.574,-0.034,-0.485,0
1.632,0.108,-1.334,0
1.462,0.131,-1.832,0
1.351,0.15,-2.457,0
1.216,0.169,-2.639,0
0.803,0.12,-2.533,0
0.589,0.081,-2.22,0
0.582,0.069,-2.216,0
0.464,0.211,-1.233,0
0.624,0.365,-1.073,0
0.711,0.403,-1.067,0
0.839,0.345,-1.087,0
0.813,0.306,-0.929,0
0.666,0.222,-0.385,0
0.729,0.136,-0.083,0
0.481,0.024,0.759,0
0.305,0.034,1.286,0
0.133,0.004,1.757,0
0,0.05,1.664,0
0.01,0.121,1.015,0
0.124,0.171,0.693,0
0.149,0.156,0.699,0
0.347,0.372,0.583,0
0.413,0.389,1.005,0
0.479,0.371,1.254,0
0.574,0.433,1.677,0
0.476,0.458,1.945,0
0.429,0.507,1.852,0
0.592,0.574,1.323,0
0.771,0.718,0.697,0
0.825,0.805,0.632,0
0.882,1.053,0.65,1
0.883,1.092,0.541,0
0.54,0.853,-0.118,0
0.285,0.744,-0.352,0
0.418,0.481,-0.309,0
0.399,0.498,-0.317,0
1.791,-0.286,1.303,0
2.071,-0.516,2.334,0
1.661,-0.825,3.68,0
1.003,-1.12,3.881,0
-0.065,-1.408,3.007,0
-0.593,-1.537,1.934,0
-1.145,-1.722,0.271,0
-1.226,-1.599,-0.671,0
-0.917,-1.075,-1.739,0
-0.901,-1.078,-1.738,0
0.116,-0.429,-1.349,0
0.572,-0.23,-0.909,0
0.536,-0.225,-0.913,0
1.082,-0.076,-0.263,0
0.833,-0.348,-0.297,0
0.717,-0.434,-0.529,0
0.733,-0.378,-1.158,0
0.797,-0.333,-1.621,0
0.984,-0.281,-1.977,0
1.071,-0.241,-1.954,0
1.085,-0.069,-1.358,0
1.075,-0.063,-1.36,0
0.714,-0.115,-0.235,0
0.481,-0.094,-0.087,0
0.179,-0.093,-0.165,0
0.059,-0.047,-0.308,0
0.063,-0.053,-0.306,0
-0.053,0.016,-0.81,0
0.181,0.086,-0.784,0
0.373,0.194,-0.655,0
0.759,0.337,-0.535,0
0.857,0.289,-0.661,0
0.849,0.263,-0.502,0
0.943,0.259,-0.238,0
0.935,0.247,-0.234,0
1.041,0.204,0.351,0
0.836,0.076,0.554,0
0.718,-0.017,0.37,0
0.634,-0.091,-0.083,0
0.543,-0.14,-0.037,0
0.541,-0.304,0.399,0
0.555,-0.425,0.601,0
0.444,-0.369,1.092,0
0.445,-0.316,1.438,0
0.353,-0.089,1.636,0
0.309,-0.055,1.134,0
0.058,-0.151,-0.197,0
-0.079,-0.169,-0.725,0
-0.045,-0.184,-0.718,0
-0.291,0.144,-0.356,0
-0.539,0.509,0.306,0
-0.729,0.686,0.305,1
-0.733,0.698,0.3,0
-0.045,0.649,-0.581,0
1.256,0.405,-0.244,0
1.699,0.159,1.101,0
1.68,-0.605,3.897,0
1.023,-0.827,5.384,0
-0.194,-1.277,6.475,0
-0.647,-1.431,5.753,0
-1.036,-1.452,3.446,0
-0.799,-1.202,1.817,0
-0.117,-0.538,-0.688,0
0.249,-0.248,-1.421,0
0.7,-0.006,-1.841,0
0.942,0.094,-1.789,0
1.201,0.196,-1.154,0
1.217,-0.053,-0.645,0
0.941,-0.55,-0.03,0
0.783,-0.726,0.151,0
0.798,-0.821,0.212,0
1.002,-0.763,0.075,0
1.382,-0.516,-0.414,0
1.605,-0.368,-0.834,0
1.837,-0.11,-1.536,0
1.784,-0.033,-1.899,0
1.555,0,-2.306,0
1.435,0.019,-2.474,0
1.224,0.023,-2.492,0
1.103,0.027,-2.299,0
0.99,0.057,-1.522,0
1.007,0.041,-1.023,0
1.01,0.084,-0.508,0
1.042,0.161,-0.42,0
1.124,0.17,-0.459,0
1.097,0.184,-0.534,0
0.998,0.217,-0.558,0
0.982,0.216,-0.452,0
0.941,0.236,-0.165,0
0.938,0.247,0.051,0
0.889,0.256,0.283,0
0.75,0.27,0.478,0
0.548,0.222,0.646,0
0.478,0.237,0.766,0
0.495,0.229,0.771,0
0.414,0.307,1.31,0
0.54,0.342,1.64,0
0.574,0.308,1.837,0
0.513,0.222,2.21,0
0.492,0.224,2.37,0
0.35,0.241,2.328,0
0.408,0.32,2.049,0
0.601,0.384,1.33,0
0.529,0.352,1.002,1
0.525,0.313,1.017,0
0.33,0.844,0.881,0
0.38,0.958,0.505,0
0.321,0.986,0.002,0
0.428,0.942,-0.497,0
0.633,0.738,-0.494,0
0.973,0.058,0.364,0
1.13,-0.436,1.388,0
1.219,-0.954,3.121,0
0.89,-1.096,3.679,0
0.127,-1.427,3.609,0
-0.258,-1.578,2.804,0
-0.385,-1.421,0.356,0
-0.389,-1.244,-0.877,0
-0.128,-0.939,-2.328,0
0.033,-0.684,-2.836,0
0.477,-0.175,-2.802,0
0.831,-0.114,-2.496,0
1.259,-0.077,-1.815,0
1.275,-0.09,-1.259,0
1.168,-0.29,-0.35,0
1.018,-0.491,0.037,0
0.747,-0.638,0.248,0
0.584,-0.69,0.145,0
0.522,-0.699,-0.456,0
0.531,-0.645,-0.969,0
0.591,-0.612,-1.763,0
0.596,-0.559,-1.985,0
0.457,-0.473,-1.596,0
0.394,-0.396,-1.126,0
0.297,-0.163,-0.608,0
0.215,-0.061,-0.325,0
0.171,0.023,-0.049,0
0.158,0.092,-0.131,0
0.117,0.145,-0.52,0
0.145,0.159,-0.743,0
0.294,0.25,-1,0
0.285,0.234,-0.994,0
0.536,0.302,-1.142,0
0.571,0.272,-0.996,0
0.497,0.205,-0.505,0
0.362,0.182,-0.004,0
0.335,0.204,0.636,0
0.298,0.243,0.789,0
0.206,0.332,0.638,0
0.21,0.325,0.369,0
0.181,0.353,0.023,0
0.199,0.379,0.043,0
0.376,0.46,0.313,0
0.476,0.533,0.611,0
0.798,0.677,1.189,0
1.036,0.665,1.471,0
0.863,0.448,1.65,0
0.266,0.314,1.632,0
-0.586,0.096,1.044,0
-0.536,-0.023,0.49,1
-0.53,-0.046,0.5,0
-0.037,0.218,0.79,0
0.131,0.615,2.188,0
0.087,0.726,2.471,0
-0.198,0.854,2.036,0
-0.103,0.928,1.245,0
0.391,0.948,-0.041,0
0.799,0.805,-0.464,0
1.243,0.565,-0.318,0
1.076,0.269,0.669,0
0.61,-0.372,2.075,0
0.219,-0.555,2.447,0
-0.501,-1.01,2.667,0
-0.587,-1.153,2.321,0
-0.179,-0.949,1.082,0
0.097,-0.706,0.202,0
0.196,-0.493,-0.958,0
0.262,-0.574,-1.28,0
0.496,-0.63,-1.8,0
0.432,-0.732,-1.767,0
0.125,-1.048,-1.18,0
0.004,-1.216,-0.73,0
-0.039,-1.306,-0.253,0
-0.004,-1.243,-0.162,0
0.159,-1.084,-0.28,0
0.364,-0.895,-0.569,0
0.37,-0.894,-0.569,0
0.663,-0.271,-1.344,0
0.621,-0.051,-1.72,0
0.426,0.045,-1.796,0
0.124,0.039,-1.775,0
-0.038,0.019,-1.686,0
-0.09,0.068,-1.397,0
-0.034,0.121,-1.176,0
0.074,0.164,-0.882,0
0.115,0.192,-0.828,0
0.25,0.214,-0.775,0
0.38,0.271,-0.74,0
0.502,0.377,-0.48,0
0.478,0.31,-0.277,0
0.363,0.182,0.02,0
0.256,0.148,0.104,0
0.124,0.173,0.122,0
-0.047,0.17,-0.012,0
0.057,0.369,-0.085,0
0.207,0.482,-0.032,0
0.183,0.581,0.181,0
0.163,0.619,0.518,0
0.363,0.62,1.105,0
0.451,0.588,1.37,0
0.392,0.505,1.755,0
0.399,0.375,1.881,0
0.485,0.25,1.83,0
0.438,0.35,1.6,0
0.317,0.626,0.92,0
0.517,0.54,0.315,0
0.639,0.472,0.066,1
0.472,0.595,0.402,0
0.158,0.845,0.723,0
-0.07,0.753,0.529,0
-0.67,0.48,-0.105,0
-0.89,0.356,-0.576,0
-0.516,0.253,-0.981,0
0.297,0.186,-0.887,0
1.385,0.026,0.104,0
1.649,-0.025,0.97,0
1.357,-0.338,1.927,0
0.883,-0.603,1.868,0
-0.099,-0.993,0.938,0
-0.459,-1.065,0.411,0
-0.77,-1.23,-0.164,0
-0.917,-1.25,-0.497,0
-1.127,-0.883,-1.085,0
-1.005,-0.663,-1.261,0
-0.453,-0.364,-1.256,0
-0.047,-0.196,-1.213,0
0.628,0.027,-1.079,0
0.864,0.101,-0.964,0
0.913,0.036,-0.518,0
0.779,-0.128,-0.104,0
0.756,-0.102,-0.115,0
0.281,-0.642,0.573,0
-0.044,-0.721,0.394,0
-0.088,-0.66,0.198,0
0.242,-0.475,-0.318,0
0.568,-0.211,-0.726,0
0.683,0.167,-1.12,0
0.768,0.272,-1.264,0
0.789,0.535,-1.212,0
0.654,0.572,-1.124,0
0.153,0.37,-1.023,0
-0.299,0.195,-0.894,0
-0.642,-0.045,-0.87,0
-0.634,-0.04,-0.932,0
-0.365,0.064,-0.985,0
-0.078,0.161,-0.689,0
0.511,0.331,0.068,0
0.743,0.414,0.418,0
0.695,0.343,0.844,0
0.624,0.235,0.907,0
0.639,0.449,1.07,0
0.731,0.592,1.217,0
0.741,0.583,1.22,0
0.602,0.367,1.118,0
0.444,0.121,1.177,0
0.529,0.031,1.286,0
0.543,0.008,1.296,0
0.83,-0.073,0.988,0
0.796,0.184,0.411,0
0.806,0.322,-0.172,0
1.192,0.259,-0.774,0
1.352,0.233,-0.511,0
1.176,0.303,0.782,0
0.901,0.269,1.538,1
0.9,0.276,1.535,0
0.022,0.155,1.841,0
-0.192,0.209,0.625,0
0.25,0.239,-0.336,0
1.272,0.215,-0.662,0
1.802,0.218,-0.316,0
1.788,0.237,-0.325,0
1.7,-0.428,1.93,0
1.11,-0.859,2.478,0
0.627,-1.019,2.316,0
0.056,-1.224,1.799,0
0.07,-1.198,1.531,0
0.158,-1.07,1.077,0
0.136,-0.93,0.741,0
0.131,-0.781,-0.074,0
0.186,-0.757,-0.54,0
0.389,-0.744,-1.135,0
0.526,-0.711,-1.369,0
0.687,-0.678,-1.477,0
0.751,-0.619,-1.403,0
0.895,-0.467,-1.204,0
0.98,-0.332,-0.978,0
0.974,-0.102,-0.673,0
1.009,0.078,-0.622,0
1.181,0.357,-0.785,0
1.238,0.458,-1.059,0
1.18,0.64,-1.606,0
1.059,0.691,-1.803,0
0.843,0.682,-1.917,0
0.676,0.628,-1.834,0
0.439,0.583,-1.629,0
0.422,0.532,-1.386,0
0.517,0.521,-0.645,0
0.64,0.526,-0.246,0
0.762,0.551,0,0
0.783,0.533,0.02,0
0.964,0.68,0.128,0
1.154,0.744,0.079,0
1.022,0.734,-0.041,0
0.778,0.541,-0.061,0
0.475,0.387,0.017,0
0.234,0.364,0.204,0
-0.061,0.209,0.617,0
-0.21,0.108,0.956,0
-0.223,-0.007,1.395,0
-0.05,0.029,1.576,0
0.175,0.133,1.594,0
0.286,0.239,1.71,0
0.645,0.57,2.159,0
0.733,0.822,2.119,0
0.723,1.12,1.484,0
0.851,1.188,0.973,0
0.87,1.159,0.985,1
0.88,1.257,0.559,0
0.838,1.321,0.313,0
0.741,1.247,0.125,0
0.547,0.992,-0.271,0
0.433,0.678,-0.601,0
0.907,0.179,-0.308,0
1.295,-0.143,0.736,0
1.947,-0.531,2.968,0
1.962,-0.528,3.908,0
1.203,-0.847,4.647,0
0.67,-1.13,4.26,0
0.678,-1.099,4.25,0
-0.214,-1.252,0.949,0
-0.324,-1.174,-0.555,0
-0.432,-1.074,-1.345,0
-0.329,-0.889,-1.598,0
-0.11,-0.696,-1.135,0
0.519,-0.424,-0.199,0
0.826,-0.338,-0.028,0
0.787,-0.396,-0.129,0
0.67,-0.509,-0.212,0
0.433,-0.701,-0.389,0
0.311,-0.781,-0.542,0
0.249,-0.756,-0.807,0
0.237,-0.756,-1.052,0
0.268,-0.605,-1.578,0
0.321,-0.459,-1.771,0
0.504,-0.196,-1.652,0
0.618,-0.098,-1.458,0
0.683,0.159,-1.196,0
0.594,0.185,-1.022,0
0.329,0.041,-0.788,0
0.165,-0.072,-0.726,0
0.009,-0.209,-0.782,0
-0.036,-0.262,-0.894,0
-0.075,-0.302,-1.017,0
0.057,-0.28,-1.131,0
0.323,-0.079,-1.229,0
0.402,-0.007,-1.17,0
0.527,0.056,-0.918,0
0.671,0.182,-0.639,0
0.596,0.252,-0.195,0
0.456,0.2,-0.07,0
0.212,-0.029,-0.054,0
0.038,-0.139,-0.03,0
-0.096,-0.247,0.057,0
0.018,-0.346,0.119,0
0.252,-0.293,0.461,0
0.353,-0.199,0.713,0
0.34,-0.218,0.72,0
0.469,-0.074,1.3,0
0.51,0.291,1.5,0
0.371,0.407,1.262,0
0.115,0.238,0.507,0
0.031,0.049,0.285,0
0.019,-0.014,0.46,0
-0.022,0.181,1.031,0
0.024,0.461,1.97,1
-0.021,0.672,1.948,0
-0.03,0.683,1.943,0
0.287,0.915,0.476,0
1.157,0.729,0.334,0
1.587,0.612,0.724,0
1.655,0.303,1.954,0
1.351,-0.157,2.922,0
0.794,-0.688,3.483,0
0.436,-0.705,3.189,0
0.226,-0.751,1.887,0
0.4,-0.634,0.802,0
0.656,-0.164,-0.578,0
0.739,-0.044,-0.968,0
0.876,-0.06,-1.232,0
0.916,-0.086,-1.336,0
0.879,-0.237,-1.378,0
0.782,-0.432,-1.211,0
0.584,-0.772,-0.738,0
0.549,-0.875,-0.604,0
0.644,-0.893,-0.667,0
0.855,-0.736,-0.843,0
1.22,-0.397,-0.93,0
1.419,-0.193,-0.945,0
1.468,-0.014,-0.972,0
1.341,0.032,-1.139,0
0.813,-0.023,-1.611,0
0.592,-0.077,-1.845,0
0.53,0.036,-2.14,0
0.627,0.2,-2.156,0
0.972,0.52,-1.892,0
1.164,0.688,-1.687,0
1.259,0.822,-1.242,0
1.282,0.845,-0.964,0
1.208,0.821,-0.301,0
1.11,0.754,0.112,0
0.953,0.497,0.536,0
0.613,0.297,0.609,0
0.194,0.023,0.382,0
-0.013,-0.018,0.379,0
-0.122,-0.046,0.742,0
-0.158,-0.049,1.057,0
-0.208,0.175,1.362,0
-0.083,0.254,1.289,0
0.165,0.362,1.066,0
0.358,0.424,1.098,0
0.643,0.476,1.124,0
0.687,0.541,1.226,0
0.597,0.673,1.296,0
0.466,0.718,1.218,0
0.437,0.826,0.946,0
0.445,0.874,0.735,0
0.342,1.043,0.515,1
0.339,1.064,0.522,0
0.412,1.051,0.399,0
0.472,1.193,0.356,0
0.534,1.059,-0.02,0
0.701,0.82,-0.219,0
0.923,0.247,0.261,0
1.11,-0.153,1.294,0
1.101,-0.754,3.507,0
0.746,-1.123,4.625,0
-0.271,-1.742,5.435,0
-0.635,-1.835,4.671,0
-0.664,-1.758,1.985,0
-0.513,-1.419,0.221,0
-0.026,-0.883,-2.042,0
0.361,-0.63,-2.887,0
0.767,-0.114,-3.348,0
0.898,0.061,-3.131,0
0.943,0.058,-2.314,0
0.798,-0.11,-1.762,0
0.455,-0.464,-1.03,0
0.201,-0.646,-0.734,0
0.184,-0.705,-0.514,0
0.249,-0.629,-0.504,0
0.313,-0.531,-0.436,0
0.25,-0.462,-0.329,0
0.148,-0.447,-0.229,0
0.119,-0.446,-0.232,0
-0.189,-0.387,-0.401,0
-0.208,-0.297,-0.514,0
-0.227,-0.302,-0.513,0
-0.214,-0.131,-0.905,0
-0.178,0.004,-1.233,0
-0.055,0.074,-1.183,0
0.195,0.151,-0.899,0
0.255,0.208,-0.71,0
0.291,0.215,-0.504,0
0.381,0.211,-0.503,0
0.513,0.304,-0.568,0
0.598,0.359,-0.543,0
0.821,0.392,-0.563,0
0.799,0.419,-0.52,0
0.582,0.346,-0.38,0
0.421,0.222,-0.284,0
0.128,0.138,0.181,0
-0.08,0.103,0.496,0
-0.08,0.089,0.927,0
-0.017,0.14,1.099,0
0.155,0.233,1.128,0
0.212,0.253,1.044,0
0.109,0.316,0.936,0
0.031,0.268,0.806,0
-0.205,0.254,0.504,0
-0.449,0.32,0.398,0
-0.596,0.309,0.205,0
-0.504,0.227,0.191,0
-0.447,0.157,0.588,0
-0.476,0.236,1.029,0
-0.365,0.319,1.381,1
-0.332,0.45,1.236,0
-0.351,0.743,0.74,0
-0.128,0.789,0.315,0
0.89,0.787,-0.47,0
1.451,0.791,-0.442,0
1.773,0.3,1.297,0
1.785,-0.009,2.285,0
0.923,-0.457,3.985,0
0.156,-0.884,4.348,0
-0.658,-1.435,3.468,0
-0.688,-1.373,2.477,0
-0.402,-1.214,0.678,0
-0.229,-1.059,-0.285,0
0.174,-0.685,-1.293,0
0.521,-0.455,-1.683,0
0.986,-0.16,-2.083,0
1.053,-0.128,-1.998,0
0.922,-0.298,-1.403,0
0.746,-0.447,-0.944,0
0.591,-0.623,-0.418,0
0.644,-0.643,-0.31,0
0.782,-0.458,-0.245,0
0.889,-0.25,-0.322,0
1.195,0.149,-0.874,0
1.201,0.265,-1.296,0
0.925,0.366,-1.707,0
0.703,0.343,-1.75,0
0.466,0.343,-1.632,0
0.366,0.336,-1.506,0
0.291,0.284,-1.42,0
0.37,0.252,-1.417,0
0.385,0.284,-1.031,0
0.451,0.263,-0.607,0
0.456,0.256,-0.367,0
0.497,0.301,-0.208,0
0.491,0.298,-0.176,0
0.471,0.255,-0.419,0
0.359,0.237,-0.804,0
0.38,0.189,-0.949,0
0.468,0.182,-0.822,0
0.515,0.217,-0.579,0
0.368,0.273,0.054,0
0.226,0.219,0.231,0
-0.117,0.213,0.382,0
-0.219,0.164,0.525,0
-0.122,0.263,0.828,0
-0.024,0.436,1.042,0
0.247,0.595,1.449,0
0.459,0.624,1.867,0
0.55,0.757,2.597,0
0.46,0.836,2.9,0
0.357,0.809,2.225,0
0.476,0.736,1.322,0
0.417,0.592,0.288,0
0.257,0.62,0.147,0
0.109,0.936,0.026,1
0.093,1.014,-0.047,0
-0.056,0.891,-0.238,0
-0.216,0.84,-0.299,0
-0.037,0.67,-0.478,0
0.256,0.424,-0.405,0
0.684,-0.278,0.55,0
0.887,-0.596,1.4,0
0.673,-0.755,2.64,0
0.208,-0.901,2.813,0
-0.202,-0.974,1.905,0
-0.301,-0.905,1.016,0
-0.631,-0.915,-0.363,0
-0.738,-0.789,-1.074,0
-0.884,-0.663,-1.432,0
-0.838,-0.608,-1.435,0
-0.518,-0.466,-1.275,0
-0.229,-0.384,-1.013,0
0.351,-0.215,-0.49,0
0.599,-0.124,-0.301,0
0.556,-0.12,-0.304,0
0.813,-0.258,-0.484,0
0.612,-0.546,-0.99,0
0.434,-0.67,-1.245,0
0.214,-0.767,-1.462,0
0.159,-0.764,-1.378,0
0.113,-0.652,-1.154,0
0.045,-0.569,-1.036,0
0.01,-0.318,-1.181,0
0.034,-0.213,-1.363,0
0.064,-0.016,-1.513,0
0.098,0.085,-1.5,0
-0.082,0.039,-1.265,0
-0.255,-0.061,-0.888,0
-0.459,-0.199,-0.151,0
-0.57,-0.243,0.22,0
-0.626,-0.255,0.465,0
-0.627,-0.231,0.446,0
-0.414,-0.158,0.296,0
-0.152,-0.043,0.115,0
0.324,0.294,-0.239,0
0.415,0.451,-0.153,0
0.502,0.483,0.137,0
0.358,0.502,0.346,0
0.104,0.398,0.592,0
0.093,0.262,0.615,0
0,0.224,0.799,0
0.08,0.172,1.085,0
0.259,0.299,1.703,0
0.334,0.418,1.766,0
0.192,0.69,1.113,0
0.023,0.74,0.469,0
0.08,0.456,-0.399,0
0.242,0.287,-0.492,0
0.252,0.27,-0.485,1
-0.223,0.415,0.366,0
-0.623,0.264,0.694,0
-0.941,0.175,0.595,0
-1.167,0.281,-0.11,0
-0.719,0.132,-0.583,0
0.63,0.064,-0.68,0
1.02,0.032,0.161,0
1.119,-0.478,2.55,0
0.677,-0.763,3.793,0
-0.707,-1.314,5.187,0
-1.367,-1.657,5.001,0
-1.888,-1.844,3.605,0
-1.541,-1.562,2.345,0
-0.788,-0.739,0.662,0
-0.209,-0.357,-0.191,0
0.299,0.151,-1.189,0
0.54,0.345,-1.598,0
0.859,0.416,-2.089,0
0.824,0.283,-2.05,0
0.643,-0.125,-1.512,0
0.511,-0.272,-0.956,0
0.427,-0.552,-0.071,0
0.424,-0.601,0.177,0
0.485,-0.491,0.278,0
0.61,-0.375,0.117,0
0.712,-0.176,-0.605,0
0.697,-0.071,-1.239,0
0.533,0.136,-2.044,0
0.43,0.177,-2.334,0
0.286,0.287,-2.435,0
0.218,0.325,-2.332,0
0.206,0.34,-2.052,0
0.14,0.316,-1.777,0
0.209,0.313,-1.167,0
0.285,0.358,-0.728,0
0.426,0.422,-0.297,0
0.522,0.511,-0.269,0
0.723,0.658,-0.456,0
0.83,0.708,-0.635,0
0.878,0.719,-0.704,0
0.808,0.639,-0.551,0
0.502,0.57,0.001,0
0.298,0.433,0.32,0
-0.066,0.327,0.539,0
-0.336,0.319,0.74,0
-0.542,0.259,1.374,0
-0.509,0.273,1.745,0
-0.141,0.406,2.091,0
0.103,0.458,2.063,0
0.319,0.669,1.964,0
0.457,0.881,1.929,0
0.611,1.132,1.612,0
0.635,1.142,1.316,0
0.601,1.037,0.816,0
0.451,0.983,0.627,0
