accelX,accelY,accelZ,label
0.139,0.938,0.551,1
0.193,0.986,0.716,1
0.31,0.93,0.708,1
0.253,0.812,0.758,1
0.189,0.705,0.883,1
0.185,0.698,0.885,1
0.116,0.74,1.277,1
-0.077,0.883,1.163,1
-0.049,0.848,0.951,1
0.065,0.798,0.721,1
0.171,0.736,0.874,1
0.368,0.508,1.373,1
0.397,0.255,1.965,1
0.222,-0.108,2.757,1
0.142,-0.344,3.018,1
0.135,-0.633,3.265,1
0.103,-0.866,3.54,1
0.143,-1.224,4.098,1
0.285,-1.329,4.448,1
0.472,-1.475,4.666,1
0.7,-1.515,4.435,1
1.079,-1.396,3.627,0
1.506,-1.195,2.432,0
1.87,-0.945,0.491,0
2.006,-0.744,-0.984,0
2.173,-0.442,-2.698,0
2.208,-0.353,-3.476,0
1.951,-0.254,-3.956,0
2.015,-0.222,-4.049,0
1.974,-0.233,-3.64,0
1.801,-0.358,-3.109,0
1.677,-0.55,-2.252,0
1.552,-0.802,-1.418,0
1.407,-1.048,-0.704,0
1.331,-1.127,-0.384,0
1.158,-1.28,0.02,0
1.001,-1.427,0.301,0
0.866,-1.476,0.633,0
0.816,-1.382,0.836,0
0.754,-1.236,0.96,0
0.754,-1.085,0.811,0
0.827,-0.858,0.359,0
0.865,-0.695,-0.031,0
0.98,-0.494,-0.628,0
1.072,-0.34,-0.851,0
1.244,-0.043,-0.797,0
1.324,0.088,-0.68,0
1.223,0.179,-0.518,0
1.048,0.174,-0.464,0
0.737,0.096,-0.389,0
0.551,0.044,-0.384,0
0.516,0.038,-0.31,0
0.581,0.089,-0.157,0
0.729,0.234,-0.063,0
0.902,0.368,-0.082,0
1.186,0.552,-0.226,0
1.349,0.644,-0.297,0
1.346,0.632,-0.294,0
1.287,0.731,-0.324,0
1.149,0.672,-0.24,0
1.106,0.644,-0.057,0
1.112,0.713,0.089,0
1.071,0.705,0.076,0
0.964,0.604,0.06,0
0.909,0.625,-0.023,0
0.862,0.678,-0.317,0
0.94,0.701,-0.51,0
0.875,0.78,-0.457,0
0.883,0.809,-0.417,1
0.831,0.811,-0.127,1
0.658,0.78,0.129,1
0.436,0.656,0.34,1
0.413,0.514,0.424,1
0.408,0.491,0.431,1
0.656,0.547,0.709,1
0.797,0.524,0.828,1
0.87,0.443,0.873,1
0.895,0.318,0.909,1
0.875,0.236,0.984,1
0.798,0.336,0.976,1
0.564,0.587,0.894,1
0.565,0.552,0.906,1
0.025,0.683,-0.218,1
-0.004,0.883,-0.96,1
0.107,0.937,-1.407,1
0.385,0.663,-1.622,1
0.556,0.287,-1.169,1
0.847,-0.242,0.384,1
0.919,-0.576,2.067,1
0.585,-0.939,4.001,0
0.238,-1.08,4.855,0
0.03,-1.191,5.073,0
0.068,-1.194,4.413,0
0.249,-1.165,2.788,0
0.473,-1.078,1.457,0
0.577,-1.053,0.555,0
0.555,-1.15,0.197,0
0.34,-1.208,0.062,0
0.192,-1.183,-0.105,0
0.376,-1.232,-0.489,0
0.527,-1.15,-0.804,0
0.664,-1.025,-1.187,0
0.695,-0.999,-1.383,0
0.693,-0.982,-1.577,0
0.811,-0.967,-1.59,0
0.722,-1.038,-1.405,0
0.494,-1.114,-1.079,0
0.226,-1.286,-0.496,0
0.055,-1.403,-0.092,0
0.121,-1.396,0.162,0
0.248,-1.251,0.271,0
0.505,-1.057,0.264,0
0.64,-0.915,0.159,0
0.654,-0.746,-0.13,0
0.55,-0.693,-0.403,0
0.503,-0.643,-0.759,0
0.586,-0.558,-0.895,0
0.658,-0.512,-0.795,0
0.685,-0.465,-0.55,0
0.654,-0.405,-0.407,0
0.592,-0.384,-0.29,0
0.441,-0.431,-0.159,0
0.44,-0.401,-0.102,0
0.656,-0.203,-0.215,0
0.93,-0.025,-0.281,0
0.928,-0.015,-0.284,0
0.939,0.168,-0.532,0
0.727,0.122,-0.502,0
0.471,0.024,-0.309,0
0.329,0.008,-0.11,0
0.3,0.045,0.085,0
0.279,0.162,0.152,0
0.244,0.246,0.017,0
0.271,0.411,-0.285,0
0.241,0.479,-0.576,0
0.216,0.549,-0.964,0
0.19,0.543,-1.119,0
0.22,0.568,-1.147,0
0.211,0.593,-1.061,0
0.208,0.563,-0.702,0
0.281,0.572,-0.432,0
0.417,0.728,0.033,0
0.644,0.847,0.312,0
0.885,1.009,0.501,0
0.538,0.869,0.877,0
0.298,0.75,0.981,0
0.161,0.759,0.979,0
0.148,0.837,0.839,0
0.251,0.912,0.63,0
0.479,0.979,0.366,0
0.615,0.985,0.215,0
0.64,0.784,0.364,0
0.53,0.53,0.663,0
0.526,0.516,0.667,0
0.03,0.298,1.213,0
-0.255,0.318,1,0
-0.19,0.281,0.642,0
0.092,0.266,0.409,0
0.394,0.4,0.244,0
0.861,0.554,0.165,0
1.155,0.398,0.348,0
1.222,-0.056,1.107,0
0.944,-0.426,1.908,0
0.447,-0.847,2.955,0
0.15,-1.042,3.414,0
-0.125,-1.188,3.629,0
-0.121,-1.233,3.381,0
0.273,-1.125,2.507,0
0.706,-0.905,1.711,0
1.006,-0.558,0.598,0
0.973,-0.486,-0.021,0
0.776,-0.557,-0.603,0
0.65,-0.591,-0.969,0
0.599,-0.624,-1.156,0
0.596,-0.741,-0.928,0
0.66,-0.84,-0.362,0
0.71,-0.849,-0.066,0
0.838,-0.92,0.341,0
0.944,-0.942,0.532,0
0.737,-0.969,0.427,0
0.592,-1.019,0.267,0
0.627,-1.024,0.149,0
0.652,-0.956,0.076,0
0.669,-0.848,-0.09,0
0.622,-0.785,-0.247,0
0.564,-0.743,-0.409,0
0.591,-0.669,-0.53,0
0.704,-0.47,-0.764,0
0.75,-0.353,-0.921,0
0.782,-0.268,-0.991,0
0.776,-0.24,-1.079,0
0.781,-0.247,-1.077,0
1.14,0.099,-1.266,0
1.356,0.344,-1.419,0
1.316,0.371,-1.5,0
1.114,0.296,-1.537,0
0.863,0.224,-1.342,0
0.539,0.137,-0.846,0
0.483,0.129,-0.526,0
0.653,0.279,-0.216,0
0.868,0.441,-0.111,0
1.024,0.618,-0.277,0
1.041,0.67,-0.58,0
0.895,0.633,-1.043,0
0.746,0.577,-1.278,0
0.693,0.5,-1.363,0
0.675,0.431,-1.184,0
0.721,0.376,-0.706,0
0.801,0.39,-0.294,0
0.879,0.387,0.328,0
0.869,0.367,0.643,0
0.799,0.384,0.787,0
0.701,0.38,0.685,0
0.563,0.335,0.323,0
0.503,0.327,0.073,0
0.52,0.393,-0.168,0
0.568,0.441,-0.206,0
0.649,0.544,-0.15,0
0.766,0.643,-0.123,0
0.97,0.765,0,0
0.997,0.822,0.119,0
0.957,0.819,0.168,0
0.886,0.798,0.138,0
0.848,0.802,0.109,0
0.891,0.781,0.106,0
0.903,0.657,0.378,0
0.904,0.563,0.748,1
0.849,0.564,1.323,1
0.626,0.706,1.453,1
0.364,0.812,0.82,1
0.296,0.714,0.34,1
0.364,0.775,-0.293,1
0.503,0.916,-0.705,1
0.984,0.888,-0.979,1
1.067,0.726,-0.586,1
0.793,0.238,0.587,1
0.573,-0.15,1.659,1
0.24,-0.509,2.803,1
0.068,-0.773,3.297,1
0.139,-1.103,3.508,1
0.387,-1.201,3.14,1
0.712,-1.253,2.387,1
0.707,-1.322,2.231,1
0.592,-1.397,2.195,1
0.452,-1.344,1.983,1
0.229,-1.229,1.339,1
0.087,-1.152,0.555,1
-0.126,-0.985,-0.883,0
-0.148,-0.868,-1.65,0
0.135,-0.617,-2.606,0
0.336,-0.466,-2.875,0
0.489,-0.237,-2.754,0
0.502,-0.248,-2.158,0
0.473,-0.437,-1.175,0
0.328,-0.603,-0.524,0
0.233,-0.788,0.274,0
0.22,-0.888,0.714,0
0.128,-0.921,0.881,0
0.023,-0.965,0.826,0
0.014,-0.953,0.821,0
0.078,-0.724,0.248,0
0.283,-0.42,-0.104,0
0.348,-0.236,-0.249,0
0.428,-0.033,-0.36,0
0.517,0.076,-0.322,0
0.369,0.011,-0.05,0
0.262,-0.08,0.048,0
0.047,-0.219,0.289,0
-0.012,-0.285,0.418,0
-0.176,-0.346,0.212,0
-0.198,-0.351,-0.13,0
-0.002,-0.266,-0.711,0
0.186,-0.097,-1.021,0
0.196,-0.105,-1.018,0
0.352,0.13,-1.246,0
0.387,0.18,-0.999,0
0.326,0.16,-0.67,0
0.128,0.113,-0.321,0
-0.028,0.099,-0.326,0
-0.02,0.106,-0.328,0
-0.219,0.117,-0.791,0
-0.365,0.075,-1.023,0
-0.343,0.111,-1.082,0
-0.121,0.376,-1.151,0
0.026,0.563,-1.069,0
0.121,0.633,-0.806,0
0.224,0.665,-0.644,0
0.188,0.695,-0.264,0
0.049,0.648,-0.17,0
-0.101,0.543,-0.034,0
-0.194,0.467,-0.034,0
-0.152,0.498,-0.133,0
0.024,0.63,-0.136,0
0.37,0.755,-0.081,0
0.466,0.772,0.186,0
0.59,0.801,0.841,0
0.593,0.749,1.124,0
0.43,0.582,1.285,0
0.253,0.489,1.421,0
-0.087,0.461,1.282,0
-0.265,0.56,1.05,0
-0.189,0.554,0.499,0
0.062,0.516,0.268,0
0.445,0.498,0.473,0
0.676,0.478,0.799,1
1.002,0.376,1.357,1
1.001,0.13,1.74,1
0.681,-0.165,2.189,1
0.406,-0.302,2.285,1
0.277,-0.358,2.073,1
0.299,-0.374,1.853,1
0.426,-0.498,1.761,1
0.582,-0.629,2.027,1
0.739,-0.825,2.564,1
0.695,-1.015,2.738,1
0.473,-1.219,2.597,1
0.394,-1.245,2.018,1
0.449,-1.125,0.698,1
0.571,-0.948,-0.477,1
0.661,-0.591,-1.923,1
0.695,-0.413,-2.491,1
0.759,-0.166,-3.072,1
0.758,-0.104,-3.094,1
0.838,0.036,-2.77,1
1.017,0.087,-2.47,1
1.023,0.007,-1.87,0
0.87,-0.153,-1.294,0
0.735,-0.374,-0.675,0
0.768,-0.546,-0.192,0
0.944,-0.685,0.386,0
1.095,-0.707,0.877,0
1.165,-0.742,1.568,0
1.041,-0.764,1.954,0
0.845,-0.817,2.026,0
0.621,-0.827,1.678,0
0.462,-0.805,0.736,0
0.531,-0.679,-0.141,0
0.768,-0.317,-1.27,0
0.9,-0.155,-1.723,0
1.098,0.104,-2.125,0
1.241,0.308,-2.117,0
1.325,0.527,-1.973,0
1.103,0.543,-1.742,0
0.738,0.362,-1.212,0
0.567,0.314,-0.901,0
0.535,0.361,-0.511,0
0.601,0.333,-0.215,0
0.722,0.417,0.027,0
0.79,0.495,0.075,0
0.934,0.616,0.03,0
0.981,0.679,-0.014,0
0.849,0.675,-0.086,0
0.794,0.662,-0.112,0
0.762,0.634,-0.185,0
0.74,0.642,-0.292,0
0.729,0.649,-0.362,0
0.637,0.564,-0.142,0
0.601,0.573,0.274,0
0.665,0.693,0.379,0
0.876,0.879,0.228,0
1.001,0.983,0.197,0
0.983,1.039,0.093,0
0.878,1.004,-0.114,0
0.739,0.971,-0.26,0
0.633,0.938,-0.222,1
0.468,0.747,0.068,1
0.448,0.714,0.323,1
0.553,0.831,0.709,1
0.662,0.842,0.899,1
0.701,0.786,1.001,1
0.577,0.719,0.994,1
0.44,0.491,1.037,1
0.411,0.304,1.229,1
0.407,0.271,1.24,1
0.022,0.648,1.213,1
-0.133,0.76,0.285,1
-0.044,0.813,-0.385,1
0.038,1.048,-1.112,1
-0.049,0.993,-1.359,1
0.47,1.012,-1.37,1
0.534,0.686,-0.666,1
0.404,0.303,0.503,1
0.234,-0.018,1.488,1
0.176,-0.466,2.505,1
0.023,-0.686,2.958,1
-0.123,-1.02,3.389,0
-0.034,-1.214,3.54,0
0.131,-1.305,3.433,0
0.225,-1.299,2.924,0
0.3,-1.266,1.881,0
0.287,-1.255,0.98,0
0.294,-1.081,-0.391,0
0.301,-0.955,-1.05,0
0.436,-0.854,-1.768,0
0.544,-0.77,-1.954,0
0.853,-0.623,-1.788,0
0.921,-0.562,-1.338,0
0.751,-0.69,-0.777,0
0.53,-0.888,-0.341,0
0.344,-1.102,-0.035,0
0.227,-1.116,0.011,0
0.173,-1.14,-0.09,0
0.151,-1.145,-0.302,0
0.159,-1.075,-0.561,0
0.188,-0.946,-0.668,0
0.266,-0.777,-0.765,0
0.32,-0.68,-0.799,0
0.334,-0.529,-0.927,0
0.487,-0.413,-0.982,0
0.484,-0.403,-0.986,0
0.465,-0.306,-0.86,0
0.461,-0.271,-0.791,0
0.434,-0.281,-0.652,0
0.342,-0.254,-0.518,0
0.277,-0.167,-0.476,0
0.128,-0.259,-0.402,0
0.068,-0.326,-0.539,0
0.183,-0.21,-0.688,0
0.438,-0.034,-0.722,0
0.774,0.206,-0.667,0
0.848,0.352,-0.564,0
0.71,0.38,-0.536,0
0.579,0.374,-0.595,0
0.383,0.4,-0.631,0
0.291,0.443,-0.534,0
0.259,0.519,-0.414,0
0.246,0.575,-0.355,0
0.28,0.683,-0.474,0
0.309,0.773,-0.53,0
0.45,0.843,-0.51,0
0.488,0.932,-0.338,0
0.439,0.935,-0.038,0
0.323,0.855,0.173,0
0.197,0.753,0.398,0
0.189,0.75,0.399,0
0.226,0.682,0.611,0
0.306,0.729,0.645,1
0.342,0.695,0.815,1
0.339,0.686,0.818,1
0.286,0.498,1.541,1
0.298,0.497,1.626,1
0.269,0.445,1.503,1
0.285,0.317,1.211,1
0.22,0.298,0.762,1
0.025,0.372,0.494,1
-0.136,0.371,0.121,1
0.069,0.397,-0.122,1
0.487,0.554,-0.307,1
0.686,0.629,-0.153,1
0.991,0.676,0.142,1
1.137,0.545,0.444,1
0.937,0.325,1.057,1
0.578,0.151,1.63,1
0.336,-0.174,2.136,1
0.256,-0.401,2.473,1
0.255,-0.699,3.125,1
0.434,-0.827,3.692,1
0.563,-0.89,4.186,0
0.729,-0.826,3.953,0
0.818,-0.813,2.642,0
0.659,-0.971,1.348,0
0.463,-1.083,-0.243,0
0.439,-0.958,-1.118,0
0.443,-0.908,-1.632,0
0.428,-0.923,-1.678,0
0.363,-0.925,-1.402,0
0.395,-0.942,-1.172,0
0.556,-0.917,-0.85,0
0.686,-0.828,-0.664,0
0.825,-0.765,-0.599,0
0.875,-0.744,-0.708,0
0.882,-0.734,-0.845,0
0.773,-0.808,-0.854,0
0.551,-0.899,-0.553,0
0.414,-0.951,-0.276,0
0.396,-0.908,-0.085,0
0.423,-0.766,-0.111,0
0.496,-0.627,-0.206,0
0.53,-0.512,-0.506,0
0.547,-0.51,-0.506,0
0.649,-0.23,-1.378,0
0.787,-0.078,-1.596,0
0.777,-0.041,-1.59,0
0.672,0.005,-1.412,0
0.667,0.034,-1.294,0
0.543,0.009,-1.092,0
0.413,-0.055,-0.934,0
0.35,-0.034,-0.744,0
0.329,0.015,-0.628,0
0.297,0.071,-0.69,0
0.304,0.158,-0.615,0
0.376,0.281,-0.59,0
0.45,0.39,-0.696,0
0.556,0.503,-0.924,0
0.746,0.627,-0.844,0
0.929,0.732,-0.724,0
0.88,0.747,-0.656,0
0.586,0.573,-0.256,0
0.35,0.427,0.036,0
0.1,0.327,0.291,0
0.04,0.334,0.354,0
0.105,0.484,0.319,0
0.187,0.576,0.163,0
0.378,0.714,-0.124,0
0.546,0.83,-0.383,0
0.739,0.906,-0.307,0
0.719,0.895,0.025,1
0.503,0.796,0.473,1
0.396,0.686,0.718,1
0.398,0.553,0.696,1
0.406,0.567,0.621,1
0.413,0.582,0.516,1
0.471,0.531,0.479,1
0.491,0.489,0.634,1
0.436,0.463,0.896,1
0.469,0.451,1.124,1
0.405,0.577,1.195,1
0.139,0.809,0.94,1
0.093,0.873,0.531,1
0.282,1.018,-0.295,1
0.406,1.185,-0.892,1
0.494,1.189,-1.503,1
0.479,0.985,-1.553,1
0.387,0.705,-0.909,1
0.314,0.561,-0.115,1
0.359,0.302,0.977,1
0.417,0.044,1.744,1
0.501,-0.277,2.764,0
0.51,-0.433,3.412,0
0.471,-0.77,4.317,0
0.309,-0.968,4.482,0
0.141,-1.221,3.908,0
0.049,-1.204,2.878,0
-0.029,-1.136,1.389,0
-0.125,-1.016,0.198,0
-0.134,-0.84,-1.191,0
-0.006,-0.788,-1.779,0
0.08,-0.665,-2.436,0
0.145,-0.623,-2.504,0
0.264,-0.618,-2.053,0
0.316,-0.643,-1.481,0
0.207,-0.858,-0.725,0
0.198,-0.983,-0.278,0
0.265,-1.048,0.303,0
0.296,-1.013,0.559,0
0.325,-1.013,0.613,0
0.308,-1.024,0.478,0
0.299,-1.015,0.475,0
0.049,-0.951,-0.3,0
0.06,-0.812,-0.649,0
0.038,-0.738,-0.717,0
-0.035,-0.632,-0.68,0
-0.034,-0.507,-0.582,0
0.241,-0.288,-0.421,0
0.437,-0.144,-0.394,0
0.598,0.02,-0.425,0
0.606,0.07,-0.534,0
0.578,0.075,-0.72,0
0.531,0.071,-0.878,0
0.485,0.107,-1.051,0
0.491,0.116,-1.118,0
0.403,0.087,-1.207,0
0.291,0.059,-1.261,0
0.175,-0.005,-1.294,0
0.198,-0.001,-1.234,0
0.247,0.078,-0.689,0
0.226,0.14,-0.272,0
0.137,0.234,0.164,0
-0.02,0.27,0.422,0
-0.281,0.29,0.427,0
-0.352,0.33,0.204,0
-0.355,0.33,0.204,0
-0.078,0.588,-0.553,0
0.068,0.71,-0.577,0
0.063,0.754,-0.564,0
-0.129,0.7,-0.407,0
-0.299,0.657,-0.093,0
-0.354,0.639,0.353,0
-0.352,0.679,0.585,0
-0.228,0.782,0.797,0
-0.134,0.804,0.875,0
-0.052,0.844,0.799,0
0.047,0.84,0.668,1
0.26,0.843,0.696,1
0.438,0.833,0.879,1
0.646,0.77,1.076,1
0.576,0.734,1.15,1
0.31,0.791,1.053,1
0.171,0.866,0.723,1
0.258,0.755,0.145,1
0.383,0.717,-0.255,1
0.622,0.798,-0.292,1
0.837,0.758,0.041,1
1.039,0.547,0.575,1
0.867,0.314,1.041,1
0.86,0.334,1.034,1
0.232,-0.166,1.97,1
0.288,-0.201,2.15,1
0.454,-0.301,2.307,1
0.692,-0.578,2.872,1
0.793,-0.658,3.224,1
0.708,-0.889,3.794,1
0.638,-0.965,3.671,1
0.599,-0.928,2.62,0
0.659,-0.936,1.32,0
0.726,-0.835,-0.594,0
0.627,-0.684,-1.618,0
0.625,-0.6,-2.189,0
0.759,-0.53,-2.301,0
0.833,-0.351,-2.023,0
0.867,-0.348,-1.678,0
0.836,-0.445,-1.334,0
0.717,-0.568,-1.102,0
0.513,-0.795,-0.729,0
0.371,-0.933,-0.357,0
0.392,-1.006,0.186,0
0.451,-0.973,0.456,0
0.635,-0.852,0.487,0
0.8,-0.704,0.393,0
0.847,-0.531,0.046,0
0.857,-0.534,0.048,0
0.681,-0.354,-0.766,0
0.646,-0.266,-1.103,0
0.665,-0.271,-1.101,0
0.58,-0.069,-1.584,0
0.534,0.011,-1.432,0
0.511,0.04,-1.169,0
0.499,0.085,-0.842,0
0.569,0.19,-0.755,0
0.753,0.352,-0.787,0
0.859,0.409,-0.878,0
0.823,0.47,-0.992,0
0.794,0.466,-0.953,0
0.717,0.501,-0.784,0
0.612,0.49,-0.639,0
0.489,0.471,-0.537,0
0.447,0.473,-0.443,0
0.466,0.531,-0.343,0
0.458,0.572,-0.403,0
0.428,0.603,-0.345,0
0.361,0.614,-0.217,0
0.279,0.654,-0.142,0
0.262,0.701,-0.166,0
0.323,0.752,-0.28,0
0.394,0.825,-0.25,0
0.457,0.931,-0.088,0
0.403,0.893,-0.106,0
0.213,0.739,-0.03,0
0.164,0.682,-0.032,0
0.235,0.684,-0.072,0
0.222,0.71,-0.075,0
0.245,0.662,-0.108,0
0.236,0.643,-0.132,1
0.228,0.658,-0.046,1
0.246,0.642,0.069,1
0.199,0.633,0.172,1
0.155,0.578,0.163,1
0.288,0.565,0.092,1
0.465,0.612,0.151,1
0.568,0.558,0.445,1
0.566,0.534,0.748,1
0.193,0.746,0.812,1
-0.041,0.858,0.469,1
-0.192,0.825,-0.326,1
-0.13,0.895,-0.807,1
0.226,1.23,-1.228,1
0.509,1.323,-1.396,1
0.937,1.13,-1.043,1
1.004,0.922,-0.054,1
0.876,0.577,1.567,1
0.702,0.19,2.742,1
0.24,-0.371,4.132,1
0.002,-0.718,4.787,1
-0.098,-1.098,4.869,0
-0.013,-1.228,4.302,0
0.124,-1.289,3.041,0
0.291,-1.274,2.105,0
0.367,-1.18,1.066,0
0.244,-1.101,0.374,0
0.086,-0.96,-0.285,0
0.125,-0.869,-0.556,0
0.269,-0.715,-1.116,0
0.363,-0.627,-1.459,0
0.449,-0.617,-1.758,0
0.491,-0.666,-1.8,0
0.479,-0.679,-1.797,0
0.405,-0.805,-1.564,0
0.219,-1.181,-0.534,0
0.179,-1.218,0.031,0
0.248,-1.166,0.38,0
0.307,-1.057,0.236,0
0.404,-0.971,-0.297,0
0.421,-0.857,-0.787,0
0.459,-0.682,-1.198,0
0.533,-0.574,-1.297,0
0.436,-0.495,-1.143,0
0.326,-0.476,-0.935,0
0.142,-0.553,-0.536,0
0.056,-0.572,-0.341,0
0.013,-0.491,-0.346,0
0.137,-0.404,-0.305,0
0.304,-0.219,-0.378,0
0.442,-0.066,-0.556,0
0.438,-0.059,-0.558,0
0.723,0.238,-0.898,0
0.653,0.257,-0.756,0
0.553,0.273,-0.585,0
0.548,0.289,-0.591,0
0.292,0.177,0.23,0
0.373,0.302,0.337,0
0.527,0.446,0.184,0
0.652,0.589,-0.048,0
0.658,0.698,-0.336,0
0.528,0.776,-0.784,0
0.549,0.841,-1.042,0
0.496,0.914,-1.204,0
0.419,0.918,-1.164,0
0.532,0.877,-0.993,0
0.583,0.957,-0.789,0
0.57,0.934,-0.469,0
0.508,0.843,-0.252,0
0.321,0.741,-0.002,0
0.22,0.677,0.257,0
0.206,0.607,0.549,0
0.131,0.64,0.741,1
0.134,0.646,0.739,1
0.218,0.638,0.844,1
0.357,0.711,0.836,1
0.519,0.766,0.789,1
0.688,0.782,0.695,1
0.664,0.663,0.731,1
0.556,0.62,0.82,1
0.361,0.729,0.785,1
0.129,0.787,0.425,1
0.155,0.671,0.172,1
0.44,0.715,-0.035,1
0.769,0.927,0.141,1
1.208,0.915,0.477,1
1.332,0.73,0.841,1
1.171,0.315,1.583,1
0.796,0.017,2.287,1
0.237,-0.388,2.979,1
-0.14,-0.673,3.106,1
-0.364,-1.02,3.16,1
-0.185,-1.069,3.102,1
0.117,-0.94,2.765,0
0.295,-0.874,2.176,0
0.263,-0.987,1.168,0
0.118,-1.1,0.338,0
-0.152,-1.255,-0.362,0
-0.223,-1.302,-0.603,0
-0.006,-1.28,-0.753,0
0.241,-1.177,-0.816,0
0.667,-0.925,-0.946,0
0.784,-0.919,-0.944,0
0.73,-0.993,-0.805,0
0.553,-1.054,-0.642,0
0.417,-1.123,-0.413,0
0.432,-1.089,-0.308,0
0.482,-0.962,-0.261,0
0.536,-0.859,-0.292,0
0.613,-0.773,-0.417,0
0.673,-0.607,-0.522,0
0.717,-0.425,-0.682,0
0.719,-0.344,-0.879,0
0.669,-0.226,-1.191,0
0.62,-0.12,-1.385,0
0.634,-0.115,-1.386,0
0.543,-0.009,-1.407,0
0.502,0.047,-1.138,0
0.486,0.092,-0.972,0
0.533,0.141,-0.782,0
0.561,0.24,-0.723,0
0.634,0.299,-0.627,0
0.634,0.35,-0.572,0
0.625,0.419,-0.569,0
0.605,0.471,-0.539,0
0.513,0.478,-0.44,0
0.417,0.466,-0.413,0
0.33,0.468,-0.486,0
0.353,0.488,-0.549,0
0.408,0.55,-0.596,0
0.524,0.641,-0.582,0
0.67,0.754,-0.482,0
0.768,0.79,-0.44,0
0.829,0.833,-0.228,0
0.771,0.804,-0.063,0
0.667,0.772,0.022,0
0.644,0.759,0.046,0
0.647,0.779,0.162,0
0.706,0.856,0.189,0
0.794,0.962,0.023,0
0.813,0.989,-0.114,0
0.776,0.951,-0.219,0
0.779,1,-0.223,1
0.586,0.944,-0.067,1
0.471,0.849,0.126,1
0.453,0.77,0.177,1
0.42,0.779,0.237,1
0.475,0.75,0.238,1
0.525,0.69,0.154,1
0.55,0.611,0.142,1
0.606,0.544,0.26,1
0.674,0.526,0.404,1
0.604,0.475,0.551,1
0.316,0.657,0.54,1
0.039,0.759,0.289,1
-0.232,0.824,-0.501,1
-0.177,0.899,-0.979,1
-0.089,1.158,-1.535,1
-0.033,1.173,-1.796,1
0.185,0.759,-1.547,1
0.312,0.519,-0.805,1
0.349,0.384,0.845,1
0.294,0.236,2.073,1
0.252,0.286,2.055,0
0.182,-0.019,3.085,0
0.134,-0.302,3.121,0
0.172,-0.413,3.107,0
0.261,-0.491,3.154,0
0.256,-0.579,3.223,0
-0.035,-0.745,3.02,0
-0.284,-0.845,2.41,0
-0.529,-0.926,1.259,0
-0.478,-0.925,0.502,0
-0.347,-0.748,-0.635,0
-0.111,-0.649,-1.15,0
0.056,-0.639,-1.599,0
0.032,-0.652,-1.817,0
0.022,-0.722,-1.802,0
0.02,-0.847,-1.528,0
0.053,-0.963,-1.071,0
0.085,-1.007,-0.732,0
0.072,-0.984,-0.74,0
-0.149,-1.27,-0.064,0
-0.199,-1.354,0.522,0
-0.119,-1.247,0.783,0
0.004,-1.026,0.657,0
0.12,-0.855,0.137,0
0.195,-0.689,-0.642,0
0.187,-0.701,-0.638,0
0.196,-0.381,-1.36,0
0.276,-0.259,-1.408,0
0.354,-0.13,-1.328,0
0.403,-0.074,-1.198,0
0.4,-0.059,-1.203,0
0.672,0.069,-0.735,0
0.593,0.1,-0.422,0
0.506,0.073,-0.181,0
0.372,-0.003,0.127,0
0.198,-0.011,0.138,0
0.095,0.074,-0.203,0
0.055,0.124,-0.532,0
-0.028,0.134,-0.861,0
-0.073,0.241,-1.031,0
-0.06,0.388,-1.127,0
0.079,0.514,-1.152,0
0.219,0.714,-0.946,0
0.244,0.813,-0.781,0
0.107,0.831,-0.688,0
-0.058,0.804,-0.681,0
-0.259,0.75,-0.561,0
-0.173,0.815,-0.482,0
0.066,0.972,-0.474,0
0.157,1.054,-0.263,0
0.194,1.068,0.341,0
0.153,1.052,0.58,0
-0.007,1.059,0.739,0
-0.114,0.998,0.793,0
-0.133,0.967,0.738,0
0.024,1.02,0.645,1
0.192,1.032,0.557,1
0.255,1.02,0.588,1
0.381,0.871,0.689,1
0.39,0.776,1.025,1
0.296,0.659,1.355,1
0.351,0.577,1.372,1
0.336,0.62,1.136,1
0.145,0.792,0.881,1
0.152,0.748,0.895,1
-0.465,0.94,-0.599,1
-0.35,1.017,-1.609,1
-0.061,1.098,-1.989,1
0.21,0.751,-1.401,1
0.992,0.599,-0.929,1
1.395,0.689,0.427,1
1.128,0.394,1.637,1
0.609,-0.258,2.873,1
0.172,-0.502,3.408,1
-0.273,-0.901,3.918,1
-0.372,-1.09,4.142,1
-0.11,-1.09,3.955,0
0.155,-1.122,3.386,0
0.106,-1.349,2.582,0
0.124,-1.348,2.581,0
-0.207,-1.719,2.083,0
-0.166,-1.689,1.94,0
-0.06,-1.562,1.571,0
0.169,-1.463,1.148,0
0.331,-1.265,0.486,0
0.381,-1.103,-0.16,0
0.428,-0.916,-1.064,0
0.511,-0.812,-1.67,0
0.639,-0.564,-2.341,0
0.754,-0.381,-2.639,0
0.841,-0.214,-2.725,0
0.817,-0.201,-2.568,0
0.671,-0.214,-2.235,0
0.407,-0.332,-1.977,0
0.414,-0.325,-1.979,0
0.129,-0.429,-1.3,0
0.023,-0.344,-1.247,0
-0.033,-0.287,-1.266,0
-0.017,-0.182,-1.406,0
-0.037,-0.113,-1.517,0
-0.114,-0.05,-1.568,0
-0.117,-0.047,-1.569,0
-0.155,-0.098,-1.244,0
-0.03,-0.011,-0.995,0
0.127,0.141,-0.608,0
0.144,0.213,-0.308,0
0.17,0.299,-0.101,0
0.115,0.363,-0.088,0
0.055,0.493,-0.208,0
0.147,0.63,-0.396,0
0.352,0.822,-0.598,0
0.42,0.94,-0.598,0
0.351,0.956,-0.507,0
0.225,0.901,-0.424,0
0.171,0.805,-0.349,0
0.159,0.804,-0.349,0
0.279,0.869,-0.16,0
0.332,0.837,-0.013,0
0.354,0.876,0.138,0
0.306,0.919,0.186,0
0.347,0.962,0.258,0
0.393,1.014,0.313,0
0.335,1.034,0.089,0
0.249,1.022,-0.095,0
0.195,0.948,-0.168,0
0.157,0.926,-0.096,1
0.123,0.929,-0.007,1
0.138,0.877,0.046,1
0.158,0.819,0.172,1
0.142,0.673,0.265,1
0.297,0.62,0.374,1
0.46,0.562,0.514,1
0.599,0.514,0.612,1
0.652,0.368,0.667,1
0.594,0.354,0.656,1
0.348,0.558,0.696,1
0.35,0.523,0.708,1
-0.589,0.941,-0.275,1
-0.843,0.865,-0.949,1
-0.715,1.086,-1.561,1
-0.357,1.198,-2.085,1
-0.174,0.968,-1.82,1
0.097,0.55,-0.6,1
-0.026,0.296,0.865,1
-0.402,-0.146,2.499,1
-0.66,-0.428,3.12,1
-0.937,-0.714,3.7,0
-0.896,-0.882,4.001,0
-0.487,-0.969,4.251,0
-0.115,-0.923,4.074,0
0.257,-0.913,3.183,0
0.322,-1.017,2.2,0
0.203,-1.204,1.075,0
0.05,-1.303,0.545,0
0.104,-1.322,-0.027,0
0.222,-1.264,-0.34,0
0.321,-1.111,-0.577,0
0.299,-1.027,-0.765,0
0.255,-0.999,-1.089,0
0.288,-0.964,-1.332,0
0.328,-0.932,-1.53,0
0.249,-0.936,-1.417,0
0.098,-1.058,-0.946,0
-0.038,-1.089,-0.63,0
-0.183,-1.146,-0.401,0
-0.231,-1.11,-0.401,0
-0.176,-1.013,-0.464,0
-0.141,-0.908,-0.647,0
-0.115,-0.82,-0.987,0
-0.122,-0.765,-1.149,0
-0.09,-0.668,-1.1,0
-0.042,-0.598,-0.882,0
-0.078,-0.52,-0.462,0
-0.099,-0.439,-0.223,0
-0.171,-0.382,-0.147,0
-0.17,-0.315,-0.181,0
-0.028,-0.159,-0.398,0
0.041,-0.034,-0.598,0
0.151,0.116,-0.809,0
0.221,0.211,-0.887,0
0.275,0.375,-0.762,0
0.273,0.46,-0.679,0
0.256,0.561,-0.755,0
0.11,0.583,-0.626,0
-0.119,0.575,-0.426,0
-0.173,0.733,-0.38,0
-0.155,0.847,-0.462,0
-0.222,0.868,-0.568,0
-0.403,0.851,-0.523,0
-0.51,0.81,-0.436,0
-0.5,0.856,-0.267,0
-0.493,0.956,-0.098,0
-0.565,0.935,-0.031,0
-0.585,0.894,-0.068,0
-0.581,0.91,-0.009,0
-0.52,0.922,0.114,0
-0.475,0.927,0.484,0
-0.386,0.905,0.787,0
-0.22,0.762,0.946,0
-0.132,0.651,0.987,1
0.224,0.609,1.056,1
0.339,0.562,1.112,1
0.191,0.467,1.231,1
0.013,0.313,1.354,1
-0.289,0.309,1.336,1
-0.631,0.541,1.189,1
-0.625,0.508,1.2,1
-0.644,0.75,0.039,1
-0.41,0.981,-0.488,1
-0.015,1.064,-0.65,1
0.754,1,-0.461,1
1.147,0.806,0.135,1
0.942,0.142,1.752,1
0.435,-0.326,3.029,1
-0.311,-0.823,4.427,1
-0.595,-0.95,4.946,1
-0.344,-0.894,4.87,1
0.133,-0.687,4.141,1
0.479,-0.485,2.722,1
0.476,-0.495,1.637,1
0.116,-0.651,0.559,0
-0.216,-0.92,-0.109,0
-0.506,-1.181,-0.536,0
-0.457,-1.267,-0.493,0
-0.274,-1.27,-0.152,0
0.006,-1.171,0.107,0
0.301,-0.996,0.29,0
0.347,-0.985,0.187,0
0.26,-0.948,-0.229,0
0.165,-0.911,-0.745,0
0.172,-0.843,-1.308,0
0.208,-0.805,-1.481,0
0.212,-0.689,-1.519,0
0.268,-0.687,-1.433,0
0.275,-0.582,-1.197,0
0.264,-0.531,-1.127,0
0.285,-0.478,-1.161,0
0.147,-0.459,-1.075,0
-0.066,-0.417,-0.94,0
-0.186,-0.389,-1.093,0
-0.17,-0.391,-1.092,0
-0.384,-0.361,-1.583,0
-0.359,-0.267,-1.927,0
-0.266,-0.212,-2.025,0
-0.119,-0.103,-1.839,0
0.03,-0.016,-1.492,0
0.183,0.089,-0.835,0
0.173,0.141,-0.42,0
0.065,0.163,-0.146,0
-0.026,0.158,-0.171,0
-0.168,0.182,-0.336,0
-0.27,0.219,-0.588,0
-0.39,0.262,-0.913,0
-0.357,0.277,-0.955,0
-0.132,0.394,-0.736,0
0.08,0.507,-0.461,0
0.332,0.664,-0.071,0
0.369,0.711,0.145,0
0.359,0.719,0.164,0
0.345,0.722,0.096,0
0.217,0.729,-0.104,0
0.128,0.652,-0.266,0
0.023,0.609,-0.431,0
0.007,0.617,-0.458,0
0.103,0.654,-0.409,0
0.134,0.712,-0.345,0
0.259,0.815,-0.145,0
0.319,0.864,-0.16,1
0.311,0.939,-0.311,1
0.272,0.947,-0.385,1
0.134,0.849,-0.444,1
0.135,0.843,-0.442,1
-0.091,0.533,0.045,1
0.104,0.435,0.375,1
0.102,0.436,0.375,1
0.232,0.33,1.297,1
0.112,0.435,1.528,1
-0.153,0.655,1.27,1
-0.152,0.636,1.277,1
-0.51,0.998,-0.221,1
-0.368,1.089,-0.708,1
-0.245,1.128,-0.54,1
0.073,0.951,0.285,1
0.043,0.96,0.282,1
0.082,0.213,2.785,1
-0.179,-0.023,3.458,1
-0.575,-0.309,3.878,1
-0.814,-0.454,3.84,1
-0.944,-0.809,3.508,0
-0.768,-0.879,3.21,0
-0.36,-0.865,2.796,0
-0.046,-0.862,2.32,0
0.077,-0.946,1.649,0
0.028,-1.062,1.118,0
-0.11,-1.168,0.504,0
-0.171,-1.15,0.105,0
-0.039,-1.085,-0.397,0
0.088,-1,-0.599,0
0.228,-0.833,-0.846,0
0.287,-0.779,-1.031,0
0.136,-0.75,-1.203,0
-0.022,-0.797,-1.354,0
-0.26,-0.904,-1.324,0
-0.442,-1.061,-1.264,0
-0.78,-1.262,-1.079,0
-0.816,-1.305,-0.789,0
-0.635,-1.267,-0.338,0
-0.444,-1.171,-0.065,0
-0.218,-1.017,-0.006,0
-0.103,-0.935,-0.096,0
-0.054,-0.828,-0.256,0
-0.115,-0.774,-0.501,0
-0.304,-0.751,-0.885,0
-0.481,-0.772,-1.019,0
-0.539,-0.766,-1.036,0
-0.536,-0.713,-0.973,0
-0.379,-0.64,-0.865,0
-0.27,-0.603,-0.685,0
-0.229,-0.592,-0.434,0
-0.213,-0.545,-0.33,0
-0.253,-0.542,-0.277,0
-0.259,-0.535,-0.28,0
-0.287,-0.453,-0.528,0
-0.24,-0.363,-0.644,0
-0.142,-0.166,-0.89,0
-0.113,-0.045,-1.029,0
-0.002,0.111,-1.186,0
0.036,0.227,-1.253,0
0.032,0.414,-1.071,0
0.005,0.505,-0.788,0
-0.107,0.578,-0.369,0
-0.243,0.607,-0.208,0
-0.386,0.602,-0.128,0
-0.405,0.627,-0.184,0
-0.338,0.748,-0.19,0
-0.231,0.771,-0.116,0
-0.109,0.818,0.176,0
-0.111,0.857,0.491,0
-0.094,0.713,0.844,0
-0.113,0.627,1.047,0
-0.063,0.548,1.183,0
0.015,0.487,1.243,1
0.223,0.486,1.287,1
0.462,0.546,1.319,1
0.456,0.533,1.323,1
0.117,1.128,0.816,1
-0.122,1.223,0.048,1
0.072,1.239,-0.525,1
0.261,1.44,-1.1,1
0.63,1.446,-1.289,1
1.094,1.12,-0.312,1
1.041,0.652,1.076,1
0.497,-0.177,3.088,1
-0.183,-0.646,4.415,1
-0.86,-1.119,5.887,1
-1.081,-1.364,6.333,1
-0.98,-1.357,5.618,1
-0.659,-1.127,4.381,1
-0.015,-0.811,1.84,1
0.259,-0.677,0.042,1
0.249,-0.798,-1.564,1
0.088,-0.987,-1.914,1
0.023,-1.232,-1.479,0
0.196,-1.282,-0.656,0
0.587,-1.221,0.477,0
0.907,-1.149,0.979,0
1.116,-1.03,1.076,0
1.159,-0.992,0.931,0
0.875,-1.101,0.155,0
0.561,-1.166,-0.482,0
0.413,-1.172,-0.987,0
0.435,-1.097,-1.172,0
0.42,-0.96,-1.425,0
0.392,-0.853,-1.503,0
0.435,-0.683,-1.551,0
0.544,-0.531,-1.552,0
0.673,-0.258,-1.489,0
0.69,-0.153,-1.476,0
0.617,-0.101,-1.489,0
0.469,-0.128,-1.458,0
0.246,-0.159,-1.403,0
0.17,-0.191,-1.301,0
0.134,-0.182,-1.135,0
0.177,-0.155,-1.009,0
0.179,-0.146,-1.012,0
0.363,-0.068,-0.316,0
0.292,-0.048,-0.038,0
0.236,-0.054,-0.119,0
0.182,-0.018,-0.403,0
0.184,-0.019,-0.403,0
-0.044,0.063,-0.649,0
-0.079,0.129,-0.646,0
-0.056,0.195,-0.601,0
0.018,0.278,-0.561,0
0.329,0.476,-0.47,0
0.471,0.547,-0.263,0
0.634,0.642,-0.021,0
0.718,0.669,0.046,0
0.657,0.672,0.282,0
0.557,0.652,0.408,0
0.408,0.554,0.348,0
0.31,0.481,0.228,0
0.205,0.405,0.107,0
0.131,0.393,0.056,0
0.25,0.502,0.019,0
0.382,0.586,0.03,1
0.401,0.681,0.064,1
0.465,0.678,-0.053,1
0.419,0.609,-0.052,1
0.427,0.526,0.071,1
0.436,0.346,0.27,1
0.453,0.225,0.343,1
0.512,0.099,0.586,1
0.518,0.121,0.73,1
0.26,0.441,0.822,1
0.032,0.684,0.421,1
-0.181,0.753,-0.403,1
-0.078,0.737,-0.894,1
0.351,0.93,-1.01,1
0.646,0.935,-0.588,1
0.621,0.936,-0.589,1
0.867,0.196,1.442,1
0.637,-0.403,2.912,1
0.226,-0.695,3.776,1
-0.317,-0.94,4.609,1
-0.39,-0.964,4.777,1
-0.128,-0.81,3.953,0
0.073,-0.708,3.074,0
0.462,-0.6,1.46,0
0.434,-0.666,0.828,0
0.09,-1.046,0.424,0
-0.112,-1.294,0.468,0
-0.193,-1.391,0.485,0
-0.136,-1.413,0.291,0
-0.138,-1.434,-0.097,0
-0.117,-1.378,-0.439,0
-0.108,-1.389,-0.434,0
0.023,-1.224,-1.135,0
0.009,-1.177,-1.207,0
0.023,-1.147,-1.127,0
-0.016,-1.177,-0.795,0
-0.126,-1.221,-0.607,0
-0.167,-1.207,-0.425,0
-0.144,-1.169,-0.388,0
-0.083,-1.08,-0.409,0
-0.076,-1.043,-0.431,0
-0.024,-0.912,-0.359,0
0,-0.876,-0.334,0
0.079,-0.767,-0.281,0
0.105,-0.719,-0.188,0
0.091,-0.716,-0.19,0
-0.115,-0.63,-0.298,0
-0.123,-0.629,-0.298,0
-0.209,-0.592,-0.298,0
-0.171,-0.413,-0.484,0
-0.019,-0.345,-0.74,0
-0.027,-0.354,-0.737,0
0.193,-0.22,-1.133,0
0.236,-0.173,-0.874,0
0.307,-0.145,-0.602,0
0.416,-0.09,-0.208,0
0.345,-0.079,0.011,0
0.071,-0.218,0.095,0
-0.092,-0.22,0.214,0
-0.092,-0.22,0.214,0
0.045,0.021,0.287,0
0.047,0.013,0.29,0
0.418,0.506,-0.385,0
0.432,0.568,-0.785,0
0.333,0.589,-0.865,0
0.208,0.542,-0.66,0
0.065,0.433,-0.303,0
-0.131,0.293,0.071,0
-0.209,0.198,0.307,0
-0.169,0.215,0.504,0
-0.087,0.294,0.433,0
0.094,0.398,0.152,0
0.248,0.437,-0.002,0
0.258,0.425,-0.067,0
0.247,0.361,0.009,0
0.209,0.186,0.326,0
0.204,0.111,0.56,1
0.208,0.012,0.695,1
0.225,-0.021,0.592,1
0.166,0.06,0.398,1
0.118,0.192,0.295,1
-0.001,0.36,0.088,1
-0.009,0.342,-0.082,1
0.167,0.383,0.095,1
0.329,0.499,0.457,1
0.577,0.523,0.885,1
0.685,0.373,1.156,1
0.677,0.385,1.151,1
0.597,-0.239,1.936,1
0.231,-0.387,2.656,1
-0.011,-0.478,2.861,1
-0.167,-0.606,2.794,1
-0.125,-0.714,2.483,1
0.101,-0.729,1.982,1
0.212,-0.682,1.589,1
0.088,-0.805,0.977,1
-0.084,-0.96,0.595,1
-0.234,-1.067,-0.181,0
-0.232,-1.09,-0.63,0
-0.178,-1.058,-0.94,0
-0.057,-1.02,-1,0
0.081,-1.023,-1.009,0
0.081,-1.032,-0.899,0
-0.057,-1.137,-0.609,0
-0.16,-1.213,-0.379,0
-0.188,-1.262,-0.112,0
-0.169,-1.262,0.015,0
-0.023,-1.257,0.203,0
0.117,-1.179,0.243,0
0.109,-1.172,0.24,0
0.124,-1.066,0.359,0
-0.024,-1.023,0.29,0
-0.083,-0.919,0.021,0
0.025,-0.756,-0.544,0
0.149,-0.601,-0.751,0
0.367,-0.419,-0.969,0
0.367,-0.326,-0.98,0
0.268,-0.341,-0.892,0
0.268,-0.337,-0.75,0
0.219,-0.287,-0.735,0
0.242,-0.174,-0.827,0
0.28,-0.086,-0.994,0
0.304,-0.037,-1.118,0
0.349,0.122,-1.209,0
0.361,0.177,-1.109,0
0.237,0.166,-0.79,0
0.229,0.172,-0.792,0
-0.113,0.039,-0.278,0
-0.049,0.094,-0.136,0
0.042,0.162,-0.104,0
0.066,0.222,-0.1,0
0.1,0.281,-0.194,0
0.117,0.332,-0.279,0
0.304,0.477,-0.243,0
0.387,0.562,-0.176,0
0.329,0.604,-0.102,0
0.247,0.558,-0.047,0
0.201,0.539,0.004,0
0.205,0.559,0.092,0
0.245,0.571,0.192,0
0.243,0.568,0.162,0
0.268,0.571,0.186,0
0.275,0.575,0.24,0
0.239,0.574,0.234,0
0.173,0.492,0.189,0
0.068,0.457,0.125,0
0.079,0.45,0.111,0
0.285,0.444,0.132,0
0.382,0.417,0.186,1
0.469,0.441,0.392,1
0.431,0.426,0.668,1
0.118,0.57,0.828,1
-0.063,0.707,0.485,1
-0.112,0.738,-0.229,1
-0.17,0.669,-0.617,1
-0.055,0.613,-0.691,1
0.079,0.524,-0.327,1
0.135,0.188,0.573,1
0.041,-0.033,1.335,1
-0.224,-0.349,2.373,1
-0.21,-0.444,2.726,1
-0.162,-0.44,2.962,1
-0.116,-0.396,2.856,1
0.067,-0.412,2.64,1
0.296,-0.405,2.402,1
0.293,-0.389,2.395,1
0.632,-0.474,1.627,1
0.498,-0.654,1.108,1
0.334,-0.777,0.685,1
0.006,-0.9,-0.129,0
-0.064,-0.86,-0.789,0
-0.002,-0.753,-1.55,0
0.042,-0.712,-1.882,0
0.014,-0.628,-1.837,0
-0.176,-0.666,-1.536,0
-0.511,-0.818,-1.032,0
-0.681,-0.935,-0.652,0
-0.787,-1.055,-0.458,0
-0.748,-1.099,-0.557,0
-0.679,-1.15,-0.764,0
-0.552,-1.129,-0.786,0
-0.406,-1.059,-0.489,0
-0.334,-1.016,-0.129,0
-0.228,-0.945,0.254,0
-0.187,-0.913,0.469,0
-0.217,-0.844,0.517,0
-0.218,-0.797,0.449,0
-0.249,-0.74,0.143,0
-0.223,-0.654,-0.167,0
-0.222,-0.567,-0.627,0
-0.221,-0.493,-0.974,0
-0.228,-0.495,-0.973,0
-0.159,-0.373,-1.177,0
-0.047,-0.251,-1.034,0
-0.053,-0.211,-0.928,0
-0.212,-0.209,-0.679,0
-0.301,-0.264,-0.423,0
-0.437,-0.292,-0.141,0
-0.404,-0.178,-0.165,0
-0.19,-0.027,-0.318,0
-0.094,0.096,-0.373,0
-0.056,0.336,-0.613,0
-0.03,0.455,-0.773,0
-0.113,0.525,-0.834,0
-0.13,0.583,-0.825,0
-0.066,0.744,-0.699,0
-0.043,0.828,-0.445,0
-0.203,0.824,-0.104,0
-0.37,0.749,0.167,0
-0.522,0.721,0.409,0
-0.551,0.75,0.501,0
-0.451,0.772,0.633,0
-0.327,0.816,0.629,0
-0.169,0.862,0.477,0
-0.069,0.799,0.425,0
0.043,0.734,0.619,0
0.095,0.562,0.839,1
0.093,0.565,0.838,1
-0.062,0.329,1.387,1
-0.046,0.577,1.162,1
0.208,0.686,0.571,1
0.685,0.662,-0.016,1
1.016,0.776,-0.054,1
1.531,0.997,0.31,1
1.571,0.825,0.842,1
1.171,0.466,1.69,1
0.733,0.231,2.334,1
0.381,-0.172,2.886,1
0.266,-0.491,3.179,1
0.149,-0.822,3.717,1
0.187,-0.926,4.143,1
0.286,-0.995,4.396,1
0.347,-0.8,3.69,1
0.53,-0.599,1.924,1
0.679,-0.493,0.226,1
0.711,-0.274,-1.752,1
0.701,-0.284,-2.786,1
0.458,-0.499,-3.324,0
0.169,-0.67,-3.012,0
0.059,-0.887,-1.69,0
0.158,-0.909,-0.784,0
0.377,-1.043,0.505,0
0.477,-1.04,0.936,0
0.433,-1.049,0.998,0
0.427,-1.088,0.676,0
0.298,-1.072,-0.099,0
0.167,-1.075,-0.712,0
0.011,-1.012,-1.149,0
-0.173,-1.007,-1.097,0
-0.332,-0.92,-0.582,0
-0.257,-0.748,-0.305,0
-0.001,-0.432,-0.183,0
0.181,-0.216,-0.272,0
0.216,0.002,-0.637,0
0.207,0.11,-1.016,0
0.169,0.203,-1.555,0
0.131,0.225,-1.828,0
0.117,0.279,-1.966,0
0.089,0.289,-1.923,0
-0.048,0.286,-1.538,0
-0.178,0.265,-1.238,0
-0.316,0.247,-0.944,0
-0.197,0.292,-0.638,0
0.081,0.453,-0.431,0
0.173,0.599,-0.392,0
0.319,0.737,-0.454,0
0.301,0.752,-0.582,0
0.142,0.707,-0.648,0
0.046,0.705,-0.469,0
0.016,0.818,-0.299,0
0.031,0.906,-0.215,0
0.121,0.951,-0.162,0
0.19,0.971,-0.216,0
0.2,0.974,-0.149,0
0.223,0.955,0.101,0
0.113,0.756,0.706,0
-0.028,0.688,1.172,0
-0.156,0.635,1.531,0
-0.136,0.57,1.633,0
-0.138,0.494,1.541,0
-0.266,0.596,1.275,1
-0.508,0.819,0.665,1
-0.443,0.977,-0.011,1
-0.313,1.078,-1.168,1
0.034,1.159,-1.822,1
0.601,1.213,-2.126,1
0.545,1.012,-1.439,1
0.153,0.406,0.472,1
-0.171,-0.162,2.33,1
-0.388,-1.012,4.711,1
-0.37,-1.389,6.329,1
0.06,-1.541,7.257,1
0.663,-1.303,6.69,1
0.744,-0.92,4.574,1
0.736,-0.73,2.821,1
0.201,-0.663,0.002,1
-0.234,-0.64,-1.883,1
-0.875,-0.932,-3.684,1
-1.214,-1.004,-4.351,1
-1.506,-0.907,-3.905,1
-1.105,-0.699,-2.771,1
-0.332,-0.489,-0.87,0
-0.031,-0.537,0.208,0
0.136,-0.54,0.728,0
0.162,-0.486,0.758,0
0.004,-0.677,0.201,0
-0.345,-0.848,-0.478,0
-0.626,-0.969,-1.14,0
-0.599,-0.955,-1.509,0
-0.46,-0.759,-1.709,0
-0.37,-0.674,-1.586,0
-0.241,-0.498,-1.007,0
-0.205,-0.396,-0.665,0
-0.227,-0.319,-0.524,0
-0.297,-0.338,-0.709,0
-0.32,-0.277,-1.002,0
-0.307,-0.237,-1.088,0
-0.297,-0.225,-1.052,0
-0.33,-0.265,-1.133,0
-0.321,-0.277,-1.094,0
-0.318,-0.242,-1.015,0
-0.194,-0.126,-1.017,0
-0.098,-0.051,-0.931,0
-0.101,0.03,-0.821,0
-0.175,0.066,-0.639,0
-0.214,0.003,-0.195,0
-0.207,0.011,0.181,0
-0.228,0.076,0.575,0
-0.187,0.139,0.63,0
-0.22,0.208,0.503,0
-0.2,0.294,0.371,0
-0.033,0.409,0.229,0
0.255,0.382,0.314,0
0.597,0.452,0.626,0
0.599,0.569,0.967,0
0.254,0.865,1.312,0
0.025,1.175,0.918,0
0.244,1.063,-0.265,0
0.477,0.907,-1.179,0
0.947,0.892,-1.495,0
1.18,0.533,-0.654,1
0.89,-0.141,1.78,1
0.303,-0.691,4.057,1
-0.195,-1.678,6.521,1
-0.51,-2.209,8.011,1
-0.339,-2.33,8.633,1
-0.072,-1.933,8.032,1
0.416,-1.429,5.192,1
0.625,-1.404,3.133,1
0.452,-1.119,-0.386,1
0.406,-0.875,-2.287,1
0.269,-0.782,-3.818,1
0.053,-0.795,-4.306,1
0.094,-0.635,-3.747,1
0.459,-0.496,-2.315,1
1.023,-0.32,-0.853,1
1.178,-0.38,-0.228,1
1.216,-0.372,0.439,1
1.08,-0.427,0.701,1
0.606,-0.631,0.446,1
0.151,-0.788,0.061,1
-0.166,-0.898,-0.508,0
-0.209,-0.853,-0.884,0
-0.1,-0.575,-1.338,0
-0.08,-0.435,-1.509,0
-0.078,-0.292,-1.74,0
-0.07,-0.264,-1.869,0
-0.059,-0.071,-1.941,0
0.019,0.036,-1.868,0
0.217,0.151,-1.757,0
0.25,0.207,-1.382,0
0.169,0.191,-0.793,0
0.045,0.151,-0.696,0
-0.069,0.061,-0.594,0
0,0.054,-0.623,0
0.177,0.171,-0.685,0
0.333,0.214,-0.712,0
0.373,0.227,-0.561,0
0.273,0.178,-0.279,0
0.107,0.101,-0.064,0
-0.128,0.086,0.187,0
-0.102,0.093,0.677,0
0.138,0.2,0.911,0
0.069,0.37,1.287,0
0.041,0.265,1.396,0
0.066,0.205,1.477,0
0.215,0.16,1.524,0
0.489,0.135,1.599,0
0.721,0.213,1.642,0
0.574,0.478,1.583,0
0.206,0.869,1.177,0
-0.21,0.889,0.197,0
-0.207,0.83,-0.862,1
-0.053,0.865,-1.763,1
0.238,0.601,-1.953,1
0.508,0.191,-0.936,1
0.776,0.057,0.864,1
1.097,-0.536,3.419,1
0.93,-0.985,4.763,1
0.274,-1.553,5.873,1
-0.071,-1.822,5.922,1
-0.348,-1.973,4.611,1
-0.22,-1.823,3.125,1
-0.183,-1.386,0.956,1
-0.285,-1.34,-0.375,1
-0.359,-1.27,-2.124,1
-0.632,-1.227,-2.951,1
-0.62,-1.268,-2.933,1
-0.694,-1.16,-2.895,1
-0.133,-1.237,-1.992,1
0.151,-1.239,-0.984,1
0.545,-1.307,0.198,1
0.657,-1.39,0.875,1
0.527,-1.413,1.077,0
0.359,-1.431,0.792,0
0.242,-1.367,-0.008,0
0.146,-1.322,-0.686,0
0.126,-1.119,-1.413,0
0.15,-0.961,-1.597,0
0.199,-0.716,-1.709,0
0.246,-0.598,-1.714,0
0.272,-0.456,-1.558,0
0.324,-0.357,-1.464,0
0.457,-0.234,-1.395,0
0.449,-0.219,-1.128,0
0.26,-0.33,-0.771,0
0.187,-0.39,-0.621,0
0.062,-0.443,-0.061,0
0.062,-0.42,0.233,0
0.113,-0.333,0.111,0
0.114,-0.299,-0.21,0
0.192,-0.274,-0.556,0
0.18,-0.216,-0.844,0
0.188,-0.146,-1.061,0
0.217,-0.088,-0.984,0
0.136,-0.119,-0.641,0
0.096,-0.154,-0.495,0
0.103,-0.12,-0.435,0
0.204,-0.137,-0.39,0
0.295,-0.156,-0.131,0
0.355,-0.16,0.177,0
0.526,-0.236,0.651,0
0.766,-0.24,1.34,0
0.869,-0.129,2.025,0
0.885,-0.035,2.263,0
0.571,0.385,2.06,0
0.254,0.658,1.39,1
0.416,0.549,-0.066,1
0.602,0.519,-0.783,1
0.633,0.547,-1.134,1
0.856,0.28,-0.702,1
0.92,-0.086,0.651,1
0.478,-0.322,2.127,1
0.305,-0.892,3.301,1
0.397,-1.079,3.663,1
0.336,-1.363,4.618,1
0.466,-1.441,5.018,1
0.466,-1.352,5.06,1
0.395,-1.237,4.265,1
0.354,-1.309,2.393,1
0.47,-1.209,0.722,1
0.528,-0.895,-1.074,1
0.521,-0.801,-1.947,1
0.279,-0.952,-2.247,1
0.195,-1.06,-1.687,1
0.61,-1.042,-0.371,1
0.979,-0.988,0.484,1
1.235,-1.012,1.246,0
1.279,-1.045,1.588,0
0.961,-1.066,1.406,0
0.758,-1.138,0.732,0
0.738,-1.005,-0.472,0
0.828,-0.865,-1.178,0
0.742,-0.601,-1.915,0
0.7,-0.495,-2.174,0
0.749,-0.452,-2.441,0
0.564,-0.447,-2.404,0
0.342,-0.316,-2.157,0
0.364,-0.219,-1.933,0
0.519,-0.086,-1.717,0
0.539,-0.027,-1.513,0
0.434,-0.04,-1.16,0
0.373,-0.086,-0.937,0
0.287,-0.187,-0.544,0
0.253,-0.202,-0.386,0
0.28,-0.223,-0.183,0
0.279,-0.247,-0.085,0
0.25,-0.242,-0.22,0
0.406,-0.1,-0.428,0
0.654,0.13,-0.397,0
0.658,0.263,-0.381,0
0.676,0.423,-0.58,0
0.662,0.492,-0.565,0
0.479,0.471,-0.266,0
0.371,0.465,-0.139,0
0.261,0.397,0.148,0
0.278,0.33,0.302,0
0.498,0.443,0.546,0
0.698,0.526,0.771,0
0.902,0.586,0.79,0
1,0.559,0.702,0
0.986,0.571,0.72,0
0.998,0.49,0.849,0
1.144,0.416,1.152,0
1.227,0.381,1.495,1
1.229,0.232,1.992,1
1.099,0.19,2.326,1
0.808,0.612,2.145,1
0.524,0.852,1.518,1
0.547,0.809,1.537,1
0.314,1.103,-0.714,1
0.405,1.286,-1.721,1
0.554,1.177,-2.169,1
0.681,0.881,-1.866,1
0.833,0.514,-1.186,1
1.02,-0.293,1.051,1
1.14,-0.835,3.013,1
0.783,-1.622,5.514,1
0.37,-1.936,7.022,1
0.196,-2.059,7.622,1
0.387,-1.922,6.444,1
0.626,-1.68,3.534,1
0.801,-1.355,1.081,1
0.754,-1.137,-1.38,1
0.496,-1.182,-2.785,1
0.086,-1.247,-3.805,0
0.056,-1.165,-3.997,0
-0.081,-1.16,-3.305,0
0.136,-1.121,-2.37,0
0.692,-1.04,-1.049,0
0.874,-1.106,-0.242,0
0.799,-1.23,0.559,0
0.534,-1.271,0.93,0
0.091,-1.392,0.86,0
-0.084,-1.46,0.664,0
-0.148,-1.399,0.105,0
-0.082,-1.225,-0.417,0
-0.019,-0.919,-1.156,0
-0.042,-0.748,-1.526,0
-0.151,-0.592,-1.779,0
-0.159,-0.483,-1.853,0
-0.17,-0.328,-1.694,0
-0.144,-0.207,-1.491,0
0.12,-0.042,-1.08,0
0.211,-0.002,-0.808,0
0.155,-0.019,-0.428,0
0.076,-0.042,-0.263,0
-0.196,-0.247,0.213,0
-0.2,-0.266,0.557,0
-0.124,-0.162,0.633,0
-0.045,-0.071,0.404,0
0.043,-0.005,-0.213,0
0.059,0.032,-0.606,0
0.004,0.171,-0.976,0
-0.082,0.231,-1.144,0
-0.083,0.306,-1.307,0
-0.164,0.336,-1.175,0
-0.287,0.231,-0.698,0
-0.294,0.257,-0.382,0
-0.328,0.356,-0.013,0
-0.279,0.418,0.153,0
-0.095,0.543,0.183,0
-0.037,0.632,0.194,0
-0.114,0.6,0.097,0
-0.224,0.553,-0.036,0
-0.265,0.389,0.019,0
-0.157,0.308,0.167,1
0.004,0.333,0.588,1
0.153,0.343,1.101,1
0.147,0.145,1.847,1
0.005,0.065,2.05,1
-0.162,0.226,2.202,1
-0.222,0.461,1.93,1
-0.161,0.551,0.831,1
0.021,0.461,0.018,1
0.234,0.643,-0.611,1
0.407,0.749,-0.729,1
0.654,0.592,-0.566,1
0.715,0.38,-0.185,1
0.441,0.172,0.85,1
0.358,-0.034,1.551,1
0.428,-0.48,2.603,1
0.329,-0.779,3.427,1
0.062,-1.042,4.364,1
0.005,-1.1,4.66,1
0.014,-1.083,4.245,1
0.127,-1.008,3.291,1
0.196,-0.935,1.407,0
0.181,-0.884,0.27,0
-0.082,-0.83,-1.053,0
-0.105,-0.853,-1.597,0
-0.015,-0.842,-2.066,0
-0.021,-0.886,-2.092,0
0.049,-0.977,-1.391,0
0.155,-1.025,-0.654,0
0.37,-1.055,0.094,0
0.526,-1.052,0.649,0
0.735,-0.985,1.156,0
0.719,-0.863,1.144,0
0.497,-0.785,0.742,0
0.303,-0.808,0.137,0
0.136,-0.78,-0.696,0
0.156,-0.654,-1.177,0
0.18,-0.525,-1.58,0
0.182,-0.464,-1.67,0
0.08,-0.407,-1.502,0
0.026,-0.368,-1.402,0
0.077,-0.286,-1.252,0
0.18,-0.185,-1.229,0
0.385,-0.059,-1.179,0
0.435,0.005,-1.234,0
0.468,0.031,-1.226,0
0.467,0.013,-1.101,0
0.319,-0.08,-0.893,0
0.248,-0.116,-0.804,0
0.318,-0.069,-0.263,0
0.282,-0.018,-0.113,0
0.225,0.042,-0.257,0
0.24,0.106,-0.393,0
0.321,0.21,-0.623,0
0.406,0.3,-0.777,0
0.486,0.35,-0.797,0
0.51,0.382,-0.545,0
0.566,0.352,-0.055,0
0.505,0.375,0.19,0
0.352,0.372,0.231,0
0.477,0.464,0.37,0
0.531,0.596,0.5,0
0.543,0.69,0.361,0
0.723,0.922,0.009,0
0.863,1.042,-0.245,0
0.912,1.096,-0.358,0
0.777,1.078,-0.306,0
0.563,0.948,-0.084,0
0.578,0.835,0.047,1
0.522,0.652,0.322,1
0.435,0.562,0.616,1
0.41,0.341,1.177,1
0.334,0.178,1.558,1
0.229,0.151,1.73,1
0.089,0.337,1.555,1
-0.064,0.67,0.706,1
0.101,0.836,0.118,1
0.046,1.099,-1.056,1
0.072,1.159,-1.619,1
0.133,1.086,-1.76,1
0.185,0.875,-1.404,1
0.364,0.602,-0.376,1
0.295,0.387,0.862,1
0.253,-0.04,2.114,1
0.221,-0.306,2.646,1
-0.017,-0.552,3.109,1
-0.069,-0.627,3.307,1
-0.083,-0.594,3.294,1
-0.096,-0.696,2.451,1
-0.291,-0.669,1.271,0
-0.499,-0.681,0.432,0
-0.686,-0.668,-0.886,0
-0.695,-0.686,-1.622,0
-0.677,-0.74,-1.8,0
-0.686,-0.755,-1.794,0
-0.114,-0.39,-0.599,0
0.051,-0.41,-0.029,0
-0.032,-0.657,0.654,0
-0.163,-0.758,0.888,0
-0.202,-0.798,0.975,0
-0.227,-0.75,0.723,0
-0.181,-0.673,0.078,0
-0.198,-0.564,-0.515,0
-0.171,-0.404,-1.268,0
-0.134,-0.284,-1.647,0
-0.059,-0.127,-1.994,0
-0.025,-0.114,-1.956,0
0.06,0.035,-1.711,0
0.214,0.184,-1.476,0
0.38,0.302,-1.019,0
0.266,0.306,-0.684,0
0.102,0.271,-0.453,0
0.09,0.254,-0.266,0
-0.025,0.223,-0.135,0
-0.032,0.238,-0.173,0
0.273,0.401,-0.474,0
0.428,0.514,-0.505,0
0.441,0.6,-0.532,0
0.44,0.633,-0.586,0
0.291,0.639,-0.583,0
0.112,0.554,-0.609,0
-0.045,0.492,-0.443,0
-0.127,0.442,-0.212,0
-0.172,0.308,0.317,0
-0.152,0.247,0.66,0
-0.211,0.263,0.984,0
-0.193,0.297,0.984,0
-0.085,0.38,0.68,0
-0.064,0.332,0.341,0
-0.09,0.223,0.17,0
0.025,0.148,0.3,0
0.298,0.045,0.707,0
0.442,-0.105,0.983,0
0.451,-0.105,0.983,0
0.278,-0.175,1.166,1
-0.118,0.095,0.9,1
-0.151,0.292,-0.482,1
0.498,0.575,-0.937,1
1.037,0.954,-0.782,1
2.003,1.014,-0.007,1
2.157,1.016,0.328,1
2.04,1.156,1.27,1
1.736,0.798,2.319,1
1.932,0.51,2.636,1
1.582,0.336,2.692,1
1.072,-0.074,2.859,1
0.737,-0.359,2.773,1
0.383,-0.614,2.146,1
0.282,-0.732,1.536,1
0.231,-0.91,0.438,1
0.216,-0.947,-0.11,1
0.149,-1.101,-0.699,1
0.24,-1.17,-0.799,1
0.664,-1.122,-0.489,1
0.866,-1.102,-0.09,1
0.88,-1.054,0.145,0
0.749,-1.059,0.107,0
0.512,-1.083,-0.425,0
0.472,-1.003,-0.794,0
0.468,-0.8,-1.377,0
0.542,-0.558,-1.704,0
0.573,-0.249,-1.896,0
0.562,-0.117,-1.866,0
0.509,-0.017,-1.733,0
0.38,-0.01,-1.605,0
0.18,0.002,-1.317,0
0.191,0.061,-1.28,0
0.295,0.144,-1.484,0
0.256,0.136,-1.512,0
0.047,0.087,-1.38,0
-0.106,0.024,-1.175,0
-0.131,0.04,-0.945,0
0.013,0.141,-0.904,0
0.378,0.365,-0.564,0
0.689,0.484,-0.3,0
0.815,0.603,-0.129,0
0.692,0.594,-0.311,0
0.625,0.508,-0.777,0
0.478,0.441,-0.819,0
0.257,0.433,-0.803,0
0.119,0.46,-0.852,0
0.022,0.485,-0.686,0
0.007,0.428,-0.361,0
0.115,0.401,0.416,0
0.268,0.378,0.887,0
0.261,0.365,0.892,0
0.229,0.143,1.937,0
0.34,0.031,2.59,0
0.476,0.002,2.993,0
0.754,0.059,3.379,0
0.547,0.516,3.038,1
-0.255,1.125,1.834,1
-0.341,1.27,0.475,1
-0.296,1.211,0.5,1
-0.049,1.712,-2.433,1
0.282,1.522,-3.374,1
0.536,1.205,-2.886,1
1.349,0.142,-0.183,1
1.387,-1.017,2.806,1
0.817,-2.372,6.701,1
0.297,-2.58,9.292,1
-0.307,-2.451,10.633,1
-0.087,-1.979,9.209,1
0.325,-1.504,4.884,1
0.25,-1.025,1.242,1
0.431,-0.584,-3.306,1
0.317,-0.424,-5.338,1
-0.152,-0.306,-6.325,1
-0.487,-0.57,-5.71,1
-0.332,-0.863,-3.518,1
-0.051,-0.958,-1.371,1
0.435,-1.196,1.118,0
0.404,-1.206,2.258,0
0.398,-1.021,3.006,0
0.415,-0.861,2.652,0
0.196,-0.998,1.282,0
-0.002,-1.048,-0.241,0
-0.251,-0.896,-1.96,0
-0.223,-0.704,-2.886,0
-0.043,-0.53,-3.474,0
-0.055,-0.379,-3.418,0
-0.008,-0.124,-2.869,0
0.015,-0.042,-2.246,0
-0.065,0.034,-1.516,0
-0.144,0.046,-1.112,0
-0.282,-0.105,-0.675,0
-0.295,-0.132,-0.448,0
-0.131,-0.066,-0.551,0
0.113,0.014,-0.671,0
0.23,0.026,-0.649,0
0.219,0.022,-0.67,0
0.222,0.114,-0.547,0
0.187,0.159,-0.367,0
0.177,0.146,-0.277,0
0.183,0.118,-0.201,0
0.197,0.119,-0.202,0
0.124,0.257,0.242,0
0.228,0.452,0.271,0
0.268,0.506,0.045,0
0.16,0.571,-0.294,0
0.166,0.52,-0.282,0
0.244,0.442,0.007,0
0.28,0.354,0.407,0
0.384,0.283,0.905,0
0.51,0.256,1.351,0
0.507,0.409,1.864,0
0.194,0.8,1.83,0
-0.156,1.074,0.704,0
-0.11,0.813,-0.075,1
-0.103,0.784,-0.063,1
0.401,0.798,-1.132,1
0.595,0.657,-0.336,1
0.578,0.549,0.871,1
0.435,-0.017,2.427,1
0.437,-0.543,3.309,1
0.335,-0.87,4.58,1
0.161,-0.977,5.243,1
0.086,-1.086,5.534,1
0.183,-0.899,4.717,1
0.172,-0.81,2.691,1
0.275,-0.72,0.842,1
0.308,-0.588,-1.006,1
0.227,-0.691,-2.065,1
-0.001,-0.793,-2.902,1
-0.119,-0.932,-2.867,1
0.063,-0.998,-1.68,1
0.273,-0.917,-0.807,1
0.374,-0.932,0.403,1
0.476,-0.915,0.86,1
0.536,-0.745,0.966,0
0.595,-0.557,0.577,0
0.63,-0.435,-0.388,0
0.553,-0.323,-1.131,0
0.488,-0.177,-1.911,0
0.435,-0.164,-2.11,0
0.346,-0.134,-2.251,0
0.369,-0.081,-2.229,0
0.257,-0.032,-2.051,0
0.168,0.035,-1.833,0
0.286,0.227,-1.761,0
0.38,0.339,-1.882,0
0.344,0.355,-2.031,0
0.305,0.368,-2.062,0
0.291,0.435,-1.863,0
0.271,0.389,-1.528,0
0.143,0.276,-0.949,0
0.09,0.227,-0.567,0
0.114,0.177,-0.066,0
0.205,0.176,0.331,0
0.198,0.185,0.327,0
0.34,0.245,1.007,0
0.306,0.288,0.918,0
0.19,0.294,0.621,0
0.205,0.278,0.627,0
0.037,0.395,-0.129,0
0.146,0.621,-0.332,0
0.186,0.699,-0.23,0
0.202,0.732,0.012,0
0.204,0.721,0.373,0
0.326,0.675,1.019,0
0.381,0.554,1.66,0
0.545,0.375,2.48,0
0.651,0.232,2.826,1
0.42,0.358,3.115,1
-0.12,0.87,2.869,1
-0.769,1.27,1.266,1
-0.731,1.342,-0.592,1
-0.682,1.517,-2.273,1
-0.815,1.453,-3.176,1
-0.43,1.114,-3.299,1
0.112,0.663,-2.155,1
0.463,-0.836,1.896,1
0.222,-1.787,4.896,1
-0.065,-2.303,8.063,1
-0.314,-2.213,9.435,1
-0.057,-1.779,8.489,1
0.272,-1.324,5.439,1
0.231,-0.92,0.691,1
-0.079,-0.681,-2.319,1
-0.496,-0.415,-5.131,1
-0.964,-0.364,-5.721,1
-1.519,-0.629,-4.888,1
-1.343,-0.799,-3.438,1
-0.843,-0.872,-1.058,0
-0.515,-1.022,0.509,0
-0.079,-0.985,1.809,0
0.108,-0.943,2.337,0
0.26,-0.923,2.079,0
0.051,-1.037,1.549,0
-0.514,-1.332,0.243,0
-0.749,-1.331,-0.548,0
-0.789,-1.138,-1.134,0
-0.705,-0.981,-1.554,0
-0.596,-0.685,-2.076,0
-0.455,-0.404,-2.257,0
-0.261,-0.11,-2.382,0
-0.17,0.026,-2.346,0
-0.208,0.196,-2.188,0
-0.313,0.196,-2.064,0
-0.46,0.117,-1.83,0
-0.532,0.075,-1.649,0
-0.527,0.013,-1.281,0
-0.509,0.009,-1.042,0
-0.474,0.053,-0.851,0
-0.395,0.106,-0.773,0
-0.513,0.145,-0.482,0
-0.573,0.191,-0.382,0
-0.497,0.271,-0.354,0
-0.465,0.289,-0.212,0
-0.598,0.282,0.191,0
-0.592,0.324,0.429,0
-0.528,0.424,0.649,0
-0.552,0.424,0.729,0
-0.459,0.482,0.796,0
-0.315,0.458,0.955,0
-0.328,0.439,0.962,0
0.024,0.19,1.855,0
0.028,0.072,2.059,0
-0.054,-0.066,1.943,0
-0.385,0.13,1.622,0
-0.643,0.511,1.16,0
-0.63,0.48,1.171,0
-0.097,0.37,-0.136,1
0.346,0.558,-0.049,1
0.665,0.65,0.307,1
0.768,0.256,1.829,1
0.329,-0.036,3.08,1
-0.271,-0.187,4.198,1
-0.392,-0.244,3.98,1
-0.394,-0.317,2.806,1
-0.269,-0.217,1.887,1
-0.139,-0.09,0.978,1
-0.19,-0.143,0.75,1
-0.335,-0.34,0.941,1
-0.364,-0.516,1.205,1
-0.455,-0.758,1.607,1
-0.516,-0.911,1.64,1
-0.538,-1.122,1.518,1
-0.497,-1.221,1.389,1
-0.479,-1.205,1.383,1
-0.095,-1.112,0.707,1
0.153,-1.012,-0.097,1
0.281,-0.963,-0.798,1
0.506,-0.829,-1.742,0
0.365,-0.775,-1.921,0
0.159,-0.711,-2.037,0
-0.022,-0.695,-2.142,0
-0.343,-0.631,-2.134,0
-0.453,-0.51,-2.122,0
-0.317,-0.284,-2.234,0
-0.259,-0.181,-2.259,0
-0.275,-0.011,-2.169,0
-0.318,0.052,-2.133,0
-0.45,-0.015,-1.885,0
-0.594,-0.061,-1.619,0
-0.664,-0.043,-1.231,0
-0.568,0.031,-0.825,0
-0.458,0.041,-0.408,0
-0.462,0.075,-0.347,0
-0.51,0.083,-0.5,0
-0.491,0.023,-0.411,0
-0.466,-0.101,-0.368,0
-0.555,-0.146,-0.378,0
-0.548,-0.153,-0.375,0
-0.691,-0.256,-0.016,0
-0.798,-0.219,0.162,0
-0.811,-0.088,0.363,0
-0.803,-0.097,0.366,0
-0.766,0.085,0.332,0
-0.558,0.251,0.367,0
-0.423,0.285,0.425,0
-0.26,0.329,0.563,0
-0.075,0.337,0.831,0
0.207,0.317,1.378,0
0.284,0.208,1.654,0
0.285,0.194,1.66,0
0.429,-0.039,1.865,1
0.434,-0.061,1.874,1
0.653,-0.088,1.591,1
0.209,0.346,1.289,1
-0.208,0.749,0.699,1
-0.311,0.857,-0.449,1
-0.358,0.905,-1.552,1
-0.413,1.134,-2.497,1
-0.419,1.007,-2.756,1
-0.244,0.393,-1.926,1
-0.694,0.338,-0.686,1
0.101,-0.336,1.907,1
0.462,-0.718,3.386,1
0.526,-0.927,5.063,1
0.659,-0.828,5.299,1
0.713,-0.694,3.927,1
0.544,-0.67,2.057,1
0.152,-0.618,-0.262,1
-0.22,-0.591,-1.442,1
-0.528,-0.739,-2.407,1
-0.783,-0.768,-2.487,1
-1.019,-1.02,-1.726,0
-0.85,-1.186,-0.91,0
-0.388,-1.199,0.196,0
0.036,-1.166,0.765,0
0.533,-1.061,1.089,0
0.668,-0.969,0.962,0
0.614,-0.935,0.446,0
0.464,-0.966,-0.127,0
0.456,-0.96,-0.129,0
0.213,-0.887,-1.133,0
0.209,-0.884,-1.134,0
-0.026,-0.723,-1.258,0
-0.145,-0.729,-1.206,0
-0.37,-0.707,-1.228,0
-0.633,-0.704,-1.384,0
-0.738,-0.7,-1.498,0
-0.715,-0.597,-1.36,0
-0.558,-0.441,-1.108,0
-0.286,-0.209,-0.797,0
-0.179,-0.085,-0.692,0
-0.08,0.01,-0.644,0
-0.037,0.103,-0.796,0
-0.061,0.144,-1.015,0
-0.096,0.146,-1.032,0
-0.127,0.135,-0.81,0
-0.093,0.105,-0.378,0
-0.026,0.138,0.268,0
0.096,0.184,0.621,0
0.186,0.285,1.091,0
0.01,0.264,1.162,0
-0.104,0.319,0.989,0
-0.032,0.375,0.737,0
0.137,0.484,0.422,0
0.351,0.609,0.408,0
0.644,0.689,0.784,0
0.641,0.632,1.1,0
0.539,0.518,1.391,0
0.501,0.548,1.537,0
0.293,0.726,1.56,0
0.013,0.926,1.022,1
-0.081,0.676,-0.056,1
0.182,0.572,-0.861,1
0.285,0.657,-0.884,1
0.366,0.484,-0.092,1
0.627,-0.039,1.483,1
0.459,-0.523,2.586,1
0.151,-0.848,3.88,1
0.321,-0.943,4.644,1
0.603,-0.816,4.907,1
0.658,-0.617,4.312,1
0.549,-0.54,2.857,1
0.392,-0.53,1.301,1
-0.034,-0.561,-0.183,1
-0.206,-0.678,-0.566,1
-0.369,-0.899,-0.481,1
-0.392,-0.928,-0.186,1
-0.058,-1.04,0.2,1
0.384,-0.968,0.423,1
0.67,-0.979,0.554,1
0.763,-1.061,0.467,1
0.774,-1.057,0.466,0
0.536,-1.261,0.154,0
0.264,-1.284,-0.264,0
0.257,-1.201,-0.785,0
0.205,-1.054,-1.469,0
0.154,-0.935,-1.715,0
0.105,-0.706,-1.951,0
0.083,-0.538,-2.068,0
0.102,-0.429,-2.342,0
0.148,-0.357,-2.668,0
0.093,-0.178,-2.773,0
0.042,-0.121,-2.609,0
-0.026,-0.045,-2.288,0
-0.041,0.018,-2.135,0
-0.052,0.095,-1.785,0
-0.121,0.088,-1.505,0
-0.198,0.114,-1.329,0
-0.126,0.162,-1.284,0
0.058,0.259,-0.942,0
-0.037,0.226,-0.513,0
-0.113,0.228,-0.192,0
-0.154,0.206,-0.222,0
-0.201,0.151,-0.165,0
-0.352,0.039,0.105,0
-0.468,-0.077,0.267,0
-0.439,0.055,0.52,0
-0.442,0.163,0.945,0
-0.48,0.216,1.105,0
-0.492,0.253,1.122,0
-0.469,0.257,1.122,0
-0.224,0.372,1.237,0
0.033,0.567,1.237,0
0.041,0.552,1.242,0
0.957,0.736,1.452,0
0.979,0.572,1.541,0
0.831,0.416,1.697,1
0.679,0.153,2.056,1
0.491,0.058,2.252,1
-0.107,0.427,2.014,1
-0.482,0.777,1.261,1
-0.615,0.937,0.083,1
-0.289,1.216,-0.931,1
-0.021,1.577,-1.702,1
0.27,1.465,-1.763,1
0.805,0.992,-1.046,1
0.751,0.505,0.148,1
0.306,-0.719,2.326,1
-0.016,-1.27,3.388,1
-0.363,-1.633,4.862,1
-0.57,-1.723,5.286,1
-0.053,-1.278,4.04,1
0.176,-0.893,2.099,1
0.171,-0.497,-0.808,1
-0.194,-0.434,-2.249,1
-0.635,-0.58,-3.296,1
-1.144,-0.898,-3.327,1
-1.519,-1.278,-2.061,0
-1.198,-1.348,-0.848,0
-0.537,-1.384,0.721,0
-0.088,-1.398,1.591,0
0.209,-1.397,2.202,0
0.339,-1.284,2.081,0
0.449,-1.157,1.169,0
0.353,-1.153,0.069,0
0.333,-1.036,-1.469,0
0.225,-0.908,-2.182,0
-0.119,-0.91,-2.513,0
-0.321,-0.991,-2.314,0
-0.492,-0.87,-1.953,0
-0.508,-0.707,-1.715,0
-0.31,-0.492,-1.414,0
-0.086,-0.284,-1.242,0
0.084,0.046,-1.322,0
0.215,0.188,-1.368,0
0.359,0.314,-1.182,0
0.204,0.274,-0.914,0
-0.087,0.138,-0.51,0
-0.205,0.088,-0.309,0
-0.248,0.071,-0.193,0
-0.292,0.076,-0.204,0
-0.259,0.08,-0.275,0
-0.268,0.117,-0.255,0
-0.204,0.117,0.021,0
-0.026,0.202,0.21,0
0.133,0.255,0.179,0
0.13,0.266,0.178,0
-0.055,0.131,0.203,0
-0.261,0.03,0.088,0
-0.323,0.03,-0.015,0
-0.046,0.131,0.057,0
0.232,0.262,0.225,0
0.312,0.243,0.574,0
0.386,0.107,0.839,0
0.46,-0.036,1.032,0
0.409,-0.216,1.395,0
0.47,-0.328,1.671,1
0.469,-0.339,1.675,1
0.14,-0.018,1.547,1
0.147,-0.039,1.555,1
-0.062,0.172,-0.025,1
0.269,0.179,-0.766,1
0.515,0.36,-0.76,1
1.023,0.463,0.022,1
1.275,0.399,0.805,1
0.833,-0.101,2.107,1
0.504,-0.303,2.911,1
0.47,-0.359,3.587,1
0.485,-0.344,3.833,1
0.364,-0.325,3.787,1
0.249,-0.36,3.381,1
0.273,-0.352,3.377,1
-0.059,-0.542,1.435,1
-0.078,-0.544,0.59,1
-0.03,-0.571,0.203,1
-0.008,-0.643,0.013,1
0.022,-0.695,-0.098,1
0.088,-0.83,-0.058,0
0.187,-0.972,-0.003,0
0.33,-1.047,0.151,0
0.397,-1.08,0.258,0
0.278,-1.155,0.178,0
0.186,-1.189,-0.18,0
0.032,-1.186,-0.764,0
-0.103,-1.1,-1.331,0
-0.356,-1.078,-1.862,0
-0.388,-0.99,-2.03,0
-0.254,-0.617,-2.051,0
-0.136,-0.381,-2.152,0
-0.157,-0.208,-2.348,0
-0.261,-0.134,-2.456,0
-0.395,-0.168,-2.44,0
-0.457,-0.207,-2.219,0
-0.438,-0.21,-1.41,0
-0.314,-0.144,-0.805,0
-0.036,0.022,-0.402,0
0.283,0.175,-0.279,0
0.492,0.217,-0.129,0
0.437,0.203,-0.179,0
0.431,0.201,-0.179,0
-0.113,-0.105,-0.224,0
-0.101,-0.1,-0.227,0
-0.439,-0.171,-0.204,0
-0.476,-0.184,-0.245,0
-0.39,-0.132,-0.296,0
-0.271,-0.024,-0.486,0
-0.011,0.13,-0.642,0
0.26,0.392,-0.62,0
0.245,0.424,-0.574,0
0.101,0.25,-0.304,0
-0.049,0.082,-0.037,0
-0.055,0.007,0.338,0
0.128,0.041,0.759,0
0.255,0.187,1.029,0
0.377,0.251,1.203,0
0.461,0.256,1.193,0
0.424,0.245,1.1,1
0.415,0.187,0.927,1
0.486,0.173,0.935,1
0.523,0.209,0.828,1
0.457,0.363,0.733,1
0.089,0.647,0.545,1
-0.035,0.703,0.204,1
0.004,0.702,-0.252,1
0.17,0.842,-0.537,1
0.309,0.884,-0.366,1
0.357,0.61,0.037,1
0.328,0.126,0.925,1
0.143,-0.168,1.82,1
0.032,-0.55,2.891,1
0.175,-0.752,3.349,1
0.134,-1.017,3.598,1
0.084,-1.242,3.574,1
0.041,-1.337,2.872,1
-0.014,-1.311,2.127,1
-0.227,-1.258,0.886,1
-0.323,-1.098,0.212,1
-0.384,-0.872,-0.559,0
-0.442,-0.774,-1.091,0
-0.644,-0.716,-1.56,0
-0.625,-0.64,-1.656,0
-0.641,-0.641,-1.655,0
-0.406,-0.565,-1.213,0
-0.436,-0.554,-1.217,0
-0.167,-0.831,-0.179,0
-0.156,-0.95,0.212,0
0.016,-0.89,0.36,0
0.15,-0.842,0.639,0
0.146,-0.779,0.625,0
-0.061,-0.722,0.15,0
-0.176,-0.693,-0.451,0
-0.172,-0.693,-0.451,0
-0.331,-0.558,-1.353,0
-0.293,-0.342,-1.567,0
-0.3,-0.239,-1.663,0
-0.273,-0.1,-1.779,0
-0.147,-0.006,-1.882,0
-0.133,0.059,-1.703,0
-0.135,0.086,-1.338,0
-0.172,0.067,-1.022,0
-0.173,0.033,-0.879,0
-0.109,0.01,-0.617,0
-0.084,0.026,-0.28,0
-0.124,-0.027,0.265,0
-0.156,-0.044,0.616,0
-0.309,0.007,0.848,0
-0.272,0.089,0.906,0
-0.168,0.222,0.671,0
-0.053,0.309,0.197,0
-0.08,0.338,-0.415,0
-0.154,0.261,-0.615,0
-0.143,0.28,-0.675,0
-0.167,0.293,-0.496,0
-0.296,0.272,0.036,0
-0.246,0.223,0.331,0
-0.26,0.142,0.443,0
-0.249,0.137,0.594,0
-0.152,0.125,0.901,0
-0.128,0.106,1.066,0
-0.05,0.055,1.121,0
0.151,0.063,1.168,1
0.341,0.062,0.975,1
0.425,0.026,0.772,1
0.432,0.008,0.778,1
0.295,0.24,0.276,1
0.019,0.41,0.135,1
0.107,0.259,-0.06,1
0.42,0.206,-0.172,1
0.587,0.372,0.036,1
0.784,0.432,0.811,1
0.755,0.215,1.434,1
0.517,-0.13,2.132,1
0.247,-0.134,2.46,1
-0.037,-0.184,2.593,1
-0.174,-0.296,2.359,1
-0.189,-0.459,1.828,1
-0.009,-0.413,1.493,1
0.482,-0.205,1.149,1
0.78,-0.042,0.736,1
0.901,0.101,0.134,1
0.846,0.107,-0.324,1
0.795,0.025,-0.957,0
0.685,-0.087,-1.349,0
0.472,-0.279,-1.401,0
0.46,-0.356,-1.172,0
0.475,-0.353,-1.173,0
0.508,-0.568,-0.516,0
0.447,-0.765,-0.351,0
0.304,-0.852,-0.269,0
0.177,-0.935,-0.108,0
0.124,-0.932,-0.113,0
0.168,-0.868,-0.185,0
0.283,-0.743,-0.259,0
0.333,-0.606,-0.287,0
0.25,-0.563,-0.326,0
0.028,-0.501,-0.424,0
-0.085,-0.464,-0.4,0
-0.061,-0.259,-0.59,0
0.034,-0.137,-0.943,0
0.052,-0.14,-0.942,0
0.239,0.171,-1.761,0
0.194,0.294,-1.914,0
0.088,0.301,-1.942,0
0.09,0.292,-1.935,0
0.119,0.37,-1.792,0
0.13,0.353,-1.17,0
0.122,0.384,-0.721,0
0.062,0.457,-0.43,0
0.126,0.472,-0.345,0
0.101,0.424,-0.173,0
0.049,0.406,0.036,0
0.303,0.483,0.374,0
0.433,0.503,0.566,0
0.354,0.474,0.715,0
0.315,0.453,0.845,0
0.321,0.456,0.845,0
-0.028,0.386,0.711,0
-0.097,0.277,0.396,0
-0.019,0.251,0.239,0
0.177,0.428,0.352,0
0.35,0.567,0.556,0
0.502,0.622,0.767,0
0.575,0.67,0.742,0
0.605,0.668,0.622,0
0.598,0.52,0.732,1
0.575,0.296,1.013,1
0.521,0.259,1.299,1
0.224,0.502,1.48,1
-0.176,0.697,1.184,1
-0.263,0.72,0.268,1
-0.142,0.741,-0.361,1
0.005,1.017,-1.198,1
0.199,1.097,-1.534,1
0.577,0.851,-1.389,1
0.621,0.477,-0.667,1
0.577,0.12,0.823,1
0.548,-0.219,2.141,1
0.346,-0.855,3.45,1
0.153,-1.21,4.172,1
-0.122,-1.606,4.586,1
-0.225,-1.798,4.189,1
-0.334,-1.797,2.851,1
-0.495,-1.67,1.764,1
-0.494,-1.365,0.581,1
-0.48,-1.131,-0.269,1
-0.546,-0.915,-1.546,0
-0.525,-0.771,-2.072,0
-0.326,-0.544,-2.441,0
-0.189,-0.405,-2.265,0
0.076,-0.439,-1.44,0
0.231,-0.544,-0.706,0
0.154,-0.844,0.11,0
0.098,-0.964,0.495,0
0.127,-0.991,0.965,0
0.15,-0.953,1.105,0
0.118,-0.83,0.793,0
0.15,-0.722,0.18,0
-0.025,-0.69,-0.62,0
-0.168,-0.643,-0.954,0
-0.278,-0.542,-1.059,0
-0.328,-0.478,-0.95,0
-0.424,-0.346,-0.646,0
-0.428,-0.291,-0.51,0
-0.463,-0.207,-0.515,0
-0.396,-0.142,-0.528,0
-0.39,-0.135,-0.53,0
-0.264,0.009,-0.821,0
-0.133,0.073,-1.132,0
-0.059,0.038,-1.172,0
0.025,0.168,-1.125,0
0.072,0.198,-1.1,0
0.085,0.208,-1.013,0
-0.05,0.197,-0.851,0
-0.123,0.224,-0.725,0
-0.173,0.228,-0.809,0
-0.133,0.307,-0.887,0
-0.163,0.351,-0.723,0
-0.182,0.254,-0.329,0
-0.142,0.26,-0.143,0
-0.056,0.328,0.039,0
0.016,0.31,0.469,0
0.002,0.305,0.471,0
0.091,0.392,1.137,0
0.145,0.492,0.841,0
0.165,0.397,0.541,0
0.145,0.235,0.299,0
0.116,0.206,0.49,0
0.205,0.143,0.89,0
0.224,0.143,1.297,0
-0.108,0.243,1.756,0
-0.376,0.336,1.667,1
-0.401,0.324,0.793,1
-0.254,0.229,0.346,1
0.061,0.45,-0.383,1
0.357,0.589,-0.45,1
0.703,0.483,-0.145,1
0.663,0.326,0.364,1
0.257,0.203,1.122,1
-0.003,-0.038,1.618,1
-0.055,-0.482,2.101,1
0.038,-0.598,2.346,1
0.277,-0.783,2.781,1
0.391,-0.899,3.033,1
0.178,-1.147,3.46,1
-0.129,-1.301,3.266,1
-0.101,-1.278,3.257,1
-0.593,-1.199,0.972,1
-0.504,-0.916,-0.844,1
-0.413,-0.691,-1.57,1
-0.105,-0.43,-2.369,1
-0.002,-0.27,-2.563,1
0.12,-0.087,-2.034,0
0.216,-0.122,-1.526,0
0.143,-0.323,-0.944,0
-0.015,-0.476,-0.607,0
-0.029,-0.685,-0.22,0
0.002,-0.758,0.033,0
0.129,-0.752,0.211,0
0.247,-0.709,0.132,0
0.345,-0.625,-0.136,0
0.322,-0.622,-0.338,0
0.148,-0.543,-0.612,0
0.062,-0.484,-0.874,0
0.081,-0.484,-0.875,0
0.072,-0.171,-0.963,0
0.022,-0.012,-1.066,0
0.015,0.035,-1.248,0
-0.033,0.07,-1.575,0
-0.085,0.052,-1.561,0
-0.091,0.102,-1.46,0
-0.053,0.169,-1.401,0
0.143,0.328,-1.391,0
0.332,0.447,-1.339,0
0.358,0.525,-1.166,0
0.363,0.558,-1.063,0
0.402,0.632,-1.036,0
0.358,0.639,-0.838,0
0.114,0.583,-0.417,0
0.068,0.509,-0.08,0
-0.011,0.493,0.452,0
0.007,0.506,0.575,0
-0.003,0.532,0.683,0
0.074,0.567,0.661,0
0.307,0.697,0.432,0
0.432,0.739,0.216,0
0.447,0.704,0.173,0
0.382,0.629,0.367,0
0.179,0.516,1.035,0
0.004,0.442,1.363,0
0.016,0.429,1.367,0
0.011,0.194,1.991,1
0.02,0.168,2.001,1
0.262,0.281,1.47,1
0.271,0.238,1.487,1
-0.046,0.888,0.332,1
-0.14,1.116,-0.506,1
-0.014,1.06,-1.144,1
-0.089,1.123,-1.852,1
0.018,1.073,-1.793,1
0.28,0.621,-0.897,1
0.304,0.34,-0.033,1
0.031,-0.231,1.89,1
0.003,-0.567,2.78,1
-0.206,-0.983,4.157,1
-0.299,-1.195,4.738,1
-0.074,-1.412,4.817,1
0.074,-1.341,4.26,1
0.138,-1.225,2.739,1
0.086,-1.14,1.79,1
-0.227,-0.783,0.122,1
-0.455,-0.631,-0.837,1
-0.68,-0.615,-2.16,0
-0.741,-0.693,-2.786,0
-0.96,-0.615,-3.495,0
-0.958,-0.587,-3.418,0
-0.393,-0.461,-2.283,0
-0.088,-0.377,-1.464,0
0.147,-0.58,0,0
0.243,-0.748,0.54,0
0.079,-0.922,0.981,0
-0.094,-0.987,1.125,0
-0.236,-1.17,1.029,0
-0.282,-1.14,0.691,0
-0.352,-1.062,-0.206,0
-0.305,-0.979,-0.491,0
-0.303,-0.972,-0.493,0
-0.205,-0.513,-0.885,0
-0.136,-0.272,-1.278,0
-0.123,-0.163,-1.396,0
-0.123,-0.155,-1.399,0
0.064,0.131,-1.598,0
0.059,0.139,-1.601,0
0.227,0.245,-1.43,0
0.006,0.151,-1.205,0
-0.137,0.026,-0.902,0
-0.274,-0.077,-0.272,0
-0.33,-0.046,-0.082,0
-0.337,-0.014,-0.116,0
-0.302,0.03,-0.265,0
-0.389,0.073,-0.251,0
-0.354,0.123,-0.16,0
-0.149,0.265,-0.112,0
0.015,0.371,-0.148,0
0.176,0.436,-0.134,0
0.206,0.371,-0.251,0
0.291,0.384,-0.153,0
0.219,0.438,0.003,0
-0.047,0.261,0.16,0
-0.029,0.15,0.33,0
-0.033,0.147,0.331,0
0.198,0.139,0.842,0
0.299,0.074,1.077,0
0.366,0.05,1.168,0
0.576,0.159,1.301,0
0.785,0.282,1.242,1
0.774,0.262,1.249,1
0.626,0.409,0.995,1
0.16,0.554,0.659,1
0.104,0.452,0.396,1
0.312,0.283,0.22,1
0.442,0.293,0.378,1
0.819,0.375,0.824,1
1.018,0.327,1.222,1
0.91,-0.054,1.714,1
0.673,-0.201,2.033,1
0.202,-0.264,2.541,1
0.024,-0.379,2.447,1
-0.181,-0.54,1.918,1
-0.133,-0.548,1.471,1
0.135,-0.379,0.877,1
0.227,-0.215,0.643,1
0.023,-0.196,0.15,1
-0.235,-0.362,-0.092,1
-0.572,-0.604,-0.522,1
-0.673,-0.69,-0.664,1
-0.584,-0.715,-0.575,0
-0.482,-0.743,-0.338,0
-0.405,-0.847,0.082,0
-0.383,-0.954,0.196,0
-0.272,-1.04,0.283,0
-0.161,-1.043,0.162,0
-0.047,-0.973,-0.319,0
0.039,-0.893,-0.638,0
0.163,-0.758,-0.992,0
0.155,-0.704,-1.108,0
-0.115,-0.67,-1.042,0
-0.329,-0.747,-0.704,0
-0.429,-0.588,-0.426,0
-0.363,-0.435,-0.519,0
-0.367,-0.435,-0.519,0
0.066,0.077,-1.174,0
0.067,0.07,-1.171,0
0.256,0.409,-2.013,0
0.281,0.535,-2.239,0
0.216,0.535,-2.327,0
0.042,0.445,-2.236,0
-0.119,0.318,-1.953,0
-0.234,0.192,-1.279,0
-0.249,0.203,-0.824,0
-0.208,0.231,-0.238,0
-0.142,0.251,0.133,0
-0.036,0.349,0.492,0
-0.072,0.362,0.58,0
-0.068,0.452,0.484,0
-0.045,0.504,0.201,0
-0.124,0.472,-0.284,0
-0.116,0.539,-0.627,0
-0.198,0.66,-0.722,0
-0.298,0.61,-0.594,0
-0.286,0.604,-0.592,0
-0.331,0.536,0.362,0
-0.107,0.529,0.979,0
0.056,0.589,1.246,0
0.069,0.559,1.66,0
-0.015,0.449,1.79,0
-0.09,0.384,1.656,0
-0.089,0.37,1.509,1
-0.003,0.363,1.078,1
0.032,0.372,0.923,1
-0.149,0.659,0.654,1
-0.29,0.931,0.46,1
-0.296,1.286,-0.261,1
-0.131,1.228,-0.85,1
-0.127,1.183,-1.305,1
-0.14,1.093,-1.128,1
-0.1,0.4,0.107,1
-0.114,-0.015,1.115,1
-0.42,-0.351,2.858,1
-0.522,-0.561,3.475,1
-0.503,-0.809,3.952,1
-0.333,-0.765,3.907,1
0.017,-0.706,3.615,1
0.078,-0.683,3.247,1
-0.165,-0.614,2.113,1
-0.386,-0.621,1.316,1
-0.37,-0.635,1.321,1
-0.933,-0.723,-0.734,1
-1.061,-0.805,-1.526,0
-1.171,-0.885,-1.78,0
-1.256,-0.931,-2.048,0
-1.019,-0.947,-1.87,0
-1.04,-0.949,-1.869,0
-0.227,-0.925,-0.915,0
0.157,-0.852,-0.313,0
0.178,-0.909,-0.118,0
0.073,-1.004,-0.246,0
-0.008,-1.053,-0.562,0
-0.117,-1.138,-1.019,0
-0.084,-1.124,-1.188,0
0,-0.994,-1.047,0
-0.018,-0.99,-1.048,0
0.26,-0.63,-0.529,0
0.151,-0.526,-0.42,0
-0.08,-0.498,-0.519,0
-0.181,-0.467,-0.724,0
-0.256,-0.457,-1.033,0
-0.256,-0.438,-1.187,0
-0.226,-0.327,-1.391,0
-0.213,-0.327,-1.325,0
-0.146,-0.287,-1.203,0
-0.023,-0.153,-1.014,0
0.174,0.022,-0.768,0
0.238,0.143,-0.685,0
0.115,0.188,-0.653,0
-0.007,0.162,-0.698,0
-0.108,0.19,-0.851,0
-0.061,0.309,-0.827,0
0.061,0.405,-0.514,0
0.079,0.449,-0.322,0
0.052,0.518,-0.128,0
-0.035,0.552,-0.005,0
-0.017,0.585,0.212,0
-0.033,0.662,0.419,0
-0.093,0.649,0.884,0
-0.062,0.61,0.99,0
0.072,0.626,1.073,0
0.269,0.585,1.062,0
0.424,0.522,1.204,0
0.424,0.453,1.422,0
0.463,0.467,1.922,1
0.338,0.6,2.156,1
0.203,0.861,1.783,1
0.357,0.742,1.247,1
0.385,0.583,0.69,1
0.316,0.641,0.621,1
0.349,0.532,0.916,1
0.305,0.419,1.14,1
-0.147,0.373,1.441,1
-0.45,0.338,1.437,1
-0.425,0.361,1.427,1
-0.533,-0.386,1.538,1
-0.147,-0.79,2.865,1
-0.074,-0.888,3.543,1
-0.354,-1.181,4.223,1
-0.431,-1.292,3.866,1
-0.388,-1.098,2.036,1
-0.233,-0.951,0.6,1
0.163,-0.569,-1.559,1
0.342,-0.452,-2.363,1
0.21,-0.459,-2.958,1
0.107,-0.489,-2.829,0
0.17,-0.518,-1.982,0
0.427,-0.551,-1.305,0
0.576,-0.6,-0.546,0
0.54,-0.699,-0.23,0
0.426,-0.85,0.13,0
0.391,-0.851,0.238,0
0.278,-0.856,0.302,0
0.259,-0.857,0.297,0
0.24,-0.755,0.06,0
0.23,-0.704,-0.15,0
0.154,-0.605,-0.62,0
0.106,-0.542,-0.862,0
0.086,-0.437,-1.222,0
0.115,-0.354,-1.416,0
0.211,-0.187,-1.733,0
0.227,-0.128,-1.883,0
0.254,-0.059,-2.12,0
0.35,0.004,-2.243,0
0.57,0.17,-2.402,0
0.651,0.215,-2.08,0
0.587,0.215,-1.295,0
0.447,0.225,-0.906,0
0.165,0.179,-0.359,0
0.128,0.21,-0.22,0
0.146,0.384,-0.293,0
0.186,0.466,-0.443,0
0.387,0.535,-0.568,0
0.473,0.582,-0.461,0
0.465,0.569,-0.127,0
0.373,0.559,0.253,0
0.207,0.462,0.599,0
0.073,0.449,0.609,0
0.01,0.431,0.797,0
0.087,0.448,0.786,0
0.247,0.564,0.478,0
0.328,0.612,0.363,0
0.431,0.608,0.38,0
0.466,0.552,0.446,0
0.369,0.455,0.797,0
0.406,0.347,1.029,1
0.41,0.336,1.033,1
0.497,0.208,1.247,1
0.302,0.312,1.157,1
-0.057,0.573,0.948,1
-0.551,0.746,0.007,1
-0.495,0.66,-0.556,1
-0.429,0.854,-1.278,1
-0.317,0.876,-1.388,1
0.259,0.505,-0.652,1
0.5,0.293,0.298,1
0.362,-0.151,2.694,1
0.205,-0.527,3.79,1
-0.251,-0.989,5.104,1
-0.48,-1.143,5.501,1
-0.295,-1.274,4.961,1
-0.002,-1.136,3.559,1
0.311,-0.887,1.513,1
0.283,-0.727,0.603,1
-0.042,-0.683,-0.51,1
-0.197,-0.756,-1.005,1
-0.508,-0.892,-1.366,0
-0.606,-0.98,-1.367,0
-0.55,-1.044,-0.872,0
-0.36,-1.036,-0.428,0
-0.019,-0.944,0.095,0
0.154,-0.928,0.26,0
0.412,-0.975,0.245,0
0.445,-0.966,0.157,0
0.355,-0.979,-0.066,0
0.334,-0.997,-0.257,0
0.216,-0.937,-0.541,0
0.144,-0.952,-0.629,0
0.031,-0.912,-0.815,0
0.02,-0.82,-0.904,0
0.106,-0.632,-1.061,0
0.237,-0.47,-1.27,0
0.358,-0.238,-1.579,0
0.352,-0.074,-1.625,0
0.246,0.066,-1.674,0
0.201,0.147,-1.71,0
0.136,0.2,-1.507,0
0.058,0.268,-1.361,0
-0.109,0.225,-1.185,0
-0.235,0.144,-0.996,0
-0.378,0.075,-0.596,0
-0.321,0.154,-0.476,0
-0.186,0.27,-0.446,0
-0.16,0.334,-0.317,0
-0.155,0.425,-0.059,0
-0.163,0.465,0.033,0
-0.214,0.489,0.055,0
-0.202,0.544,-0.023,0
-0.176,0.58,0.147,0
-0.143,0.607,0.375,0
-0.06,0.646,0.752,0
-0.038,0.69,0.846,0
-0.058,0.641,0.806,0
-0.055,0.603,0.816,0
0.018,0.557,0.898,0
0.043,0.556,0.908,0
0.221,0.548,0.901,0
0.453,0.496,0.879,0
0.773,0.39,0.822,1
0.818,0.282,0.841,1
0.82,0.253,0.852,1
0.726,-0.109,0.982,1
0.16,0.063,1.112,1
-0.183,0.145,1.013,1
-0.266,0.156,0.3,1
-0.014,0.098,0.067,1
0.251,0.231,0.048,1
0.43,0.249,0.437,1
0.84,0.132,0.953,1
0.87,-0.052,1.264,1
0.861,-0.041,1.26,1
0.502,-0.779,2.31,1
0.028,-0.827,2.851,1
0.051,-0.755,2.84,1
0.345,-0.556,2.262,1
0.575,-0.35,1.555,1
0.921,-0.095,0.174,1
1.052,0.004,-0.669,1
0.807,-0.134,-1.342,1
0.609,-0.381,-1.248,0
0.327,-0.721,-0.645,0
0.205,-0.859,-0.258,0
0.12,-1.055,0.403,0
0.169,-1.101,0.667,0
0.379,-1.004,0.611,0
0.549,-0.935,0.3,0
0.794,-0.85,-0.307,0
0.797,-0.832,-0.667,0
0.672,-0.862,-0.984,0
0.635,-0.88,-1.106,0
0.49,-0.844,-1.041,0
0.424,-0.79,-0.939,0
0.35,-0.734,-0.932,0
0.268,-0.698,-0.856,0
0.313,-0.518,-0.901,0
0.459,-0.332,-1.084,0
0.46,-0.334,-1.083,0
0.777,0.107,-1.616,0
0.67,0.2,-1.807,0
0.476,0.189,-1.756,0
0.124,0.089,-1.564,0
0.002,0.091,-1.449,0
-0.248,0.003,-1.061,0
-0.316,-0.026,-0.829,0
-0.319,0.044,-0.577,0
-0.323,0.047,-0.456,0
-0.183,0.177,-0.314,0
-0.104,0.305,-0.412,0
0.068,0.45,-0.79,0
0.187,0.529,-0.853,0
0.06,0.546,-0.639,0
-0.123,0.442,-0.395,0
-0.38,0.367,-0.036,0
-0.508,0.345,0.079,0
-0.483,0.42,0.159,0
-0.456,0.515,0.117,0
-0.364,0.561,0.237,0
-0.266,0.579,0.257,0
-0.047,0.643,0.599,0
0.041,0.697,0.958,0
0.072,0.646,1.37,0
0.108,0.625,1.576,1
0.129,0.565,1.813,1
0.16,0.441,1.724,1
0.272,0.348,1.451,1
0.315,0.41,1.272,1
0.048,0.818,0.858,1
-0.017,0.98,0.363,1
0.264,1.046,-0.436,1
0.453,1.05,-0.866,1
0.472,1.076,-1.047,1
0.501,0.784,-0.62,1
0.6,0.057,0.658,1
0.383,-0.33,1.832,1
0.092,-0.846,3.378,1
-0.105,-1.085,4.032,1
-0.299,-1.333,4.389,1
-0.332,-1.305,3.862,1
-0.241,-1.2,2.33,1
-0.069,-1.094,1.275,1
-0.133,-0.917,-0.004,1
-0.366,-0.928,-0.5,1
-0.496,-0.975,-1.05,0
-0.609,-0.993,-1.199,0
-0.763,-1.006,-1.379,0
-0.713,-0.998,-1.325,0
-0.721,-0.983,-1.33,0
-0.498,-0.894,-0.742,0
-0.236,-0.845,-0.122,0
-0.158,-0.91,0.075,0
-0.107,-0.976,0.315,0
-0.064,-1.015,0.412,0
-0.077,-0.988,0.497,0
-0.167,-1.01,0.506,0
-0.165,-0.991,0.452,0
-0.08,-0.849,0.235,0
0.034,-0.603,-0.364,0
0.102,-0.47,-0.686,0
0.099,-0.46,-0.689,0
0.133,-0.228,-1.395,0
0.237,-0.053,-1.812,0
0.288,0.094,-1.992,0
0.386,0.242,-2.163,0
0.283,0.294,-2.17,0
-0.032,0.193,-1.802,0
-0.126,0.155,-1.481,0
-0.153,0.185,-0.922,0
-0.115,0.289,-0.615,0
-0.019,0.389,-0.067,0
-0.026,0.427,0.298,0
-0.164,0.5,0.45,0
-0.28,0.475,0.339,0
-0.351,0.398,0.187,0
-0.421,0.384,0.237,0
-0.399,0.44,0.302,0
-0.35,0.478,0.286,0
-0.383,0.537,0.37,0
-0.391,0.572,0.387,0
-0.43,0.552,0.326,0
-0.448,0.518,0.259,0
-0.372,0.534,0.078,0
-0.279,0.585,-0.009,0
-0.133,0.578,0.004,0
-0.156,0.545,0.07,0
-0.178,0.615,0.435,0
-0.162,0.574,0.684,0
-0.226,0.569,0.768,1
-0.288,0.529,0.867,1
-0.202,0.462,0.91,1
-0.148,0.419,0.821,1
-0.252,0.501,0.741,1
-0.377,0.711,0.721,1
-0.264,0.828,0.465,1
-0.109,0.752,0.199,1
0.25,0.737,-0.047,1
0.518,0.8,0.097,1
0.81,0.626,0.689,1
0.805,0.386,1.26,1
0.543,-0.077,2.417,1
0.277,-0.208,3.051,1
-0.1,-0.301,3.496,1
-0.124,-0.323,3.357,1
-0.098,-0.426,2.556,1
0.075,-0.384,1.879,1
0.382,-0.235,0.761,1
0.474,-0.243,0.21,1
0.486,-0.365,-0.57,1
0.531,-0.488,-1.026,0
0.411,-0.717,-1.421,0
0.324,-0.832,-1.441,0
0.352,-0.839,-1.438,0
0.164,-1.146,-0.455,0
0.072,-1.288,0.126,0
0.084,-1.352,0.228,0
0.109,-1.394,0.098,0
0.145,-1.335,-0.096,0
0.217,-1.262,-0.461,0
0.238,-1.218,-0.614,0
0.249,-1.21,-0.617,0
0.377,-0.957,-0.757,0
0.609,-0.605,-0.799,0
0.729,-0.411,-0.837,0
0.751,-0.167,-0.959,0
0.677,-0.08,-1.021,0
0.495,-0.031,-1.161,0
0.364,-0.005,-1.211,0
0.245,0.028,-1.245,0
0.227,0.047,-1.252,0
0.171,0.143,-1.18,0
0.165,0.177,-1.114,0
0.128,0.221,-1.003,0
0.113,0.255,-0.958,0
0.181,0.347,-0.862,0
0.173,0.363,-0.784,0
0.139,0.438,-0.701,0
0.169,0.469,-0.659,0
0.22,0.501,-0.465,0
0.211,0.52,-0.291,0
0.208,0.52,-0.291,0
0.179,0.492,-0.142,0
0.221,0.481,-0.16,0
0.202,0.483,-0.041,0
0.099,0.52,-0.005,0
0.079,0.507,-0.2,0
0.069,0.572,-0.385,0
0.065,0.567,-0.266,0
0.111,0.536,-0.089,0
0.091,0.536,0.013,0
0.066,0.509,0.387,0
0.041,0.443,0.718,0
-0.135,0.321,1.047,0
-0.085,0.254,1.279,1
-0.093,0.238,1.285,1
-0.111,0.278,1.548,1
-0.338,0.589,1.289,1
-0.619,0.817,0.878,1
-0.752,0.909,0.086,1
-0.516,0.968,-0.518,1
-0.011,1.201,-0.914,1
0.297,1.174,-0.713,1
0.822,0.898,0.021,1
0.897,0.645,0.945,1
0.597,0.089,2.821,1
0.474,-0.23,3.747,1
0.181,-0.676,4.777,1
-0.058,-0.933,5.128,1
-0.187,-1.244,5.032,1
-0.237,-1.27,4.276,1
-0.284,-1.311,2.466,1
-0.24,-1.224,1.252,1
-0.331,-0.795,-0.85,1
-0.397,-0.706,-1.938,1
-0.346,-0.521,-3.539,0
-0.238,-0.343,-4.188,0
-0.111,-0.02,-4.421,0
-0.216,-0.011,-3.94,0
-0.36,-0.266,-2.305,0
-0.515,-0.404,-1.309,0
-0.794,-0.865,0.089,0
-0.966,-1.152,0.684,0
-1.064,-1.274,1.198,0
-1.01,-1.301,1.427,0
-0.582,-1.191,1.477,0
-0.293,-0.998,1.396,0
-0.08,-0.786,1.037,0
-0.181,-0.817,0.753,0
-0.505,-0.855,0.291,0
-0.495,-0.855,0.291,0
-0.452,-0.721,-0.44,0
-0.349,-0.574,-0.767,0
-0.344,-0.585,-0.763,0
0.029,-0.304,-1.576,0
0.206,-0.236,-1.834,0
0.22,-0.245,-1.847,0
0.116,-0.203,-1.744,0
0.085,-0.205,-1.603,0
-0.014,-0.222,-1.211,0
-0.105,-0.262,-0.916,0
-0.188,-0.25,-0.53,0
-0.13,-0.15,-0.36,0
-0.148,-0.044,-0.289,0
-0.195,0.007,-0.404,0
-0.335,-0.026,-0.679,0
-0.453,0.041,-0.705,0
-0.521,0.079,-0.324,0
-0.482,0.12,0.042,0
-0.492,0.129,0.039,0
-0.606,0.232,0.903,0
-0.584,0.278,0.956,0
-0.485,0.369,0.844,0
-0.284,0.549,0.523,0
-0.185,0.553,0.406,0
-0.186,0.528,0.451,0
-0.192,0.495,0.493,0
-0.187,0.482,0.498,0
-0.317,0.36,0.431,0
-0.296,0.244,0.061,1
-0.289,0.243,-0.058,1
-0.259,0.31,-0.019,1
-0.321,0.525,-0.075,1
-0.695,0.986,-0.086,1
-0.822,1.131,-0.283,1
-0.761,1.229,-0.812,1
-0.603,1.195,-0.998,1
0.06,1.071,-0.788,1
0.511,0.893,-0.324,1
0.579,0.286,1.281,1
0.397,0.069,2.541,1
0.228,0.087,4.066,1
0.096,0.105,4.479,1
0.069,-0.25,4.547,1
0.095,-0.485,4.193,1
0.14,-0.772,3.19,1
0.159,-0.904,2.544,1
0.105,-1.138,1.871,1
0.025,-1.243,1.484,1
-0.098,-1.343,0.73,1
-0.168,-1.419,0.206,0
-0.148,-1.5,-0.652,0
-0.088,-1.514,-1.108,0
0.05,-1.399,-1.587,0
0.249,-1.353,-1.686,0
0.273,-1.356,-1.685,0
0.766,-1.067,-1.471,0
0.822,-1.057,-0.869,0
0.76,-1.059,-0.624,0
0.314,-1.161,-0.198,0
0.167,-1.204,-0.17,0
0.242,-1.103,-0.49,0
0.306,-0.995,-0.802,0
0.349,-0.759,-1.236,0
0.441,-0.554,-1.143,0
0.435,-0.546,-1.146,0
0.451,-0.211,-0.043,0
0.294,-0.128,0.315,0
0.285,-0.11,0.39,0
0.136,-0.149,0.215,0
0.065,-0.164,-0.113,0
0.218,-0.053,-0.711,0
0.374,0.024,-1.028,0
0.501,0.078,-1.14,0
0.481,0.101,-1.036,0
0.367,0.041,-0.809,0
0.248,0.013,-0.702,0
0.028,-0.002,-0.724,0
-0.003,0.024,-0.922,0
0.01,0.104,-0.755,0
-0.036,0.204,-0.473,0
-0.097,0.342,-0.425,0
-0.103,0.472,-0.399,0
-0.112,0.549,-0.221,0
-0.021,0.623,-0.189,0
0.052,0.74,-0.11,0
0.058,0.792,0.024,0
0.089,0.839,0.164,0
0.074,0.794,0.284,0
0.071,0.762,0.256,0
0.217,0.764,0.335,0
0.297,0.807,0.672,0
0.232,0.691,0.747,0
0.176,0.592,0.812,0
0.212,0.535,0.951,0
0.258,0.431,1.154,1
0.315,0.37,1.259,1
0.323,0.313,1.193,1
0.346,0.263,0.975,1
0.342,0.098,0.691,1
0.418,-0.01,0.501,1
0.654,0.121,0.266,1
0.588,0.288,0.125,1
0.366,0.72,-0.363,1
0.329,0.876,-0.789,1
0.398,1.073,-1.747,1
0.32,1.172,-2.24,1
0.406,1.133,-2.444,1
0.545,0.913,-2.086,1
0.676,0.315,-0.503,1
0.572,0.071,0.717,1
0.426,-0.431,2.587,1
0.373,-0.636,3.272,1
0.167,-0.918,4.049,1
0.062,-1.029,4.078,1
0.051,-1.165,3.48,1
-0.007,-1.196,2.818,0
-0.071,-1.15,1.605,0
-0.062,-1.023,0.714,0
-0.049,-0.814,-0.484,0
-0.023,-0.739,-1.254,0
0.011,-0.659,-2.142,0
0.029,-0.585,-2.49,0
0.22,-0.454,-2.656,0
0.355,-0.461,-2.491,0
0.323,-0.534,-1.977,0
0.289,-0.664,-1.457,0
0.181,-0.887,-0.363,0
0.151,-0.882,0.076,0
0.126,-0.842,0.36,0
0.049,-0.86,0.261,0
-0.055,-0.812,-0.294,0
-0.104,-0.702,-0.637,0
-0.111,-0.527,-0.92,0
-0.079,-0.384,-0.965,0
-0.039,-0.154,-0.932,0
0.094,0.055,-0.844,0
0.276,0.238,-0.569,0
0.309,0.311,-0.427,0
0.121,0.31,-0.385,0
0.082,0.293,-0.372,0
0.013,0.238,-0.254,0
-0.087,0.16,-0.179,0
-0.153,0.18,-0.382,0
-0.127,0.217,-0.555,0
-0.006,0.285,-0.753,0
0.059,0.364,-0.801,0
0.036,0.426,-0.827,0
0.018,0.479,-0.917,0
0.162,0.558,-0.817,0
0.162,0.588,-0.708,0
-0.029,0.538,-0.501,0
-0.01,0.58,-0.348,0
0.081,0.653,0.061,0
0.147,0.74,0.219,0
0.177,0.778,0.092,0
0.153,0.746,-0.038,0
0.019,0.824,-0.141,0
0.074,0.883,-0.215,0
0.102,0.97,-0.113,0
0.12,1.006,0.045,0
0.147,0.995,0.362,0
0.184,0.927,0.622,1
0.318,0.852,1.215,1
0.317,0.746,1.791,1
0.349,0.55,2.239,1
0.377,0.417,2.248,1
0.286,0.197,1.72,1
0.255,0.108,1.236,1
0.273,0.089,1.242,1
0.011,0.632,0.169,1
-0.013,0.832,-0.63,1
0.197,0.886,-0.913,1
0.336,1.071,-0.802,1
0.561,1.162,-0.472,1
0.868,0.978,0.098,1
0.743,0.458,0.852,1
0.555,-0.425,2.328,1
0.331,-0.757,3.176,1
-0.182,-1.076,4.078,1
-0.269,-1.047,4.484,1
0.237,-0.715,4.092,1
0.807,-0.233,2.702,1
1.116,0.246,0.423,0
1.203,0.602,-1.271,0
0.949,0.756,-3.056,0
0.783,0.652,-3.651,0
0.59,0.324,-3.587,0
0.364,0.098,-2.963,0
0.106,-0.222,-1.588,0
0.183,-0.546,-0.568,0
0.188,-0.828,0.428,0
0.141,-0.922,1.123,0
0.201,-1.105,1.854,0
0.19,-1.127,2.061,0
-0.024,-1.122,1.596,0
-0.101,-1.039,0.918,0
-0.022,-0.829,-0.378,0
0.11,-0.599,-1.1,0
0.328,-0.218,-1.819,0
0.391,-0.029,-1.969,0
0.49,0.186,-1.996,0
0.618,0.354,-1.992,0
0.781,0.568,-1.992,0
0.784,0.629,-1.982,0
0.822,0.753,-1.941,0
0.754,0.734,-1.762,0
0.574,0.651,-1.312,0
0.485,0.647,-1.01,0
0.436,0.665,-0.702,0
0.44,0.671,-0.523,0
0.519,0.756,-0.317,0
0.635,0.838,-0.059,0
0.666,0.944,0.165,0
0.617,0.929,0.355,0
0.481,0.913,0.827,0
0.508,0.906,0.943,0
0.416,0.937,0.893,0
0.322,0.93,0.613,0
0.275,1.022,0.106,0
0.316,1.085,-0.109,0
0.41,1.057,0.045,0
0.389,1.012,0.369,0
0.302,0.865,1.055,0
0.319,0.736,1.478,0
0.427,0.632,1.978,0
0.51,0.531,1.993,1
0.514,0.512,2,1
0.793,0.627,1.373,1
0.455,1.074,0.827,1
0.143,1.323,0.018,1
0.027,1.336,-1.033,1
0.187,1.56,-1.822,1
0.458,1.79,-2.112,1
0.794,1.731,-1.764,1
1.086,1.393,-0.76,1
1.078,0.918,0.434,1
0.991,0.112,1.916,1
0.853,-0.348,2.763,1
0.679,-0.613,3.965,1
0.33,-0.58,4.169,1
-0.359,-0.652,2.629,1
-0.632,-0.723,1.063,1
-0.777,-0.443,-1.198,1
-0.954,-0.432,-2.1,1
-1.205,-0.54,-2.631,1
-1.192,-0.546,-2.418,1
-0.719,-0.637,-1.411,0
-0.298,-0.601,-0.465,0
0.057,-0.704,0.592,0
0.292,-0.736,0.895,0
0.355,-0.693,0.685,0
0.335,-0.724,0.018,0
0.222,-0.76,-1.141,0
0.044,-0.704,-1.87,0
-0.255,-0.683,-2.362,0
-0.41,-0.656,-2.474,0
-0.521,-0.522,-2.335,0
-0.471,-0.415,-2.126,0
-0.609,-0.336,-1.746,0
-0.749,-0.319,-1.593,0
-0.835,-0.231,-1.423,0
-0.786,-0.144,-1.469,0
-0.607,0.003,-1.618,0
-0.38,0.153,-1.742,0
-0.037,0.316,-1.595,0
0.257,0.406,-1.306,0
0.424,0.56,-0.826,0
0.444,0.568,-0.194,0
0.479,0.529,0.462,0
0.347,0.482,0.719,0
0.015,0.551,1.086,0
-0.027,0.593,1.189,0
0.013,0.73,1.11,0
0.004,0.808,0.854,0
0.23,0.827,0.491,0
0.384,0.761,0.561,0
0.545,0.799,0.89,0
0.635,0.736,1.198,0
0.644,0.697,1.701,0
0.278,1.003,1.693,0
-0.411,1.504,0.901,0
-0.423,1.409,0.129,0
0.314,1.164,-1.005,0
1.038,1.012,-1.415,0
1.693,0.303,0.251,1
1.677,-0.455,2.602,1
0.403,-1.154,5.881,1
0.04,-1.125,7.392,1
0.35,-1.062,7.235,1
0.164,-0.78,5.458,1
0.037,-0.625,2.607,1
0.225,-0.319,0.594,1
0.333,-0.208,-1.578,1
0.211,-0.371,-2.373,1
0.031,-0.575,-2.626,1
0.177,-0.676,-2.272,1
0.611,-0.757,-0.779,1
0.81,-0.753,0.489,1
1.205,-0.769,1.625,1
1.173,-0.796,2.113,1
0.856,-0.73,2.134,1
0.6,-0.696,1.296,1
0.485,-0.581,-0.264,1
0.535,-0.367,-1.269,1
0.543,-0.126,-2.474,1
0.204,-0.224,-3.048,0
-0.254,-0.343,-3.297,0
-0.392,-0.352,-3.164,0
-0.308,-0.171,-2.751,0
-0.113,0.003,-2.402,0
0.07,0.203,-2.12,0
0.111,0.279,-1.977,0
0.093,0.343,-1.677,0
0.168,0.436,-1.664,0
0.331,0.591,-1.544,0
0.276,0.554,-1.42,0
-0.132,0.321,-1.28,0
-0.397,0.141,-1.151,0
-0.463,0.116,-0.976,0
-0.281,0.189,-0.704,0
-0.072,0.41,-0.274,0
-0.136,0.542,0.081,0
-0.157,0.605,0.643,0
-0.147,0.604,1.201,0
-0.002,0.527,2.041,0
0.108,0.445,2.587,0
0.157,0.354,2.913,0
0.083,0.296,2.804,0
0.026,0.203,2.02,0
0.018,0.228,1.286,0
-0.672,0.808,0.368,0
-1.238,1.399,-0.316,0
-1.312,1.933,-2.006,0
-0.782,2.016,-2.98,0
0.085,1.926,-3.894,0
0.706,1.728,-3.969,0
1.493,0.886,-1.851,1
1.564,-0.405,1.799,1
0.539,-2.1,6.909,1
-0.395,-2.666,10.212,1
-1.585,-2.757,12.29,1
-1.588,-2.555,10.269,1
-0.903,-1.783,5.464,1
-0.784,-1.11,1.855,1
-0.807,-0.899,-2.164,1
-0.928,-0.786,-4.357,1
-1.137,-0.663,-5.978,1
-1.109,-0.756,-6.102,1
-1.025,-1.057,-4.215,1
-0.562,-1.049,-2.873,1
0.022,-1.162,-0.704,1
0.122,-1.261,0.371,1
0.171,-1.127,1.066,1
0.232,-0.94,0.679,1
0.186,-0.916,-0.882,1
0.246,-0.877,-2.062,1
0.181,-0.657,-3.563,1
-0.098,-0.544,-4.238,0
-0.28,-0.496,-4.242,0
-0.276,-0.355,-3.674,0
-0.186,-0.06,-2.851,0
-0.291,-0.033,-2.129,0
-0.38,0.034,-1.498,0
-0.516,0.126,-0.971,0
-0.485,0.113,-0.798,0
-0.472,0.063,-0.889,0
-0.456,0.085,-1.069,0
-0.344,0.083,-1.062,0
-0.295,0.191,-0.846,0
-0.362,0.365,-0.449,0
-0.423,0.368,0.131,0
-0.622,0.292,0.423,0
-0.875,0.482,0.764,0
-0.753,0.548,0.859,0
-0.463,0.614,0.927,0
-0.393,0.718,1.136,0
-0.264,0.754,1.58,0
-0.092,0.74,1.91,0
0.23,0.76,2.157,0
0.319,0.789,2.324,0
-0.055,0.973,2.358,0
-0.553,1.448,1.748,0
-0.396,1.376,0.62,0
0.297,1.295,-0.134,0
1.321,1.463,-0.821,0
1.594,1.148,0.164,0
1.563,1.192,0.151,1
0.439,-0.725,5.179,1
-0.267,-0.834,6.84,1
-0.639,-1.002,6.85,1
-0.594,-1.022,4.635,1
-0.292,-0.741,2.414,1
0.102,-0.288,-0.006,1
-0.035,-0.372,-1.162,1
-0.433,-0.694,-1.684,1
-0.645,-0.99,-1.229,1
-0.541,-1.224,-0.116,1
-0.418,-1.284,0.898,1
-0.293,-1.438,2.066,1
-0.099,-1.387,2.612,1
0.111,-1.136,2.158,1
0.181,-0.966,1.228,1
0.368,-0.762,-0.749,1
0.549,-0.483,-1.957,1
0.695,-0.157,-3.509,1
0.773,-0.034,-4.128,1
0.705,0.157,-4.388,1
0.529,0.14,-4.204,0
0.256,0.156,-3.396,0
0.205,0.231,-2.851,0
0.158,0.218,-2.275,0
0.122,0.187,-1.995,0
-0.003,0.316,-1.365,0
-0.009,0.374,-1.147,0
0.068,0.484,-1.121,0
0.012,0.436,-0.993,0
0.042,0.41,-0.933,0
0.126,0.348,-0.833,0
0.254,0.351,-0.427,0
0.314,0.282,-0.169,0
0.34,0.253,0.01,0
0.141,0.237,0.302,0
-0.235,0.19,0.724,0
-0.481,0.251,0.867,0
-0.655,0.331,1.032,0
-0.55,0.404,1.103,0
-0.435,0.573,1.229,0
-0.318,0.601,1.421,0
-0.124,0.667,1.697,0
-0.048,0.659,1.925,0
-0.102,0.89,1.807,0
-0.498,1.451,1.204,0
-0.969,1.824,-0.114,0
-0.768,1.791,-1.123,0
-0.185,1.883,-1.999,0
0.092,1.846,-2.428,0
0.086,1.839,-2.425,1
1.272,0.338,-0.099,1
1.248,-1.237,4.408,1
1.065,-1.935,6.896,1
-0.149,-2.436,9.486,1
-0.604,-2.477,9.206,1
-0.744,-2.109,5.644,1
-0.548,-1.56,2.227,1
-0.791,-1.369,-1.646,1
-1.003,-1.242,-3.786,1
-1.247,-0.861,-5.229,1
-1.23,-0.76,-5.35,1
-0.71,-0.735,-3.79,1
-0.21,-0.645,-2.031,1
0.349,-0.871,0.095,1
0.486,-0.921,1.13,1
0.46,-0.848,1.836,1
0.567,-0.833,1.503,1
0.385,-0.893,0.145,1
0.272,-0.891,-0.976,1
-0.082,-0.753,-2.5,1
-0.243,-0.677,-3.112,0
-0.274,-0.567,-3.328,0
-0.2,-0.365,-3.014,0
-0.083,-0.132,-2.264,0
-0.023,0.017,-1.791,0
0.044,0.103,-1.38,0
0.073,0.176,-1.198,0
0.006,0.212,-1.252,0
-0.104,0.136,-1.395,0
-0.07,0.013,-1.503,0
0.002,0.074,-1.352,0
0.141,0.161,-1.058,0
0.148,0.143,-0.802,0
0.138,0.136,-0.8,0
-0.25,0.025,0.311,0
-0.476,0.091,0.758,0
-0.553,0.079,0.93,0
-0.329,0.145,1.189,0
0.01,0.2,1.398,0
0.392,0.186,1.718,0
0.621,0.218,2.268,0
0.574,0.194,2.278,0
0.946,0.44,3.784,0
0.736,0.434,3.319,0
0.195,0.619,2.646,0
-0.474,1.081,1.037,0
0.005,1.115,-0.295,0
0.905,1.243,-1.556,0
1.228,1.309,-1.792,0
1.789,0.946,-0.706,1
1.474,0.488,0.972,1
0.404,-0.384,3.135,1
0.049,-0.841,4.068,1
-0.279,-0.98,4.952,1
-0.442,-0.842,5.066,1
-0.126,-0.555,4.376,1
0.15,-0.423,3.139,1
0.096,-0.355,1.231,1
0.181,-0.348,-0.114,1
0.334,-0.409,-1.105,1
0.408,-0.763,-1.453,1
0.613,-1.078,-1.402,1
0.824,-1.142,-1.022,1
1.223,-1.182,-0.15,1
1.451,-1.161,0.224,1
1.468,-1.053,0.305,1
1.33,-1.028,-0.15,1
0.944,-1.024,-1.191,1
0.719,-0.881,-1.873,1
0.66,-0.573,-2.745,1
0.468,-0.529,-3.332,0
0.147,-0.324,-3.99,0
0.137,-0.18,-4.286,0
-0.062,-0.082,-4.278,0
-0.246,-0.03,-3.746,0
-0.329,0.063,-2.943,0
-0.432,0.111,-2.158,0
-0.526,0.169,-1.546,0
-0.437,0.291,-1.369,0
-0.115,0.404,-1.278,0
0.058,0.408,-1.014,0
0.097,0.462,-0.398,0
0.088,0.441,-0.14,0
0.052,0.429,-0.136,0
0.242,0.545,0.782,0
0.226,0.542,0.783,0
0.104,0.255,1.647,0
-0.12,0.408,2.197,0
-0.279,0.395,2.437,0
-0.149,0.418,2.239,0
-0.045,0.453,1.919,0
-0.03,0.411,1.934,0
0.504,0.418,1.132,0
0.524,0.459,1.252,0
0.683,0.462,1.468,0
0.605,0.537,1.574,0
0.047,0.98,1.321,0
-0.336,1.557,0.098,0
-0.14,1.544,-0.778,0
0.291,1.724,-1.912,1
0.574,1.672,-2.115,1
0.628,0.855,-1.574,1
0.599,0.038,-0.242,1
0.701,-1.064,2.459,1
0.474,-1.75,4.451,1
0.12,-2.101,6.708,1
-0.037,-1.908,7.538,1
0.177,-1.491,5.877,1
0.175,-1.26,3.705,1
0.29,-0.668,-0.018,1
0.078,-0.586,-1.805,1
-0.327,-0.762,-3.411,1
-0.444,-0.949,-3.919,1
-0.299,-1.245,-3.509,1
-0.07,-1.374,-2.405,1
0.319,-1.503,0.203,1
0.577,-1.506,1.315,1
0.659,-1.254,1.992,1
0.733,-1.036,1.762,1
0.852,-0.987,0.409,1
0.637,-1.011,-0.821,0
0.192,-0.94,-2.269,0
-0.029,-0.922,-2.846,0
-0.156,-0.87,-3.071,0
-0.152,-0.873,-3.07,0
-0.081,-0.44,-2.664,0
0.134,-0.191,-2.448,0
0.468,0.223,-2.198,0
0.459,0.381,-2.087,0
0.473,0.454,-1.93,0
0.418,0.465,-1.628,0
0.22,0.312,-1.121,0
0.225,0.169,-0.838,0
0.264,0.136,-0.711,0
0.261,0.162,-0.754,0
0.232,0.144,-0.793,0
0.128,0.139,-0.722,0
0.126,0.144,-0.724,0
-0.332,-0.003,0.33,0
-0.6,0.013,0.839,0
-0.595,0.107,1.316,0
-0.27,0.395,1.686,0
-0.046,0.493,1.528,0
0.195,0.399,1.039,0
0.325,0.371,1.051,0
0.613,0.487,1.488,0
0.665,0.642,1.881,0
0.786,0.681,2.086,0
0.476,0.88,2.167,0
-0.507,1.421,1.87,0
-0.546,1.356,1.354,1
0.39,1.156,0.596,1
0.926,1.203,0.525,1
1.537,0.812,0.983,1
1.765,0.415,1.733,1
1.149,-0.109,3.672,1
0.521,-0.243,4.348,1
0.272,-0.329,3.928,1
0.145,-0.421,2.868,1
0.09,-0.381,1.088,1
0.254,-0.208,0.046,1
0.115,-0.303,-0.656,1
-0.141,-0.618,-0.815,1
-0.536,-1.026,-0.792,1
-0.669,-1.31,-0.698,1
-0.548,-1.559,-0.47,1
-0.266,-1.627,-0.065,1
0.294,-1.542,0.728,1
0.773,-1.326,1.251,1
0.834,-1.157,1.445,1
0.715,-1.073,1.199,1
0.261,-1.122,0.41,0
-0.01,-1.089,-0.197,0
-0.326,-0.91,-1.134,0
-0.2,-0.736,-1.716,0
0.045,-0.351,-2.368,0
0.218,-0.055,-2.764,0
0.401,0.266,-3.199,0
0.408,0.241,-3.19,0
0.486,0.614,-3.511,0
0.415,0.692,-3.422,0
0.08,0.742,-2.984,0
-0.231,0.639,-2.502,0
-0.22,0.582,-1.616,0
-0.057,0.669,-1.095,0
0.001,0.635,-0.799,0
0.128,0.602,-0.697,0
0.293,0.63,-0.235,0
0.38,0.612,0.025,0
0.346,0.596,0.031,0
0.325,0.473,0.583,0
-0.124,0.223,0.852,0
-0.447,0.238,1.009,0
-0.711,0.206,0.97,0
-0.701,0.253,0.884,0
-0.505,0.41,0.758,0
-0.384,0.464,0.763,0
-0.282,0.424,0.989,0
-0.247,0.407,1.368,0
0.037,0.42,2.107,0
0.383,0.251,2.648,0
0.343,0.232,3.414,0
-0.28,0.793,3.28,0
-1.017,1.38,1.867,1
-0.828,1.286,0.187,1
-0.275,1.245,-1.853,1
-0.035,1.154,-2.451,1
0.022,0.879,-1.785,1
-0.004,0.87,-1.782,1
0.015,-0.451,2.044,1
0.182,-0.892,3.441,1
0.059,-0.842,4.673,1
0.086,-0.61,4.772,1
0.259,-0.372,3.134,1
-0.006,-0.351,1.133,1
-0.379,-0.144,-1.154,1
-0.61,-0.224,-1.766,1
-0.989,-0.501,-2.306,1
-1.131,-0.655,-2.164,1
-0.797,-0.978,-1.471,1
-0.569,-1.187,-0.615,1
-0.211,-1.291,0.407,1
0.204,-1.222,0.848,1
0.551,-1.048,0.752,1
0.507,-0.981,0.134,0
0.357,-1.013,-1.109,0
0.373,-0.986,-2.17,0
0.182,-0.814,-2.996,0
0.098,-0.928,-3.155,0
-0.159,-0.987,-3.384,0
-0.573,-0.898,-3.211,0
-0.69,-0.755,-2.544,0
-0.452,-0.491,-1.972,0
-0.231,-0.082,-1.46,0
-0.149,0.11,-1.24,0
-0.031,0.277,-1.056,0
-0.216,0.327,-1.089,0
-0.283,0.286,-1.208,0
-0.241,0.247,-1.044,0
-0.188,0.395,-0.431,0
-0.147,0.476,0.105,0
-0.091,0.448,0.625,0
-0.341,0.392,0.967,0
-0.615,0.171,1.602,0
-0.449,0.171,2.069,0
-0.382,0.104,2.672,0
-0.276,0.141,2.674,0
0.002,0.067,2.213,0
0.108,-0.041,1.83,0
0.224,-0.11,1.884,0
0.383,-0.021,1.991,0
0.553,0.269,1.652,0
0.451,0.626,1.415,0
0.147,1.442,0.597,1
0.409,1.553,-0.345,1
0.947,1.35,-1.386,1
1.099,1.179,-1.527,1
1.487,0.732,-0.263,1
1.563,0.135,1.276,1
0.712,-0.483,3.876,1
0.453,-0.644,4.719,1
0.308,-0.571,4.904,1
0.222,-0.367,4.081,1
0.123,-0.146,1.762,1
0.185,0.143,-0.035,1
0.184,0.372,-1.408,1
0.069,0.121,-1.702,1
-0.152,-0.327,-1.283,1
-0.206,-0.64,-0.357,1
-0.232,-1.089,1.232,1
-0.05,-1.277,2.058,1
0.261,-1.374,2.895,1
0.328,-1.355,2.824,1
0.576,-1.163,2.038,1
0.728,-1.057,0.904,0
0.694,-0.987,-0.657,0
0.758,-0.829,-1.84,0
0.825,-0.502,-2.932,0
0.862,-0.399,-3.461,0
0.758,-0.19,-4.067,0
0.583,-0.106,-4.103,0
0.249,-0.159,-3.647,0
0.128,-0.16,-3.198,0
0.219,0.006,-2.819,0
0.368,0.191,-2.58,0
0.604,0.341,-2.345,0
0.743,0.435,-2.214,0
0.753,0.525,-1.778,0
0.627,0.456,-1.446,0
0.267,0.167,-0.841,0
0.101,-0.009,-0.356,0
0.126,-0.136,0.165,0
0.187,-0.142,0.628,0
0.032,-0.232,1.397,0
-0.127,-0.225,1.798,0
-0.24,-0.003,1.783,0
-0.23,0.064,1.634,0
-0.253,0.169,1.452,0
-0.218,0.272,1.341,0
-0.174,0.291,1.254,0
-0.16,0.264,1.264,0
0.051,0.355,1.507,0
0.195,0.219,1.622,0
0.2,0.194,1.631,0
0.405,-0.024,1.93,0
0.011,0.552,1.823,0
-0.261,0.974,1.212,0
-0.207,1.151,-0.104,1
0.146,1.244,-1.115,1
0.251,1.302,-2.024,1
0.259,0.903,-1.788,1
0.241,0.109,-0.108,1
-0.061,-0.421,1.859,1
-0.189,-1.102,3.503,1
-0.273,-1.324,4.011,1
-0.575,-1.314,3.903,1
-0.668,-1.19,2.872,1
-0.527,-0.877,0.933,1
-0.455,-0.494,-0.509,1
-0.398,-0.198,-1.758,1
-0.363,-0.189,-2.202,1
-0.36,-0.266,-2.145,1
-0.187,-0.419,-1.608,1
0.264,-0.603,-0.288,1
0.373,-0.885,0.727,1
0.565,-1.261,2.036,1
0.455,-1.341,2.562,1
0.216,-1.5,2.314,1
0.083,-1.565,1.473,0
0.001,-1.5,0.111,0
0.195,-1.303,-0.935,0
0.285,-0.944,-2.138,0
0.329,-0.812,-2.608,0
0.201,-0.707,-3.13,0
0.02,-0.628,-3.21,0
0.067,-0.474,-2.886,0
0.241,-0.317,-2.604,0
0.313,-0.126,-2.189,0
0.326,-0.025,-1.884,0
0.28,0.075,-1.663,0
0.201,0.137,-1.447,0
0.116,0.172,-1.132,0
0.06,0.186,-1.016,0
-0.111,0.126,-1.087,0
-0.197,0.092,-1.146,0
-0.336,0.124,-0.833,0
-0.368,0.144,-0.505,0
-0.204,0.161,-0.442,0
-0.089,0.256,-0.434,0
-0.257,0.304,0.028,0
-0.342,0.272,0.311,0
-0.356,0.373,0.701,0
-0.359,0.473,0.861,0
-0.279,0.382,0.955,0
-0.144,0.339,1.087,0
-0.15,0.33,1.09,0
0.158,0.308,1.798,0
0.033,0.68,2.224,0
-0.18,1.116,2.094,0
-0.127,1.305,0.809,0
0.069,1.171,0.039,0
0.383,0.985,-0.335,0
0.328,0.686,0.342,0
0.254,0.209,1.958,1
0.124,-0.259,3.562,1
0.088,-0.932,4.952,1
-0.195,-1.396,5.794,1
-0.72,-1.942,6.901,1
-0.934,-2.002,7.043,1
-0.834,-1.768,5.887,1
-0.483,-1.522,4.109,1
0.114,-1.005,1.518,1
0.52,-0.686,-0.244,1
0.926,-0.539,-2.186,1
1.114,-0.382,-3.175,1
1.142,-0.414,-3.164,1
1.648,-0.02,-2.962,1
1.749,-0.152,-1.485,1
1.445,-0.375,-0.772,1
0.865,-0.88,0.396,1
0.503,-1.117,1.03,1
0.06,-1.185,1.142,1
-0.172,-1.15,0.676,1
-0.134,-1.034,-0.413,1
-0.01,-0.817,-1.282,0
0.086,-0.566,-2.231,0
0.139,-0.517,-2.531,0
0.274,-0.381,-2.467,0
0.392,-0.293,-2.127,0
0.43,-0.225,-1.635,0
0.365,-0.197,-1.366,0
0.233,-0.212,-1.324,0
0.214,-0.136,-1.493,0
0.167,-0.078,-1.836,0
0.161,-0.038,-2.012,0
0.175,0.118,-2.096,0
0.18,0.194,-2.063,0
0.189,0.208,-1.814,0
0.202,0.252,-1.684,0
0.21,0.252,-1.485,0
0.103,0.214,-1.139,0
0.057,0.103,-0.564,0
0.046,0.1,-0.224,0
-0.041,0.185,0.459,0
-0.125,0.182,0.618,0
-0.17,0.326,0.453,0
-0.052,0.492,0.219,0
0.128,0.707,-0.127,0
0.212,0.841,-0.045,0
0.186,0.897,0.326,0
0.118,0.908,0.728,0
0.098,0.801,1.224,0
0.209,0.712,1.475,0
0.421,0.473,1.861,0
0.56,0.289,2.057,0
0.703,0.186,2.16,0
0.561,0.293,2.102,0
-0.049,0.872,1.385,1
-0.421,1.231,0.338,1
-0.205,1.329,-1.148,1
-0.098,1.548,-2.026,1
-0.202,1.701,-2.364,1
-0.012,1.479,-2.083,1
0.486,1.09,-0.76,1
0.525,0.747,0.58,1
0.6,-0.117,2.287,1
0.604,-0.635,3.305,1
0.183,-0.993,4.456,1
0.07,-1.119,4.789,1
0.602,-0.779,3.877,1
0.659,-0.333,2.212,1
0.091,-0.419,-0.005,1
-0.194,-0.421,-0.789,1
-0.606,-0.382,-1.151,1
-0.835,-0.643,-1.162,1
-1.073,-1.009,-0.557,1
-0.924,-1.175,0.257,1
-0.679,-1.411,1.2,1
-0.534,-1.547,1.773,0
-0.141,-1.513,1.996,0
0.122,-1.367,1.763,0
0.441,-1.132,0.732,0
0.564,-1.002,-0.39,0
0.58,-0.744,-1.795,0
0.482,-0.704,-2.469,0
0.432,-0.657,-2.847,0
0.449,-0.583,-2.986,0
0.541,-0.428,-3.09,0
0.439,-0.329,-2.959,0
0.164,-0.243,-2.5,0
0.06,-0.204,-2.147,0
0.041,-0.075,-1.711,0
0.134,0.011,-1.62,0
0.375,0.133,-1.578,0
0.524,0.267,-1.426,0
0.425,0.267,-1.329,0
0.314,0.168,-1.2,0
-0.001,0.132,-0.749,0
-0.142,0.122,-0.439,0
-0.437,0.011,-0.216,0
-0.604,0.082,0.014,0
-0.582,0.189,0.193,0
-0.403,0.359,0.138,0
-0.259,0.561,0.09,0
-0.268,0.689,0.099,0
-0.328,0.738,-0.037,0
-0.335,0.679,-0.089,0
-0.381,0.676,0.091,0
-0.271,0.676,0.329,0
0.16,0.592,1.107,0
0.182,0.516,1.547,0
0.234,0.428,1.809,0
0.25,0.221,2.106,0
0.066,0.347,2.387,0
-0.261,0.812,2.274,1
-0.254,0.798,2.279,1
-0.135,0.918,0.726,1
0.148,1.044,0.08,1
0.418,1.104,0.242,1
0.977,0.647,0.932,1
1.11,0.262,1.692,1
0.621,-0.156,3.347,1
0.202,-0.323,4.221,1
-0.18,-0.499,4.46,1
-0.61,-0.597,3.924,1
-0.965,-0.75,2.361,1
-0.792,-0.57,1.157,1
-0.568,-0.319,-0.456,1
-0.425,-0.376,-1.4,1
-0.302,-0.565,-2.049,1
-0.414,-0.705,-2.087,1
-0.438,-1.012,-1.518,1
-0.321,-1.11,-0.635,1
-0.276,-1.357,0.848,1
-0.198,-1.377,1.623,1
-0.252,-1.324,2.449,0
-0.377,-1.276,2.285,0
-0.406,-1.209,1.098,0
-0.228,-0.981,-0.018,0
0.227,-0.637,-1.552,0
0.271,-0.409,-2.434,0
0.288,-0.158,-3.077,0
0.522,0.056,-3.28,0
0.709,0.262,-2.836,0
0.646,0.331,-2.401,0
0.323,0.235,-1.915,0
-0.044,-0.028,-1.765,0
-0.317,-0.144,-1.651,0
-0.366,-0.085,-1.784,0
-0.145,0.041,-2.115,0
-0.006,0.144,-2.071,0
-0.008,0.197,-1.605,0
-0.048,0.226,-1.306,0
-0.119,0.308,-1.008,0
-0.077,0.371,-0.906,0
-0.137,0.263,-0.666,0
-0.246,0.174,-0.567,0
-0.382,0.174,-0.474,0
-0.515,0.175,-0.3,0
-0.549,0.195,-0.066,0
-0.398,0.327,0.123,0
-0.127,0.559,0.315,0
0.011,0.711,0.479,0
0.061,0.765,0.903,0
0.118,0.749,1.064,0
0.045,0.655,1.267,0
-0.012,0.611,1.655,0
0.04,0.567,1.978,0
0.154,0.49,2.047,0
0.261,0.334,2.043,0
0.313,0.292,1.983,0
0.213,0.42,2.051,1
-0.145,0.77,1.881,1
-0.705,1.39,1.017,1
-0.746,1.501,0.047,1
-0.572,1.517,-1.089,1
-0.526,1.672,-1.71,1
-0.039,1.668,-2.045,1
0.444,1.26,-1.407,1
0.433,0.55,0.478,1
0.13,-0.126,1.977,1
-0.106,-0.853,3.935,1
-0.485,-1.199,4.949,1
-1.007,-1.47,5.291,1
-1.205,-1.464,4.421,1
-1.227,-1.222,2.297,1
-1.011,-0.959,0.606,1
-1.057,-0.811,-1.193,1
-1.285,-0.941,-1.958,1
-1.49,-0.98,-2.46,1
-1.256,-0.816,-2.22,1
-0.608,-0.688,-1.334,1
-0.129,-0.629,-0.5,0
0.294,-0.765,0.568,0
0.504,-0.814,1.061,0
0.491,-0.925,1.421,0
0.363,-0.996,1.299,0
0.086,-1.143,0.552,0
-0.062,-1.139,-0.282,0
-0.12,-1.051,-1.241,0
-0.11,-0.899,-1.618,0
-0.127,-0.674,-1.938,0
-0.124,-0.567,-2.146,0
-0.112,-0.574,-2.144,0
-0.215,-0.282,-2.336,0
-0.051,-0.051,-2.398,0
-0.004,0.021,-2.348,0
-0.13,0.099,-1.884,0
-0.241,0.1,-1.416,0
-0.375,0.025,-0.704,0
-0.533,-0.039,-0.322,0
-0.599,-0.098,-0.069,0
-0.664,-0.128,0.037,0
-0.699,-0.083,-0.041,0
-0.709,-0.011,-0.195,0
-0.611,0.119,-0.536,0
-0.521,0.21,-0.703,0
-0.39,0.266,-0.718,0
-0.344,0.323,-0.486,0
-0.23,0.473,0.054,0
-0.152,0.55,0.456,0
-0.273,0.579,0.567,0
-0.463,0.535,0.494,0
-0.555,0.4,0.261,0
-0.561,0.338,0.267,0
-0.415,0.296,0.614,0
-0.114,0.33,0.901,0
0.275,0.415,1.03,0
0.635,0.538,1.288,0
0.622,0.652,1.749,0
0.224,0.843,1.859,1
-0.11,0.903,1.293,1
-0.005,0.748,0.802,1
0.348,0.69,0.283,1
0.594,0.752,0.467,1
1.021,0.591,1.313,1
0.986,0.305,2.039,1
0.456,-0.04,2.698,1
0.341,-0.323,3.086,1
0.39,-0.414,3.133,1
0.282,-0.445,3.007,1
0.32,-0.417,2.267,1
0.308,-0.287,1.568,1
0.172,-0.25,0.301,1
0.067,-0.27,-0.454,1
-0.114,-0.435,-0.922,1
-0.143,-0.62,-1.115,1
-0.212,-0.687,-1.099,1
-0.142,-0.665,-0.858,1
0.234,-0.675,-0.187,1
0.43,-0.656,0.225,1
0.417,-0.714,0.485,0
0.335,-0.766,0.413,0
0.239,-0.871,0.107,0
0.296,-0.786,-0.342,0
0.466,-0.588,-1.09,0
0.547,-0.438,-1.619,0
0.509,-0.282,-2.216,0
0.446,-0.161,-2.447,0
0.337,0.033,-2.765,0
0.313,0.095,-2.907,0
0.058,0.069,-2.665,0
-0.059,0.022,-2.413,0
-0.074,0.104,-2.201,0
-0.051,0.184,-1.909,0
-0.049,0.196,-1.914,0
0.112,0.481,-0.921,0
0.21,0.555,-0.517,0
0.155,0.591,-0.396,0
0.088,0.568,-0.307,0
0.066,0.488,-0.343,0
-0.036,0.421,-0.283,0
-0.087,0.34,-0.256,0
-0.155,0.162,-0.271,0
-0.216,0.08,-0.188,0
-0.111,0.259,0.014,0
0.008,0.418,-0.04,0
0.087,0.673,-0.215,0
-0.018,0.678,-0.296,0
-0.11,0.603,-0.314,0
-0.158,0.581,0.044,0
-0.082,0.611,0.822,0
-0.035,0.603,1.355,0
-0.005,0.523,1.871,0
0.118,0.399,2.297,0
0.384,0.272,2.928,0
0.355,0.26,3.073,0
-0.042,0.534,2.532,1
-0.43,0.867,1.529,1
-0.446,0.996,-0.038,1
-0.277,1.021,-0.964,1
0.022,1.152,-1.549,1
0.33,1.169,-1.422,1
0.676,0.823,0.066,1
0.656,0.453,1.352,1
0.477,-0.499,3.43,1
0.258,-0.923,4.437,1
-0.105,-1.384,5.853,1
-0.109,-1.438,5.934,1
-0.166,-1.295,4.367,1
-0.251,-1.095,2.307,1
-0.183,-0.562,-0.761,1
-0.25,-0.498,-2.237,1
-0.751,-0.62,-4.089,1
-1.013,-0.575,-4.524,1
-1.038,-0.381,-4.108,1
-0.783,-0.328,-2.805,1
-0.273,-0.359,-1.082,1
-0.14,-0.577,0.151,0
0.039,-0.854,1.25,0
-0.015,-0.959,1.77,0
-0.196,-1.111,1.82,0
-0.331,-1.222,1.405,0
-0.439,-1.28,0.203,0
-0.384,-1.159,-0.569,0
-0.096,-0.863,-1.527,0
0.058,-0.691,-1.903,0
0.083,-0.558,-2.01,0
0.005,-0.447,-1.988,0
-0.058,-0.334,-2.003,0
-0.078,-0.272,-2.116,0
0.005,-0.138,-2.331,0
0.003,-0.083,-2.362,0
-0.135,-0.082,-2.171,0
-0.202,-0.066,-1.883,0
-0.243,-0.019,-1.523,0
-0.226,0.031,-1.303,0
-0.097,0.145,-1.101,0
-0.095,0.188,-1.01,0
-0.211,0.242,-0.799,0
-0.257,0.228,-0.59,0
-0.276,0.172,-0.035,0
-0.271,0.185,0.35,0
-0.221,0.231,0.996,0
-0.164,0.3,1.336,0
-0.031,0.35,1.333,0
0.023,0.439,1.046,0
0.003,0.456,0.571,0
-0.023,0.44,0.393,0
0.052,0.508,0.278,0
0.169,0.483,0.433,0
0.324,0.54,0.789,0
0.417,0.573,0.97,0
0.448,0.492,1.166,0
0.254,0.653,1.358,1
0.222,0.978,1.518,1
0.426,0.907,1.447,1
0.482,0.651,1.583,1
0.406,0.535,1.885,1
0.344,0.342,2.524,1
0.396,0.133,2.855,1
0.47,-0.326,3.357,1
0.309,-0.415,3.647,1
-0.018,-0.439,3.595,1
-0.098,-0.479,3.02,1
-0.149,-0.46,1.662,1
-0.16,-0.421,0.912,1
-0.059,-0.172,-0.219,1
0.024,0.009,-0.776,1
0.131,-0.099,-1.317,1
0.147,-0.284,-1.388,1
0.184,-0.491,-1.172,1
0.161,-0.625,-0.919,1
0.172,-0.625,-0.919,1
0.155,-1.011,-0.156,1
-0.048,-1.402,0.258,0
-0.191,-1.573,0.431,0
-0.082,-1.586,0.566,0
0.115,-1.507,0.561,0
0.32,-1.352,0.385,0
0.413,-1.186,0.109,0
0.416,-0.939,-0.464,0
0.391,-0.764,-0.956,0
0.271,-0.552,-1.418,0
0.28,-0.454,-1.604,0
0.419,-0.122,-2.001,0
0.478,0,-2.174,0
0.521,0.198,-2.328,0
0.545,0.301,-2.202,0
0.533,0.372,-1.912,0
0.473,0.412,-1.639,0
0.474,0.415,-1.64,0
0.19,0.308,-1.057,0
0.032,0.292,-0.62,0
-0.017,0.308,-0.461,0
0.004,0.416,-0.436,0
0.084,0.529,-0.563,0
0.184,0.638,-0.902,0
0.146,0.678,-1.038,0
0.134,0.662,-1.085,0
0.122,0.681,-1.009,0
-0.076,0.628,-0.775,0
-0.197,0.59,-0.622,0
-0.334,0.528,-0.17,0
-0.378,0.589,-0.075,0
-0.226,0.594,-0.121,0
-0.18,0.531,0.102,0
-0.209,0.55,0.46,0
-0.076,0.464,0.531,0
-0.043,0.363,0.818,0
0.058,0.315,1.15,0
0.054,0.299,1.156,0
0.327,0.136,2.045,0
0.315,0.142,2.551,1
0.168,0.356,2.639,1
0.032,0.833,1.798,1
0.14,0.906,0.855,1
0.399,1.03,-0.251,1
0.398,1.177,-0.755,1
0.413,1.144,-0.655,1
0.555,1.007,-0.323,1
0.499,0.597,0.324,1
0.515,0.145,0.841,1
0.65,-0.635,2.105,1
0.489,-1.117,3.226,1
0.095,-1.571,4.337,1
-0.021,-1.716,4.543,1
-0.219,-1.645,3.775,1
-0.301,-1.432,2.251,1
-0.146,-1.084,0.015,1
0.013,-0.701,-1.219,1
-0.217,-0.54,-2.152,1
-0.425,-0.643,-2.536,1
-0.595,-0.447,-2.398,1
-0.517,-0.418,-1.749,0
-0.209,-0.554,-0.787,0
0.038,-0.579,-0.187,0
0.402,-0.731,0.595,0
0.534,-0.77,0.909,0
0.665,-0.741,1.204,0
0.662,-0.745,1.193,0
0.64,-0.724,1.186,0
0.401,-0.653,-0.178,0
0.268,-0.539,-1.179,0
0.345,-0.417,-1.599,0
0.407,-0.135,-1.984,0
0.347,-0.049,-2.081,0
0.266,-0.045,-1.979,0
0.251,0.026,-1.874,0
0.298,0.125,-1.651,0
0.414,0.193,-1.432,0
0.405,0.204,-1.435,0
0.313,0.22,-0.61,0
0.076,0.156,-0.373,0
-0.107,0.04,-0.209,0
-0.292,0.041,-0.375,0
-0.38,0.117,-0.584,0
-0.408,0.228,-0.725,0
-0.434,0.259,-0.709,0
-0.47,0.357,-0.613,0
-0.457,0.455,-0.387,0
-0.31,0.521,0.132,0
-0.196,0.594,0.425,0
-0.104,0.673,0.716,0
-0.022,0.702,0.842,0
0.022,0.613,0.807,0
-0.066,0.481,0.811,0
-0.115,0.407,0.889,0
-0.182,0.354,1.01,0
-0.209,0.263,1.038,0
-0.184,0.246,0.886,0
-0.12,0.173,0.655,0
0.002,0.111,0.539,0
0.004,0.313,0.556,1
-0.252,0.553,0.624,1
-0.245,0.524,0.635,1
-0.108,0.719,-0.238,1
0.381,0.732,-0.344,1
0.596,0.711,0.026,1
0.632,0.548,1.033,1
0.639,0.401,1.704,1
0.44,0.199,2.408,1
0.317,0.004,2.736,1
0.159,-0.409,3.077,1
-0.029,-0.693,3.302,1
-0.318,-1.062,3.646,1
-0.494,-1.211,3.557,1
-0.624,-1.244,2.676,1
-0.458,-1.038,1.448,1
0.001,-0.669,-0.14,1
0.553,-0.268,-1.339,1
1.157,0.079,-2.785,1
1.308,0.189,-3.341,1
1.111,0.231,-3.283,1
0.889,0.007,-2.723,0
0.683,-0.326,-1.551,0
0.544,-0.593,-0.565,0
0.308,-0.849,0.471,0
0.264,-0.91,0.782,0
0.142,-0.993,0.829,0
-0.002,-1.058,0.654,0
-0.039,-1.019,0.175,0
0.117,-0.875,-0.217,0
0.556,-0.557,-0.813,0
0.586,-0.391,-1.039,0
0.624,-0.258,-1.17,0
0.524,-0.215,-1.198,0
0.251,-0.247,-1.293,0
0.078,-0.271,-1.397,0
-0.055,-0.187,-1.584,0
-0.047,-0.157,-1.677,0
0.08,0.087,-1.929,0
0.116,0.218,-2.064,0
0.315,0.404,-2.09,0
0.451,0.521,-1.871,0
0.556,0.627,-1.367,0
0.522,0.67,-0.939,0
0.291,0.629,-0.329,0
0.059,0.549,-0.024,0
-0.077,0.442,0.367,0
-0.105,0.451,0.461,0
-0.069,0.469,0.437,0
-0.031,0.527,0.405,0
0.065,0.586,0.252,0
0.102,0.645,0.309,0
0.111,0.699,0.38,0
0.156,0.704,0.486,0
0.036,0.62,0.83,0
-0.056,0.61,0.956,0
-0.115,0.583,1.232,0
-0.087,0.574,1.438,0
0.145,0.648,1.56,0
0.273,0.659,1.453,0
0.327,0.781,1.101,1
0.155,1.082,0.738,1
0.054,1.334,-0.086,1
0.274,1.276,-0.569,1
0.287,1.25,-0.558,1
0.427,1.311,-0.626,1
0.329,1.04,0.407,1
0.257,0.601,1.305,1
-0.133,0.134,2.329,1
-0.269,-0.312,2.902,1
-0.333,-0.842,3.384,1
-0.381,-1.082,3.661,1
-0.107,-1.227,3.563,1
0.047,-1.177,3.141,1
0.017,-0.877,1.709,1
-0.104,-0.762,0.794,1
-0.028,-0.483,-0.767,1
-0.215,-0.461,-1.709,1
-0.547,-0.586,-2.799,1
-0.684,-0.559,-3.041,1
-0.709,-0.653,-2.569,1
-0.517,-0.716,-1.87,0
-0.259,-0.858,-0.468,0
-0.253,-1.041,0.336,0
-0.198,-1.258,1.08,0
-0.175,-1.261,1.237,0
-0.155,-1.231,1.025,0
-0.141,-1.163,0.466,0
-0.047,-0.922,-0.538,0
0.111,-0.751,-1.252,0
0.325,-0.507,-1.792,0
0.301,-0.388,-1.923,0
0.255,-0.236,-1.987,0
0.177,-0.253,-1.826,0
-0.016,-0.287,-1.448,0
-0.162,-0.246,-1.173,0
-0.171,-0.159,-0.951,0
-0.071,-0.066,-0.857,0
0.086,0.187,-0.875,0
0.115,0.328,-0.95,0
0.109,0.44,-1.106,0
0.099,0.501,-1.253,0
-0.049,0.516,-1.308,0
-0.068,0.502,-1.225,0
-0.074,0.526,-1.07,0
-0.136,0.521,-0.862,0
-0.163,0.405,-0.472,0
-0.175,0.371,-0.223,0
-0.098,0.348,0.165,0
-0.057,0.425,0.519,0
0.038,0.519,0.777,0
0.001,0.533,0.776,0
0.018,0.567,0.588,0
0.125,0.522,0.372,0
0.064,0.495,0.227,0
0.027,0.499,0.288,0
0.153,0.481,0.561,0
0.29,0.477,0.786,0
0.416,0.321,1.132,0
0.394,0.198,1.346,0
0.014,0.35,1.668,1
-0.118,0.622,1.731,1
0.32,0.565,1.258,1
0.65,0.47,0.846,1
0.918,0.566,0.572,1
1.115,0.603,0.781,1
1.214,0.482,1.382,1
1.095,0.412,1.663,1
0.551,0.507,1.825,1
0.315,0.491,1.477,1
0.234,0.274,0.759,1
0.122,0.115,0.457,1
-0.045,-0.032,0.537,1
-0.12,-0.119,0.872,1
-0.264,-0.236,1.138,1
-0.404,-0.373,1.016,1
-0.615,-0.525,0.365,1
-0.607,-0.561,0.009,1
-0.579,-0.621,-0.383,1
-0.637,-0.674,-0.624,1
-0.615,-0.808,-0.568,1
-0.557,-0.916,-0.279,0
-0.32,-0.877,0.114,0
-0.248,-0.822,0.226,0
-0.319,-0.932,0.331,0
-0.404,-1.027,0.36,0
-0.45,-0.966,0.208,0
-0.384,-0.834,-0.052,0
-0.218,-0.614,-0.575,0
-0.087,-0.379,-0.974,0
0.12,-0.027,-1.476,0
0.22,0.146,-1.677,0
0.234,0.322,-1.811,0
0.137,0.371,-1.814,0
-0.146,0.335,-1.834,0
-0.266,0.34,-1.879,0
-0.265,0.332,-1.876,0
-0.125,0.487,-1.536,0
-0.089,0.505,-1.302,0
-0.129,0.426,-1.109,0
-0.204,0.284,-0.898,0
-0.259,0.244,-0.723,0
-0.124,0.246,-0.493,0
-0.149,0.226,-0.544,0
-0.151,0.19,-0.359,0
-0.172,0.205,-0.257,0
-0.164,0.244,-0.131,0
-0.149,0.287,-0.09,0
-0.108,0.419,-0.288,0
-0.117,0.444,-0.497,0
-0.103,0.426,-0.49,0
-0.048,0.404,-0.66,0
-0.028,0.317,-0.368,0
-0.081,0.213,0.055,0
-0.06,0.116,0.642,0
0.025,0.06,0.887,0
0.123,0.027,1.177,0
0.211,0.038,1.431,0
0.473,0.183,2.033,0
0.371,0.613,2.125,0
0.071,1.316,1.141,0
0.057,1.428,0.221,0
0.079,1.399,0.234,1
0.527,1.565,-1.819,1
0.527,1.441,-1.582,1
0.578,1.101,-0.513,1
0.369,0.468,1.544,1
0.334,-0.09,2.553,1
0.154,-0.951,4.05,1
-0.019,-1.222,5.033,1
-0.081,-1.415,5.819,1
-0.173,-1.274,5.321,1
-0.404,-0.97,2.762,1
-0.31,-0.782,0.6,1
-0.273,-0.398,-1.576,1
-0.54,-0.506,-2.782,1
-0.979,-0.7,-3.399,1
-1.118,-0.753,-3.149,1
-0.942,-0.699,-1.914,1
-0.632,-0.633,-0.988,1
-0.029,-0.707,0.167,1
0.189,-0.816,0.58,1
0.359,-0.829,0.743,1
0.442,-0.789,0.587,0
0.433,-0.845,0.035,0
0.307,-0.854,-0.453,0
-0.08,-0.883,-1.074,0
-0.267,-0.922,-1.233,0
-0.401,-0.878,-1.277,0
-0.485,-0.812,-1.169,0
-0.547,-0.599,-0.917,0
-0.453,-0.384,-0.895,0
-0.459,-0.371,-0.899,0
-0.137,0.167,-1.368,0
0.008,0.4,-1.568,0
0.064,0.515,-1.613,0
-0.038,0.525,-1.342,0
-0.125,0.454,-1.113,0
-0.364,0.339,-0.586,0
-0.418,0.282,-0.27,0
-0.335,0.376,0.025,0
-0.271,0.445,0.19,0
-0.232,0.516,0.224,0
-0.163,0.608,0.168,0
-0.012,0.681,0.198,0
0.031,0.763,0.304,0
0.055,0.856,0.418,0
0.031,0.833,0.357,0
-0.08,0.8,0.106,0
-0.127,0.69,-0.065,0
-0.16,0.511,-0.091,0
-0.164,0.532,0.115,0
-0.003,0.449,0.75,0
0.19,0.42,1.259,0
0.173,0.411,1.263,0
0.253,0.383,1.668,0
0.166,0.827,1.638,0
0.118,1.077,1.321,0
0.423,0.913,0.333,1
0.708,0.795,-0.152,1
0.756,0.804,-0.019,1
0.719,0.688,0.421,1
0.544,0.307,1.463,1
0.553,0.338,1.452,1
-0.257,-0.118,2.96,1
-0.331,-0.123,3.085,1
0.161,-0.031,2.866,1
0.443,0.144,2.318,1
0.672,0.214,1.594,1
0.626,0.197,1.077,1
0.394,0.095,0.607,1
0.224,-0.08,0.425,1
0.096,-0.302,0.244,1
0.134,-0.393,0.183,1
0.165,-0.397,0.184,1
0.223,-0.578,0.034,1
0.203,-0.758,-0.26,1
0.252,-0.934,-0.488,1
0.222,-1.105,-0.775,1
0.218,-1.141,-0.788,0
0.219,-1.207,-0.348,0
0.218,-1.188,-0.1,0
0.01,-1.168,-0.007,0
-0.065,-1.144,-0.109,0
-0.004,-0.973,-0.395,0
0.133,-0.727,-0.845,0
0.311,-0.403,-1.491,0
0.344,-0.32,-1.866,0
0.269,-0.292,-2.347,0
0.269,-0.178,-2.746,0
0.36,0.002,-3.012,0
0.415,0.063,-3.046,0
0.474,0.187,-2.747,0
0.397,0.198,-2.499,0
0.247,0.084,-1.797,0
0.086,0.048,-1.429,0
-0.043,0.025,-0.782,0
-0.052,0.052,-0.534,0
0.08,0.13,-0.347,0
0.175,0.255,-0.362,0
0.347,0.417,-0.504,0
0.351,0.448,-0.61,0
0.138,0.425,-0.544,0
-0.042,0.356,-0.378,0
-0.339,0.286,-0.088,0
-0.369,0.318,0.114,0
-0.291,0.429,0.058,0
-0.266,0.407,0.002,0
-0.157,0.499,0.201,0
-0.006,0.607,0.424,0
0.142,0.762,0.999,0
0.174,0.742,1.323,0
0.306,0.653,1.416,0
0.303,0.553,1.535,0
0.415,0.573,1.773,0
0.305,0.822,1.777,0
-0.032,1.523,1.067,1
0.009,1.602,0.21,1
0.265,1.538,-1.024,1
0.203,1.606,-1.286,1
0.025,1.21,-0.821,1
-0.051,0.597,0.269,1
-0.119,-0.011,2.182,1
-0.104,-0.587,3.638,1
-0.051,-1.119,5.462,1
0.035,-1.173,6.202,1
0.305,-0.958,6.108,1
0.458,-0.57,4.961,1
0.448,-0.268,1.961,1
0.589,-0.063,-0.255,1
0.263,0.073,-2.273,1
-0.157,-0.185,-3.071,1
-0.73,-0.58,-2.875,1
-0.895,-0.791,-2.012,1
-0.729,-1.063,-0.402,1
-0.434,-1.084,0.256,1
0.094,-1.146,1.075,1
0.299,-1.107,1.172,0
0.346,-1.084,0.751,0
0.244,-1.107,0.127,0
0.055,-1.151,-0.78,0
-0.051,-1.09,-1.327,0
-0.094,-0.928,-1.951,0
-0.185,-0.806,-2.161,0
-0.172,-0.706,-2.294,0
-0.116,-0.611,-2.265,0
0.045,-0.337,-2.044,0
0.099,-0.227,-1.8,0
0.367,-0.035,-1.811,0
0.363,0.15,-1.894,0
0.289,0.211,-1.883,0
0.226,0.204,-1.77,0
0.028,0.162,-1.343,0
-0.081,0.155,-1.019,0
-0.14,0.201,-0.616,0
-0.102,0.271,-0.441,0
0.076,0.383,-0.117,0
0.181,0.48,0.002,0
0.294,0.558,0.128,0
0.376,0.589,0.176,0
0.393,0.575,0.196,0
0.226,0.569,0.255,0
0.067,0.464,0.405,0
0.105,0.446,0.367,0
0.331,0.541,-0.009,0
0.447,0.583,-0.247,0
0.511,0.588,-0.375,0
0.564,0.58,-0.307,0
0.556,0.561,-0.299,0
0.449,0.562,0.504,0
0.389,0.478,0.967,0
0.392,0.344,1.17,0
0.235,0.438,1.233,0
-0.042,0.709,1.027,1
0.064,0.855,0.095,1
0.474,0.675,-0.533,1
1.053,0.808,-0.756,1
1.38,0.908,-0.163,1
1.418,0.606,1.096,1
1.177,0.333,2.04,1
0.355,0.089,3.225,1
0.298,0.101,3.506,1
0.304,0.023,3.187,1
0.286,-0.041,2.535,1
0.277,-0.036,1.626,1
0.297,-0.007,0.96,1
0.254,0.03,0.218,1
0.229,0.022,-0.177,1
0.05,-0.168,-0.597,1
-0.179,-0.327,-0.739,1
-0.49,-0.634,-0.592,1
-0.691,-0.793,-0.272,1
-0.721,-0.904,-0.078,1
-0.489,-0.901,-0.188,1
-0.098,-0.813,-0.374,0
0.14,-0.688,-0.419,0
0.23,-0.709,-0.355,0
0.186,-0.773,-0.227,0
0.116,-0.687,-0.188,0
0.182,-0.568,-0.223,0
0.277,-0.357,-0.442,0
0.321,-0.213,-0.744,0
0.329,-0.218,-0.743,0
0.426,0.066,-1.52,0
0.415,0.19,-1.809,0
0.465,0.266,-1.938,0
0.626,0.407,-1.833,0
0.67,0.492,-1.676,0
0.496,0.501,-1.445,0
0.287,0.401,-1.224,0
0.035,0.239,-0.833,0
-0.021,0.268,-0.691,0
0.053,0.337,-0.596,0
0.178,0.39,-0.595,0
0.288,0.452,-0.499,0
0.328,0.482,-0.519,0
0.382,0.542,-0.573,0
0.394,0.505,-0.456,0
0.464,0.503,-0.123,0
0.478,0.607,0.019,0
0.354,0.686,0.052,0
0.185,0.594,0.098,0
0.005,0.494,0.2,0
-0.025,0.444,0.261,0
0.025,0.427,0.46,0
0.126,0.47,0.611,0
0.19,0.494,1.159,0
0.143,0.423,1.481,0
0.057,0.358,1.903,0
-0.07,0.503,2.01,0
-0.359,1.148,1.251,0
-0.441,1.497,0.164,1
0.026,1.504,-1.133,1
0.299,1.693,-1.543,1
0.651,1.612,-0.855,1
0.731,1.229,0.303,1
0.428,0.512,2.475,1
0.183,-0.196,3.688,1
-0.198,-1.157,5.026,1
-0.438,-1.452,5.718,1
-0.434,-1.47,6.051,1
-0.194,-1.298,5.524,1
-0.178,-0.925,3.117,1
-0.267,-0.597,0.841,1
-0.309,-0.301,-1.844,1
-0.551,-0.454,-3.061,1
-1.126,-0.522,-4,1
-1.343,-0.524,-3.742,1
-1.268,-0.576,-2.307,1
-0.898,-0.588,-1.066,1
-0.431,-0.806,0.424,1
-0.161,-0.919,0.968,1
-0.159,-0.957,1.373,0
-0.195,-1.081,1.421,0
-0.24,-1.207,0.942,0
-0.376,-1.166,0.244,0
-0.363,-1.116,-0.784,0
-0.258,-0.993,-1.413,0
-0.122,-0.75,-1.977,0
-0.098,-0.593,-1.931,0
0.02,-0.397,-1.623,0
0.053,-0.273,-1.5,0
-0.126,-0.127,-1.472,0
-0.236,-0.125,-1.58,0
-0.464,-0.142,-1.877,0
-0.571,-0.138,-2.11,0
-0.57,-0.083,-2.145,0
-0.526,0.047,-1.985,0
-0.54,0.05,-1.986,0
-0.197,0.243,-1.241,0
-0.215,0.194,-0.69,0
-0.232,0.195,-0.502,0
-0.243,0.176,-0.304,0
-0.227,0.199,-0.111,0
-0.211,0.205,0.091,0
-0.308,0.169,0.156,0
-0.454,0.253,0.233,0
-0.471,0.351,0.208,0
-0.566,0.477,0.148,0
-0.682,0.516,0.087,0
-0.652,0.547,0.165,0
-0.516,0.597,0.338,0
-0.227,0.629,0.81,0
-0.019,0.716,1.306,0
0.299,0.826,1.724,0
0.257,0.924,1.657,0
-0.537,1.24,1.21,0
-0.975,1.349,0.623,0
-0.508,1.13,-0.176,1
-0.299,0.986,-0.592,1
-0.443,0.689,-0.853,1
-0.436,0.381,0.058,1
-0.078,0.118,2.002,1
-0.182,-0.125,3.7,1
-0.138,-0.398,4.999,1
0.063,-0.489,5.371,1
0.258,-0.497,4.612,1
0.569,-0.466,3.2,1
0.708,-0.362,1.123,1
0.752,-0.274,0.086,1
0.442,-0.306,-1.025,1
0.335,-0.512,-1.279,1
0.221,-0.682,-1.157,1
0.249,-0.653,-0.777,1
0.466,-0.596,-0.267,1
0.749,-0.535,-0.063,1
0.752,-0.53,-0.065,1
0.975,-0.571,-0.253,1
1.011,-0.606,-0.472,1
0.864,-0.645,-0.511,0
0.609,-0.748,-0.529,0
0.486,-0.727,-0.645,0
0.337,-0.682,-0.97,0
0.23,-0.657,-1.326,0
0.308,-0.592,-1.901,0
0.198,-0.555,-2.013,0
0.209,-0.438,-1.836,0
0.256,-0.294,-1.621,0
0.228,-0.11,-1.332,0
0.19,-0.053,-1.253,0
0.076,-0.047,-1.239,0
-0.086,-0.025,-1.31,0
-0.224,-0.076,-1.257,0
-0.114,-0.024,-1.031,0
0.111,0.205,-0.704,0
0.236,0.334,-0.592,0
0.377,0.43,-0.467,0
0.303,0.437,-0.422,0
0.235,0.416,-0.365,0
0.224,0.405,-0.36,0
0.099,0.351,-0.35,0
0.074,0.306,-0.284,0
-0.002,0.265,-0.139,0
-0.049,0.329,-0.133,0
0.127,0.447,-0.264,0
0.138,0.468,-0.1,0
0.029,0.466,0.166,0
0.032,0.492,0.23,0
0.108,0.625,0.595,0
0.277,0.703,0.895,0
0.497,0.704,1.266,0
0.651,0.671,1.468,0
0.832,0.52,1.66,0
0.814,0.387,1.815,0
0.527,0.603,1.917,1
0.127,0.991,1.418,1
-0.106,1.109,0.104,1
-0.08,0.98,-0.788,1
-0.062,0.948,-0.775,1
-0.109,1.235,-1.989,1
-0.025,0.758,-1.448,1
-0.017,0.156,-0.183,1
-0.076,-0.256,2.263,1
0.141,-0.526,3.693,1
0.574,-0.719,4.647,1
0.564,-0.528,4.881,1
0.537,-0.316,3.974,1
0.365,-0.234,2.303,1
-0.113,-0.157,0.257,1
-0.345,-0.102,-0.818,1
-0.744,-0.281,-1.66,1
-1,-0.346,-1.755,1
-0.989,-0.289,-1.25,1
-0.806,-0.419,-0.657,1
-0.424,-0.54,0.187,1
-0.149,-0.613,0.665,0
0.08,-0.8,1.217,0
0.249,-0.883,1.329,0
0.341,-0.874,0.992,0
0.294,-0.905,0.52,0
0.295,-0.897,0.517,0
0.37,-0.773,-1.158,0
0.585,-0.529,-2.005,0
0.472,-0.504,-2.4,0
0.233,-0.554,-2.832,0
0.105,-0.494,-2.856,0
0.109,-0.322,-2.527,0
0.258,-0.107,-2.237,0
0.406,0.077,-1.796,0
0.228,0.125,-1.526,0
-0.133,0.077,-1.318,0
-0.324,-0.043,-1.312,0
-0.479,-0.019,-1.235,0
-0.431,0.122,-1.135,0
-0.203,0.283,-1.13,0
-0.118,0.352,-1.054,0
-0.198,0.408,-0.691,0
-0.252,0.372,-0.39,0
0.035,0.255,0.09,0
0.073,0.334,0.582,0
0.032,0.337,1.176,0
-0.136,0.22,1.476,0
-0.544,-0.051,1.91,0
-0.622,-0.109,1.712,0
-0.616,-0.126,1.718,0
-0.254,0.18,0.197,0
-0.255,0.141,0.212,0
0.339,0.57,-0.323,0
0.39,0.485,0.085,0
0.322,0.45,0.576,0
0.139,0.903,1.178,0
0.129,1.035,1.175,0
0.398,0.817,0.647,0
0.481,0.642,0.406,1
0.426,0.53,0.597,1
0.425,0.42,1.086,1
0.132,0.365,1.92,1
-0.125,0.31,2.185,1
0.055,0.027,2.162,1
0.359,-0.163,2.192,1
0.433,-0.418,2.658,1
0.284,-0.578,3.222,1
-0.087,-0.795,3.537,1
-0.294,-0.814,2.999,1
-0.459,-0.683,1.386,1
-0.28,-0.607,0.399,1
0.191,-0.286,-1.033,1
0.308,-0.262,-1.611,1
0.274,-0.271,-1.999,1
0.29,-0.25,-1.934,1
0.324,-0.452,-1.709,1
0.269,-0.567,-1.229,1
0.297,-0.696,-0.421,1
0.25,-0.825,0.102,1
0.218,-0.851,0.818,0
0.288,-0.732,1.023,0
0.205,-0.723,1.022,0
0.156,-0.777,0.815,0
0.028,-0.609,0.109,0
0.001,-0.495,-0.497,0
0.079,-0.374,-1.343,0
0.134,-0.217,-2.002,0
0.165,-0.109,-2.503,0
0.148,-0.073,-2.727,0
0.288,0.131,-2.922,0
0.434,0.207,-2.492,0
0.515,0.314,-1.732,0
0.405,0.396,-1.287,0
0.156,0.309,-1.082,0
-0.102,0.029,-0.887,0
-0.276,-0.051,-0.815,0
-0.194,0.047,-0.932,0
0.104,0.229,-0.714,0
0.175,0.297,-0.338,0
0.069,0.259,-0.019,0
0.003,0.29,0.14,0
-0.001,0.403,0.456,0
-0.065,0.42,0.748,0
-0.217,0.407,0.538,0
-0.28,0.391,0.055,0
-0.245,0.323,-0.528,0
-0.154,0.338,-0.623,0
0.123,0.504,-0.339,0
0.189,0.545,0.395,0
0.181,0.39,1.299,0
0.158,0.272,1.594,0
0.151,0.099,1.888,0
0.217,0.063,1.896,0
0.038,0.483,1.734,0
-0.232,0.926,1.031,0
-0.213,0.903,1.041,1
-0.114,0.917,-0.947,1
-0.164,1.088,-1.35,1
-0.076,0.935,-1.312,1
0.037,0.371,-0.561,1
-0.094,-0.187,0.432,1
-0.35,-0.794,2.339,1
-0.325,-1.096,3.515,1
-0.003,-1.189,4.486,1
0.212,-1.061,4.464,1
0.389,-0.633,2.782,1
0.362,-0.435,1.081,1
0.332,-0.138,-0.944,1
0.156,-0.058,-1.626,1
-0.175,-0.405,-2.322,1
-0.61,-0.58,-2.287,1
-0.785,-0.727,-1.007,1
-0.487,-0.708,0.14,1
-0.221,-0.75,1.505,1
0.178,-0.796,2.026,1
0.553,-0.645,2.128,1
0.662,-0.65,1.785,0
0.799,-0.663,0.912,0
0.83,-0.575,0.114,0
0.766,-0.519,-0.792,0
0.737,-0.51,-1.374,0
0.588,-0.389,-1.914,0
0.456,-0.328,-1.953,0
0.239,-0.343,-1.893,0
0.038,-0.339,-1.722,0
-0.001,-0.262,-1.699,0
0.013,-0.101,-1.864,0
-0.068,0.051,-1.821,0
-0.038,0.143,-1.619,0
-0.024,0.2,-1.303,0
-0.123,0.26,-0.977,0
-0.122,0.319,-0.476,0
-0.053,0.359,-0.184,0
-0.176,0.377,-0.017,0
-0.327,0.292,-0.041,0
-0.48,0.159,-0.059,0
-0.5,0.191,0.039,0
-0.409,0.189,0.15,0
-0.304,0.182,0.178,0
-0.302,0.175,0.181,0
-0.252,0.226,0.433,0
0.04,0.376,0.359,0
0.199,0.469,0.16,0
0.173,0.484,0.276,0
0.211,0.351,0.392,0
0.129,0.284,0.569,0
0.051,0.328,0.784,0
0.122,0.379,0.901,0
0.282,0.345,0.918,0
0.481,0.299,1.05,0
0.402,0.322,1.055,0
-0.008,0.573,0.747,0
-0.144,0.608,0.18,0
0.138,0.448,-0.545,1
0.494,0.458,-0.778,1
0.942,0.598,-0.592,1
1.155,0.513,0.167,1
1.067,0.119,1.568,1
0.707,-0.054,2.366,1
0.27,-0.461,3.108,1
0.181,-0.58,3.067,1
-0.021,-0.616,2.998,1
-0.105,-0.685,2.635,1
-0.248,-0.626,1.832,1
-0.313,-0.475,1.046,1
-0.367,-0.392,0.252,1
-0.304,-0.366,-0.202,1
-0.089,-0.24,-0.59,1
0.107,-0.189,-0.67,1
0.236,-0.223,-0.573,1
0.298,-0.277,-0.427,1
0.309,-0.418,-0.186,1
0.417,-0.547,0.044,1
0.534,-0.592,0.322,1
0.604,-0.601,0.414,0
0.543,-0.738,0.569,0
0.478,-0.795,0.445,0
0.46,-0.69,-0.032,0
0.458,-0.631,-0.357,0
0.462,-0.455,-0.652,0
0.542,-0.254,-0.937,0
0.564,-0.06,-1.466,0
0.501,-0.009,-1.818,0
0.361,0.07,-2.24,0
0.227,0.084,-2.46,0
0.195,0.148,-2.618,0
0.24,0.226,-2.514,0
0.146,0.228,-2.091,0
0.073,0.166,-1.608,0
0.046,0.218,-1.024,0
0.12,0.326,-0.732,0
0.163,0.38,-0.547,0
0.101,0.404,-0.612,0
0.097,0.402,-0.611,0
0.159,0.509,-0.403,0
0.132,0.511,-0.271,0
0.135,0.53,-0.146,0
0.103,0.532,0.068,0
0.091,0.593,0.199,0
0.12,0.641,0.323,0
0.209,0.691,0.273,0
0.397,0.782,0.107,0
0.391,0.771,0.077,0
0.291,0.676,0.296,0
0.221,0.577,0.613,0
0.031,0.445,1.159,0
0.054,0.323,1.45,0
0.051,0.303,1.458,0
0.364,0.2,2.337,0
0.173,0.629,2.42,0
-0.241,1.083,1.723,0
-0.221,1.045,1.737,1
-0.24,1.099,-0.982,1
-0.125,1.182,-1.929,1
-0.01,1.007,-2.008,1
0.124,0.447,-1.069,1
0.25,-0.017,0.23,1
0.12,-0.839,2.497,1
-0.106,-1.233,4.061,1
-0.32,-1.521,5.732,1
-0.281,-1.524,6.01,1
-0.133,-1.45,4.632,1
-0.116,-1.259,2.863,1
-0.012,-0.794,0.313,1
-0.07,-0.495,-1.233,1
-0.167,-0.492,-2.751,1
-0.42,-0.548,-3.451,1
-0.715,-0.532,-3.622,1
-0.775,-0.455,-3.118,1
-0.384,-0.263,-1.525,1
-0.091,-0.233,-0.496,1
0.253,-0.387,0.568,1
0.324,-0.518,0.989,0
0.098,-0.758,1.194,0
-0.165,-0.94,1.17,0
-0.394,-1.095,0.797,0
-0.402,-1.083,0.793,0
-0.343,-0.932,-0.422,0
-0.244,-0.829,-0.996,0
-0.217,-0.713,-1.699,0
-0.252,-0.6,-2.06,0
-0.187,-0.394,-2.264,0
-0.072,-0.243,-2.222,0
-0.062,-0.227,-2.228,0
0.173,0.039,-1.845,0
0.208,0.146,-1.66,0
0.241,0.139,-1.519,0
0.058,0.19,-1.153,0
-0.091,0.193,-0.89,0
-0.135,0.184,-0.667,0
-0.199,0.219,-0.25,0
-0.216,0.236,-0.256,0
-0.331,0.323,0.378,0
-0.389,0.393,0.472,0
-0.432,0.365,0.576,0
-0.284,0.421,0.754,0
-0.138,0.519,0.599,0
0.059,0.71,0.236,0
0.2,0.723,0.08,0
0.319,0.632,0.057,0
0.253,0.584,0.154,0
0.189,0.6,0.424,0
0.174,0.524,0.76,0
0.156,0.515,0.764,0
0.182,0.469,1.85,0
0.163,0.426,2.052,0
0.225,0.376,1.978,0
0.215,0.348,1.988,1
0.088,0.632,0.857,1
0.092,0.599,0.869,1
0.211,0.633,-0.311,1
0.342,0.52,-0.578,1
0.354,0.529,-0.304,1
0.394,0.439,0.417,1
0.344,0.362,1.057,1
0.336,0.378,1.052,1
-0.355,0.097,1.726,1
-0.124,-0.104,1.572,1
0.049,-0.257,1.906,1
0.211,-0.345,2.697,1
0.029,-0.424,3.131,1
-0.393,-0.581,3.199,1
-0.549,-0.684,2.691,1
-0.567,-0.684,1.234,1
-0.452,-0.659,0.301,1
-0.214,-0.61,-0.422,1
-0.193,-0.58,-0.648,1
-0.145,-0.581,-0.749,1
0.059,-0.596,-0.704,0
0.333,-0.595,-0.461,0
0.403,-0.61,-0.19,0
0.482,-0.688,0.084,0
0.465,-0.733,0.076,0
0.303,-0.819,-0.12,0
0.177,-0.881,-0.26,0
0.179,-0.799,-0.549,0
0.204,-0.601,-0.928,0
0.325,-0.443,-1.518,0
0.315,-0.286,-1.732,0
0.21,-0.148,-1.81,0
0.079,-0.159,-1.874,0
0.007,-0.139,-1.976,0
0.01,-0.075,-1.897,0
0.066,0.062,-1.671,0
0.06,0.126,-1.597,0
0.08,0.162,-1.631,0
0.079,0.102,-1.669,0
0.06,0.089,-1.279,0
-0.015,0.147,-1.18,0
0.04,0.2,-1.188,0
0.164,0.215,-1.336,0
0.007,0.203,-1.001,0
-0.03,0.181,-0.679,0
0.027,0.287,-0.418,0
0.088,0.384,-0.235,0
0.035,0.492,0.177,0
0.118,0.547,0.392,0
0.067,0.596,0.223,0
-0.199,0.527,0.114,0
-0.272,0.328,0.033,0
-0.283,0.329,0.22,0
-0.165,0.356,0.667,0
-0.125,0.284,1.043,0
-0.136,0.273,1.047,0
0.056,0.35,1.958,0
0.321,0.364,2.153,0
0.326,0.344,2.206,0
0.328,0.323,2.214,0
-0.009,0.775,1.243,0
-0.434,0.883,0.218,1
-0.29,0.9,-0.454,1
-0.159,1.041,-1.048,1
-0.061,1.048,-1.078,1
0.177,0.805,-0.589,1
0.301,0.602,0.15,1
0.281,0.629,0.139,1
0.364,-0.105,2.46,1
0.488,-0.436,3.464,1
0.317,-0.627,3.943,1
0.189,-0.871,3.928,1
0.232,-0.881,3.053,1
0.197,-0.681,1.333,1
0.063,-0.504,0.271,1
-0.129,-0.378,-0.722,1
-0.312,-0.453,-1.192,1
-0.777,-0.658,-1.798,1
-0.992,-0.767,-1.947,1
-0.732,-0.688,-1.527,1
-0.355,-0.577,-0.993,1
0.085,-0.525,-0.469,1
0.229,-0.661,-0.136,0
0.262,-0.836,0.278,0
0.227,-0.941,0.549,0
0.091,-1.042,0.826,0
-0.033,-1.058,0.685,0
-0.095,-0.996,-0.235,0
-0.12,-0.866,-1.034,0
-0.148,-0.732,-1.756,0
-0.161,-0.654,-2.131,0
-0.248,-0.526,-2.385,0
-0.364,-0.477,-2.327,0
-0.304,-0.407,-2.205,0
-0.161,-0.246,-2.024,0
0.067,-0.002,-1.261,0
0.125,0.165,-1.01,0
0.227,0.34,-0.895,0
0.17,0.315,-0.721,0
-0.082,0.273,-0.382,0
-0.266,0.323,-0.221,0
-0.331,0.382,-0.176,0
-0.328,0.42,-0.093,0
-0.307,0.509,-0.029,0
-0.21,0.579,-0.087,0
-0.082,0.714,-0.211,0
-0.016,0.765,-0.138,0
-0.079,0.685,-0.065,0
-0.091,0.614,-0.023,0
-0.109,0.575,0.331,0
-0.033,0.636,0.707,0
-0.092,0.684,1.051,0
-0.117,0.665,1.136,0
-0.085,0.533,0.973,0
-0.16,0.458,0.868,0
-0.053,0.421,0.729,0
0.057,0.4,0.691,0
0.049,0.374,0.7,0
0.158,0.296,1.223,0
0.163,0.281,1.496,1
0.116,0.519,1.706,1
0.12,0.502,1.712,1
0.174,0.959,0.754,1
0.443,0.834,0.143,1
0.568,0.845,0.025,1
0.79,0.84,0.337,1
0.881,0.646,0.845,1
0.757,0.463,1.658,1
0.56,0.381,2.149,1
0.502,0.141,2.257,1
0.542,-0.004,2.216,1
0.596,-0.277,2.282,1
0.458,-0.362,2.427,1
0.149,-0.48,2.463,1
0.003,-0.465,1.924,1
-0.169,-0.459,0.838,1
-0.153,-0.42,-0.007,1
-0.071,-0.306,-0.848,1
-0.14,-0.304,-1.183,1
-0.074,-0.294,-1.2,1
-0.095,-0.312,-0.937,0
-0.087,-0.326,-0.932,0
0.203,-0.569,-0.378,0
0.247,-0.699,-0.21,0
0.351,-0.743,-0.065,0
0.54,-0.811,0.124,0
0.655,-0.739,0.034,0
0.657,-0.658,-0.456,0
0.701,-0.646,-0.845,0
0.721,-0.664,-0.838,0
0.586,-0.513,-1.54,0
0.447,-0.408,-1.906,0
0.419,-0.357,-2.188,0
0.082,-0.394,-2.033,0
-0.068,-0.435,-1.712,0
-0.008,-0.332,-1.583,0
0.048,-0.179,-1.539,0
0.212,0.032,-1.307,0
0.305,0.144,-1.23,0
0.228,0.215,-1.314,0
0.107,0.177,-1.33,0
0.176,0.21,-1.095,0
0.215,0.189,-0.877,0
0.185,0.177,-0.54,0
0.124,0.12,-0.235,0
0.095,0.072,0.076,0
0.161,0.149,0.205,0
0.194,0.218,0.323,0
0.253,0.354,0.356,0
0.411,0.574,0.244,0
0.493,0.662,-0.002,0
0.397,0.687,-0.255,0
0.323,0.65,-0.47,0
0.022,0.481,-0.437,0
-0.08,0.31,-0.312,0
-0.052,0.234,0.264,0
0.072,0.277,0.802,0
0.277,0.266,1.332,0
0.164,0.203,1.625,0
0.093,0.173,1.674,0
0.195,0.181,1.513,0
0.153,0.482,1.252,1
-0.073,0.829,0.799,1
-0.228,1.027,-0.237,1
-0.156,0.984,-0.768,1
-0.148,1.067,-1.307,1
-0.164,1.027,-1.419,1
-0.021,0.765,-0.957,1
0.048,0.547,-0.136,1
0.147,0.19,1.084,1
0.312,-0.059,2.019,1
0.565,-0.229,2.932,1
0.58,-0.281,3.393,1
0.598,-0.36,3.674,1
0.487,-0.399,3.284,1
0.34,-0.208,1.645,1
0.186,-0.122,0.424,1
-0.015,-0.084,-0.801,1
-0.157,-0.024,-1.312,1
-0.351,-0.152,-1.249,1
-0.59,-0.279,-0.901,1
-0.829,-0.486,-0.15,1
-0.792,-0.518,0.341,0
-0.332,-0.555,0.766,0
-0.017,-0.532,0.877,0
-0.056,-0.52,0.872,0
0.451,-0.51,0.671,0
0.459,-0.533,0.232,0
0.374,-0.558,-0.345,0
0.373,-0.558,-0.345,0
0.299,-0.413,-1.569,0
0.216,-0.408,-1.952,0
-0.007,-0.484,-2.084,0
-0.144,-0.442,-2.152,0
-0.13,-0.404,-2.028,0
-0.097,-0.283,-1.792,0
-0.056,-0.146,-1.62,0
0.004,0.01,-1.442,0
0.047,0.09,-1.274,0
-0.109,0.135,-1.204,0
-0.237,0.15,-1.229,0
-0.341,0.056,-1.094,0
-0.398,0.064,-0.882,0
-0.399,0.108,-0.624,0
-0.339,0.189,-0.296,0
-0.251,0.267,0.079,0
-0.223,0.289,0.363,0
-0.111,0.43,0.434,0
-0.038,0.495,0.366,0
-0.067,0.438,0.273,0
-0.16,0.34,0.16,0
-0.28,0.299,0.144,0
-0.259,0.338,0.222,0
-0.161,0.404,0.244,0
-0.091,0.476,0.142,0
0.086,0.513,-0.128,0
0.136,0.419,-0.244,0
0.072,0.382,-0.095,0
0.018,0.365,0.296,0
0.117,0.39,0.972,0
0.121,0.418,1.35,0
-0.148,0.63,1.504,0
-0.264,0.759,1.081,0
-0.133,0.551,0.159,1
-0.079,0.349,-0.338,1
-0.044,0.357,-0.355,1
0.064,0.322,0.128,1
0.21,0.213,0.806,1
0.184,0.162,1.277,1
0.184,0.198,1.263,1
0.132,0.23,1.736,1
0.44,0.081,1.808,1
0.565,0.025,2.056,1
0.657,-0.051,2.463,1
0.601,-0.165,2.814,1
0.37,-0.31,2.875,1
0.325,-0.318,2.468,1
0.314,-0.31,1.312,1
0.352,-0.332,0.499,1
0.502,-0.174,-0.531,1
0.484,-0.172,-0.995,1
0.225,-0.447,-1.502,1
0.017,-0.594,-1.672,1
-0.089,-0.758,-1.367,1
-0.007,-0.808,-0.927,0
0.143,-0.761,-0.151,0
0.202,-0.74,0.314,0
0.231,-0.708,0.57,0
0.313,-0.606,0.507,0
0.401,-0.413,-0.034,0
0.49,-0.248,-0.629,0
0.638,-0.083,-1.325,0
0.775,0.052,-1.624,0
0.738,0.17,-1.854,0
0.667,0.202,-1.86,0
0.44,0.083,-1.383,0
0.272,0.063,-1.096,0
0.077,0.073,-1.115,0
0.041,0.055,-1.013,0
0.025,0.126,-0.924,0
0.004,0.212,-1.016,0
0.113,0.411,-1.177,0
0.22,0.531,-1.297,0
0.235,0.598,-1.341,0
0.177,0.609,-1.279,0
0.079,0.574,-1.044,0
-0.028,0.509,-0.833,0
-0.169,0.409,-0.444,0
-0.296,0.321,-0.129,0
-0.45,0.255,0.269,0
-0.471,0.247,0.473,0
-0.414,0.322,0.682,0
-0.386,0.387,0.752,0
-0.223,0.497,0.732,0
-0.116,0.567,0.669,0
-0.051,0.633,0.678,0
-0.008,0.618,0.754,0
0.001,0.494,0.932,0
0.086,0.361,1.15,0
0.355,0.288,1.169,0
0.527,0.171,1.1,0
0.413,0.211,1.001,0
0.057,0.551,0.681,0
-0.179,0.983,-0.155,1
0.065,1.025,-0.86,1
0.291,1.335,-1.57,1
0.403,1.436,-1.738,1
0.56,1.231,-1.252,1
0.458,0.814,-0.36,1
0.251,-0.005,1.073,1
0.041,-0.543,1.964,1
-0.438,-1.398,3.46,1
-0.718,-1.701,4.459,1
-0.737,-1.717,4.796,1
-0.486,-1.605,4.19,1
-0.457,-1.35,2.502,1
-0.518,-1.151,1.129,1
-0.432,-0.803,-0.589,1
-0.281,-0.632,-1.717,1
-0.2,-0.374,-2.734,1
-0.145,-0.241,-2.97,1
-0.212,-0.248,-1.929,1
0.13,-0.163,-0.974,1
0.191,-0.212,-0.18,1
0.055,-0.54,0.524,0
0.049,-0.78,1.116,0
0.012,-0.822,1.449,0
-0.041,-0.804,1.418,0
-0.021,-0.737,1.051,0
0.093,-0.5,0.101,0
0.082,-0.4,-0.534,0
-0.079,-0.349,-1.156,0
-0.273,-0.342,-1.503,0
-0.506,-0.338,-1.509,0
-0.555,-0.307,-1.489,0
-0.568,-0.252,-1.501,0
-0.479,-0.08,-1.438,0
-0.31,0.179,-1.374,0
-0.128,0.324,-1.388,0
-0.038,0.405,-1.239,0
-0.146,0.462,-1.042,0
-0.272,0.455,-0.909,0
-0.372,0.415,-0.809,0
-0.514,0.438,-0.545,0
-0.589,0.455,-0.432,0
-0.614,0.443,-0.371,0
-0.586,0.439,-0.348,0
-0.545,0.486,-0.172,0
-0.466,0.494,-0.081,0
-0.274,0.476,-0.214,0
-0.285,0.482,0.039,0
-0.377,0.504,0.588,0
-0.386,0.436,0.859,0
-0.444,0.409,1.022,0
-0.484,0.398,1.148,0
-0.302,0.421,0.786,0
-0.135,0.425,0.533,0
-0.076,0.423,0.447,0
-0.084,0.331,0.423,0
-0.073,0.281,0.449,0
-0.068,0.257,0.65,0
-0.036,0.268,0.903,0
-0.255,0.45,1.193,0
-0.456,0.684,1.173,1
-0.402,0.648,0.89,1
-0.14,0.584,0.314,1
0.102,0.482,0.296,1
0.397,0.426,0.833,1
0.514,0.255,1.602,1
0.406,-0.007,2.508,1
0.109,-0.014,3.021,1
0.069,0.094,2.948,1
0.19,0.208,2.384,1
0.392,0.232,1.163,1
0.582,0.184,0.569,1
0.654,0.107,0.251,1
0.467,-0.093,0.482,1
0.217,-0.325,0.626,1
0.034,-0.502,0.48,1
-0.06,-0.667,-0.043,1
-0.082,-0.723,-0.34,1
-0.18,-0.799,-0.806,1
-0.276,-0.848,-1.147,1
-0.212,-0.829,-1.633,1
-0.099,-0.821,-1.792,0
0.01,-0.843,-1.79,0
0.078,-0.86,-1.506,0
0.166,-0.797,-0.77,0
0.123,-0.754,-0.348,0
