accX,accY,accZ,angleX,angleY,angleZ,label
-0.27142,-0.58155036,-2.7229657,0.15103643,-0.22113322,0.09193522,move
-0.27142,-0.58155036,-2.7229657,0.15103643,-0.22113322,0.09193522,move
-0.3390249,-0.6176331,-2.7166371,0.27076602,-0.52778757,0.13897185,move
-0.3390249,-0.6176331,-2.7166371,0.27076602,-0.52778757,0.13897185,move
0.60021454,0.1643095,-2.0502262,0.3294091,-0.47708577,0.06566802,move
0.60021454,0.1643095,-2.0502262,0.3294091,-0.47708577,0.06566802,move
0.035550594,0.15195465,-1.9294372,0.3727805,-0.4007276,0.03390302,move
0.035550594,0.15195465,-1.9294372,0.3727805,-0.4007276,0.03390302,move
-0.38517916,0.20835161,-2.3671389,0.37827832,-0.41172317,0.15424347,move
-0.38517916,0.20835161,-2.3671389,0.37827832,-0.41172317,0.15424347,move
-0.10010004,0.63596296,-1.6124454,0.28115073,-0.5119051,0.3173445,move
-0.10010004,0.63596296,-1.6124454,0.28115073,-0.5119051,0.3173445,move
0.49178737,1.3113618,-0.39796066,0.27870727,-0.5015204,0.36071593,move
0.49178737,1.3113618,-0.39796066,0.27870727,-0.5015204,0.36071593,move
0.49178737,1.3113618,-0.39796066,0.37583485,-0.47952923,0.24953845,move
0.54759777,1.6409078,0.6913557,0.37583485,-0.47952923,0.24953845,move
0.1030547,1.4840331,1.1636944,0.48762318,-0.44226643,0.11881329,move
0.1030547,1.4840331,1.1636944,0.48762318,-0.44226643,0.11881329,move
-0.5665067,0.9367523,1.3993282,0.47723848,-0.3359759,0.13530666,move
-0.5665067,0.9367523,1.3993282,0.47723848,-0.3359759,0.13530666,move
-0.5665067,0.9367523,1.3993282,0.36056322,-0.11362094,0.33628133,move
-0.9580458,0.7452917,2.2317657,0.36056322,-0.11362094,0.33628133,move
-0.6330125,1.2464261,2.742858,0.45952338,0.008552114,0.6081163,move
-0.6330125,1.2464261,2.742858,0.45952338,0.008552114,0.6081163,move
-0.6330125,1.2464261,2.742858,0.6348417,0.08674286,0.7858781,move
0.19748074,1.8013363,0.89359283,0.6348417,0.08674286,0.7858781,move
1.148765,2.8697343,-1.1747208,0.4259258,0.028710667,0.75228053,move
1.148765,2.8697343,-1.1747208,0.4259258,0.028710667,0.75228053,move
1.813647,2.622982,-1.2576098,-0.22586742,-0.06841691,0.40408736,move
1.813647,2.622982,-1.2576098,-0.22586742,-0.06841691,0.40408736,move
1.813647,2.622982,-1.2576098,-0.8770498,-0.33658674,-0.11942416,move
1.4106635,0.88781595,1.9662285,-0.8770498,-0.33658674,-0.11942416,move
1.4106635,0.88781595,1.9662285,-0.96929044,-0.41905355,-0.41691554,move
-0.69614744,-1.1108136,4.669198,-0.96929044,-0.41905355,-0.41691554,move
-1.989289,-1.6955845,3.5964441,-0.48792863,0.02443461,-0.17989981,move
-1.989289,-1.6955845,3.5964441,-0.48792863,0.02443461,-0.17989981,move
-1.989289,-1.6955845,3.5964441,0.124769226,0.14355333,0.21838433,move
-0.84733295,-1.3638563,0.14770412,0.124769226,0.14355333,0.21838433,move
-0.2752356,-0.69978523,-2.8895144,0.15592335,0.064751714,0.23304509,move
-0.2752356,-0.69978523,-2.8895144,0.15592335,0.064751714,0.23304509,move
-0.06555939,-0.69400454,-4.0185575,-0.14340061,0.016493361,0.12492194,move
-0.06555939,-0.69400454,-4.0185575,-0.14340061,0.016493361,0.12492194,move
-0.15724853,-1.3151336,-3.3652596,-0.4830417,-0.047036625,0.022907447,move
-0.15724853,-1.3151336,-3.3652596,-0.4830417,-0.047036625,0.022907447,move
-0.15724853,-1.3151336,-3.3652596,-0.567952,-0.13194689,0.027794369,move
0.086298816,-1.5840182,-2.1265726,-0.567952,-0.13194689,0.027794369,move
0.41578186,-1.3819377,-1.0256305,-0.44150287,-0.23823744,-0.004581489,move
0.41578186,-1.3819377,-1.0256305,-0.44150287,-0.23823744,-0.004581489,move
0.0115918,-1.2720792,-1.0919352,-0.19043724,-0.13194689,-0.0711658,move
0.0115918,-1.2720792,-1.0919352,-0.19043724,-0.13194689,-0.0711658,move
-0.5715348,-1.2852695,-2.116426,0.012370021,0.089186326,-0.064446285,move
-0.5715348,-1.2852695,-2.116426,0.012370021,0.089186326,-0.064446285,move
-0.5715348,-1.2852695,-2.116426,0.0154243475,0.27550024,0.027794369,move
-0.6950394,-0.9757304,-2.9566655,0.0154243475,0.27550024,0.027794369,move
-0.45458263,-0.56523657,-3.0808454,-0.09697486,0.3390302,0.094989546,move
-0.45458263,-0.56523657,-3.0808454,-0.09697486,0.3390302,0.094989546,move
-0.121179,0.18194914,-1.6051612,-0.23014349,0.26083946,0.1133155,move
-0.121179,0.18194914,-1.6051612,-0.23014349,0.26083946,0.1133155,move
0.15301204,0.57496786,-0.331995,-0.072540246,0.09407325,0.05222898,move
0.15301204,0.57496786,-0.331995,-0.072540246,0.09407325,0.05222898,move
0.15301204,0.57496786,-0.331995,0.2677117,-0.2003638,-0.023518313,move
0.20926571,0.99226475,0.68170834,0.2677117,-0.2003638,-0.023518313,move
0.14172581,1.2015147,0.8958378,0.6702719,-0.42271876,-0.17256944,move
0.14172581,1.2015147,0.8958378,0.6702719,-0.42271876,-0.17256944,move
-0.45990562,1.1370025,-0.007716179,0.72341716,-0.36163223,-0.2959642,move
-0.45990562,1.1370025,-0.007716179,0.72341716,-0.36163223,-0.2959642,move
-0.41658714,0.7434063,0.21908188,0.31413746,-0.27488935,-0.2996294,move
-0.41658714,0.7434063,0.21908188,0.31413746,-0.27488935,-0.2996294,move
-0.41658714,0.7434063,0.21908188,-0.25457808,-0.28099802,-0.22388211,move
-0.3512009,1.0265536,2.8080254,-0.25457808,-0.28099802,-0.22388211,move
-0.060194798,1.0636935,5.885851,-0.30283645,-0.2938262,-0.2171626,move
-0.060194798,1.0636935,5.885851,-0.30283645,-0.2938262,-0.2171626,move
-0.6021829,1.0329056,5.539362,0.38255435,0.06780604,-0.22449298,move
-0.6021829,1.0329056,5.539362,0.38255435,0.06780604,-0.22449298,move
-0.15811872,1.3505616,0.84887886,0.5395467,0.3933972,-0.15302174,move
-0.15811872,1.3505616,0.84887886,0.5395467,0.3933972,-0.15302174,move
0.5156107,1.7059107,0.03857231,0.027030786,0.07941248,-0.17012598,move
0.5156107,1.7059107,0.03857231,0.027030786,0.07941248,-0.17012598,move
0.6966294,1.6275177,2.169692,-0.35903606,-0.18142697,-0.25381452,move
0.6966294,1.6275177,2.169692,-0.35903606,-0.18142697,-0.25381452,move
0.097002424,1.1212773,2.8023767,-0.30589077,-0.052534413,-0.3210097,move
0.097002424,1.1212773,2.8023767,-0.30589077,-0.052534413,-0.3210097,move
-0.53007734,0.43908072,1.6290112,-0.09392053,0.100792766,-0.26725355,move
-0.53007734,0.43908072,1.6290112,-0.09392053,0.100792766,-0.26725355,move
0.1292359,0.2638793,0.049842834,0.08200866,0.0012217305,-0.17562376,move
0.1292359,0.2638793,0.049842834,0.08200866,0.0012217305,-0.17562376,move
0.6337496,-0.16069078,-1.5063171,0.09728029,-0.18997909,-0.2452624,move
0.6337496,-0.16069078,-1.5063171,0.09728029,-0.18997909,-0.2452624,move
1.0102981,-0.9405658,-2.2047014,-0.14523321,-0.27550024,-0.30268374,move
1.0102981,-0.9405658,-2.2047014,-0.14523321,-0.27550024,-0.30268374,move
0.8032279,-1.4129169,-2.0078206,-0.37980548,-0.2864958,-0.30451632,move
0.8032279,-1.4129169,-2.0078206,-0.37980548,-0.2864958,-0.30451632,move
0.79600596,-1.6862888,-1.3426118,-0.41829,-0.22113322,-0.24648413,move
0.79600596,-1.6862888,-1.3426118,-0.41829,-0.22113322,-0.24648413,move
0.83188045,-1.6257963,-1.0839005,-0.2350304,-0.1001819,-0.2049453,move
0.83188045,-1.6257963,-1.0839005,-0.2350304,-0.1001819,-0.2049453,move
0.46596974,-1.8793647,-1.6744266,0.008093964,0.10995574,-0.16890424,move
0.46596974,-1.8793647,-1.6744266,0.008093964,0.10995574,-0.16890424,move
0.6298107,-1.5618062,-3.2863464,0.21029036,0.33108896,-0.0852157,move
0.6298107,-1.5618062,-3.2863464,0.21029036,0.33108896,-0.0852157,move
0.46970195,-1.1648965,-4.231538,0.23900102,0.20219639,-0.12675454,move
0.46970195,-1.1648965,-4.231538,0.23900102,0.20219639,-0.12675454,move
-0.011006534,-0.9678886,-3.8476677,0.23411411,-0.119729586,-0.16829337,move
-0.011006534,-0.9678886,-3.8476677,0.23411411,-0.119729586,-0.16829337,move
-0.35089827,-0.7495017,-2.9014854,0.17547104,-0.24862215,-0.16829337,move
-0.35089827,-0.7495017,-2.9014854,0.17547104,-0.24862215,-0.16829337,move
-0.39219096,-0.38807964,-2.0441718,0.04230242,0.0067195175,-0.17440203,move
-0.39219096,-0.38807964,-2.0441718,0.04230242,0.0067195175,-0.17440203,move
-0.72690326,-0.12641382,-1.1215992,-0.10797043,0.2779437,-0.19028452,move
-0.72690326,-0.12641382,-1.1215992,-0.10797043,0.2779437,-0.19028452,move
-0.7664802,0.38460636,0.32631874,0.0025961774,0.11911872,-0.09621128,move
-0.7664802,0.38460636,0.32631874,0.0025961774,0.11911872,-0.09621128,move
-0.53162193,0.9333043,1.0598211,0.29153544,-0.1685988,-0.06811147,move
-0.53162193,0.9333043,1.0598211,0.29153544,-0.1685988,-0.06811147,move
-0.8600862,1.0807657,1.0015917,0.27870727,-0.06169739,-0.060170226,move
-0.8600862,1.0807657,1.0015917,0.27870727,-0.06169739,-0.060170226,move
-1.3842416,1.4805775,1.5996552,0.042913284,0.14172074,-0.00580322,move
-1.3842416,1.4805775,1.5996552,0.042913284,0.14172074,-0.00580322,move
-2.0685217,1.7989426,2.0024624,-0.21059579,0.32436943,0.09560041,move
-2.0685217,1.7989426,2.0024624,-0.21059579,0.32436943,0.09560041,move
-1.9572458,2.5438004,3.1661224,-0.3565926,0.2687807,0.2574797,move
-1.9572458,2.5438004,3.1661224,-0.3565926,0.2687807,0.2574797,move
-0.9323852,2.9957414,2.5846834,-0.3828598,0.16982053,0.36254853,move
-0.9323852,2.9957414,2.5846834,-0.3828598,0.16982053,0.36254853,move
-0.9577548,3.0634847,2.5473986,-0.55756724,-0.59803706,0.24404067,move
-0.9577548,3.0634847,2.5473986,-0.55756724,-0.59803706,0.24404067,move
1.0386955,0.9696865,7.043483,-0.8520043,-1.500285,-0.03023783,move
1.0386955,0.9696865,7.043483,-0.8520043,-1.500285,-0.03023783,move
1.0386955,0.9696865,7.043483,-0.5917757,-1.1765264,-0.10842858,move
-0.6074067,-1.1191719,9.714218,-0.5917757,-1.1765264,-0.10842858,move
-0.6074067,-1.1191719,9.714218,0.046578474,0.13316862,0.22876903,move
-1.8790686,-1.7464085,5.9473944,0.046578474,0.13316862,0.22876903,move
-1.4146209,-1.5794327,0.11174679,0.42103887,1.0604621,0.64476824,move
-1.4146209,-1.5794327,0.11174679,0.42103887,1.0604621,0.64476824,move
-0.20838849,-0.8754864,-3.8813734,0.47357327,1.1264355,0.88056225,move
-0.20838849,-0.8754864,-3.8813734,0.47357327,1.1264355,0.88056225,move
0.8227181,-0.38076687,-6.3841047,0.34162638,0.6395759,0.786489,move
0.8227181,-0.38076687,-6.3841047,0.34162638,0.6395759,0.786489,move
0.8227181,-0.38076687,-6.3841047,-0.13423763,0.028099801,0.4456262,move
0.85779715,-0.568038,-6.621312,-0.13423763,0.028099801,0.4456262,move
0.3361128,-1.2077205,-2.8907695,-0.6571383,-0.34880406,0.21594086,move
0.3361128,-1.2077205,-2.8907695,-0.6571383,-0.34880406,0.21594086,move
-0.031932287,-1.4596376,-0.54711246,-0.46105054,-0.40317106,0.12370021,move
-0.031932287,-1.4596376,-0.54711246,-0.46105054,-0.40317106,0.12370021,move
-0.21615341,-1.5448744,-1.4615026,0.027641652,-0.06352998,0.10598512,move
-0.21615341,-1.5448744,-1.4615026,0.027641652,-0.06352998,0.10598512,move
-0.55933416,-1.7879167,-3.4724364,0.19807306,0.2706133,0.087659165,move
-0.55933416,-1.7879167,-3.4724364,0.19807306,0.2706133,0.087659165,move
-0.5335351,-1.5851567,-3.0414615,0.06001751,0.15882497,0.14813483,move
-0.5335351,-1.5851567,-3.0414615,0.06001751,0.15882497,0.14813483,move
-0.5335351,-1.5851567,-3.0414615,0.15347989,0.0012217305,0.18295415,move
-0.16339126,-1.1570137,-1.2050056,0.15347989,0.0012217305,0.18295415,move
0.31077117,-0.5490191,-0.5602827,0.45158213,0.028099801,0.10598512,move
0.31077117,-0.5490191,-0.5602827,0.45158213,0.028099801,0.10598512,move
-0.1910881,-0.19096851,-0.8400121,0.54809886,0.27183503,-0.01740966,move
-0.1910881,-0.19096851,-0.8400121,0.54809886,0.27183503,-0.01740966,move
-0.73807156,0.12343168,-0.8640218,0.44303003,0.30543262,-0.04550946,move
-0.73807156,0.12343168,-0.8640218,0.44303003,0.30543262,-0.04550946,move
-0.24265827,0.4406476,0.42234802,0.26343563,0.15271631,0.024129177,move
-0.24265827,0.4406476,0.42234802,0.26343563,0.15271631,0.024129177,move
0.5777511,0.8651104,2.1222677,0.16203201,-0.020158553,0.008857546,move
0.5777511,0.8651104,2.1222677,0.16203201,-0.020158553,0.008857546,move
1.1645007,0.8216181,3.5981283,0.23350324,-0.13805555,-0.14446963,move
1.1645007,0.8216181,3.5981283,0.23350324,-0.13805555,-0.14446963,move
0.18927374,0.9361563,4.436861,0.41981715,-0.02443461,-0.28863382,move
0.18927374,0.9361563,4.436861,0.41981715,-0.02443461,-0.28863382,move
0.18927374,0.9361563,4.436861,0.59574634,0.27977628,-0.2574797,move
-0.3661822,1.0348516,2.336956,0.59574634,0.27977628,-0.2574797,move
-0.23490909,1.2811198,0.11652279,0.36056322,0.3915646,-0.13041973,move
-0.23490909,1.2811198,0.11652279,0.36056322,0.3915646,-0.13041973,move
0.7506473,2.2969341,0.52397823,-0.1947133,0.24007004,-0.071776666,move
0.7506473,2.2969341,0.52397823,-0.1947133,0.24007004,-0.071776666,move
1.1853708,1.7370791,2.101801,-0.567952,-0.010995574,-0.29779682,move
1.1853708,1.7370791,2.101801,-0.567952,-0.010995574,-0.29779682,move
0.85850966,0.43026495,4.14919,-0.69134676,-0.17592919,-0.48472157,move
0.85850966,0.43026495,4.14919,-0.69134676,-0.17592919,-0.48472157,move
0.34797582,-0.42400694,4.8243265,-0.40301836,-0.17592919,-0.48655418,move
0.34797582,-0.42400694,4.8243265,-0.40301836,-0.17592919,-0.48655418,move
0.36412045,-0.76360893,2.8049688,0.02031127,-0.07880162,-0.35827246,move
0.36412045,-0.76360893,2.8049688,0.02031127,-0.07880162,-0.35827246,move
1.0643679,-0.7746496,0.39978695,0.13271047,0.10567969,-0.23915374,move
1.0643679,-0.7746496,0.39978695,0.13271047,0.10567969,-0.23915374,move
1.7056537,-1.2010989,-1.3172016,-0.00290161,0.2125811,-0.28619036,move
1.7056537,-1.2010989,-1.3172016,-0.00290161,0.2125811,-0.28619036,move
1.5071971,-1.5794482,-1.7672672,-0.13545936,0.13744467,-0.32895094,move
1.5071971,-1.5794482,-1.7672672,-0.13545936,0.13744467,-0.32895094,move
1.2651471,-1.8647478,-1.7227616,0.008093964,0.029321533,-0.29352075,move
1.2651471,-1.8647478,-1.7227616,0.008093964,0.029321533,-0.29352075,move
1.2651471,-1.8647478,-1.7227616,0.2921463,-0.035430185,-0.21410827,move
0.93738985,-1.943351,-2.8126836,0.2921463,-0.035430185,-0.21410827,move
1.2213994,-1.8387921,-4.513603,0.42470407,-0.108123146,-0.15241088,move
1.2213994,-1.8387921,-4.513603,0.42470407,-0.108123146,-0.15241088,move
0.80802524,-1.5460141,-4.8689575,0.26221392,-0.33964106,-0.19272798,move
0.80802524,-1.5460141,-4.8689575,0.26221392,-0.33964106,-0.19272798,move
0.36099046,-1.407608,-3.871942,0.10644327,-0.43676865,-0.18051068,move
0.36099046,-1.407608,-3.871942,0.10644327,-0.43676865,-0.18051068,move
0.05404842,-0.85343456,-2.6531544,0.13087788,-0.40683624,-0.1518,move
0.05404842,-0.85343456,-2.6531544,0.13087788,-0.40683624,-0.1518,move
-0.032106787,-0.60963917,-2.368104,0.29153544,-0.15088372,-0.124311075,move
-0.032106787,-0.60963917,-2.368104,0.29153544,-0.15088372,-0.124311075,move
-0.032106787,-0.60963917,-2.368104,0.3831652,-0.12339478,-0.0729984,move
-0.23429671,-0.14281034,-3.1851783,0.3831652,-0.12339478,-0.0729984,move
0.2721657,0.54103374,-2.1319404,0.2554944,-0.42088616,-0.04428773,move
0.2721657,0.54103374,-2.1319404,0.2554944,-0.42088616,-0.04428773,move
0.19349459,1.0536971,0.09220028,0.120493166,-0.65484756,-0.13958271,move
0.19349459,1.0536971,0.09220028,0.120493166,-0.65484756,-0.13958271,move
-0.8284768,1.1647668,2.2466555,0.100334615,-0.65484756,-0.24770586,move
-0.8284768,1.1647668,2.2466555,0.100334615,-0.65484756,-0.24770586,move
-1.4996006,0.87803125,3.283846,0.21029036,-0.2510656,-0.21288654,move
-1.4996006,0.87803125,3.283846,0.21029036,-0.2510656,-0.21288654,move
-1.4996006,0.87803125,3.283846,0.1797471,0.3475823,0.018020526,move
-2.7716088,0.56927633,3.056116,0.1797471,0.3475823,0.018020526,move
-2.7716088,0.56927633,3.056116,0.23350324,0.44959682,0.46700647,move
-2.1625988,1.427619,3.3531704,0.23350324,0.44959682,0.46700647,move
-1.2765064,2.3898897,2.2564068,0.42959097,0.33964106,0.763887,move
-1.2765064,2.3898897,2.2564068,0.42959097,0.33964106,0.763887,move
0.1818043,3.3389068,0.64538956,0.40882155,0.103847094,0.82741696,move
0.1818043,3.3389068,0.64538956,0.40882155,0.103847094,0.82741696,move
0.1818043,3.3389068,0.64538956,-0.2948952,-0.14721853,0.50915617,move
1.5845498,3.1693068,0.37349987,-0.2948952,-0.14721853,0.50915617,move
1.5845498,3.1693068,0.37349987,-1.0187705,-0.4728097,0.0888809,move
1.5982316,1.7267585,3.0086575,-1.0187705,-0.4728097,0.0888809,move
1.5982316,1.7267585,3.0086575,-1.1665999,-0.34391713,-0.11453723,move
-0.6990657,-0.44790268,6.885564,-1.1665999,-0.34391713,-0.11453723,move
-1.8396183,-1.434392,6.479229,-0.5917757,0.15210545,0.09315695,move
-1.8396183,-1.434392,6.479229,-0.5917757,0.15210545,0.09315695,move
-1.5345312,-1.4688838,1.7999687,0.00870483,0.5222898,0.35705075,move
-1.5345312,-1.4688838,1.7999687,0.00870483,0.5222898,0.35705075,move
-1.091962,-1.2691765,-2.0569315,0.055741455,0.36896262,0.48166725,move
-1.091962,-1.2691765,-2.0569315,0.055741455,0.36896262,0.48166725,move
-1.091962,-1.2691765,-2.0569315,-0.09697486,-0.103847094,0.5366451,move
-0.037972152,-1.133517,-3.197228,-0.09697486,-0.103847094,0.5366451,move
1.0746783,-1.0300887,-2.2494087,-0.17394388,-0.44898596,0.43585235,move
1.0746783,-1.0300887,-2.2494087,-0.17394388,-0.44898596,0.43585235,move
1.1178497,-1.1206932,-1.5100002,-0.08659015,-0.3811799,0.17745635,move
1.1178497,-1.1206932,-1.5100002,-0.08659015,-0.3811799,0.17745635,move
1.1178497,-1.1206932,-1.5100002,0.0050396384,0.0012217305,-0.03573562,move
0.12338351,-1.8349564,-2.1637106,0.0050396384,0.0012217305,-0.03573562,move
-0.5081085,-2.057113,-3.3230104,0.10094548,0.2742785,-0.026572637,move
-0.5081085,-2.057113,-3.3230104,0.10094548,0.2742785,-0.026572637,move
-0.5081085,-2.057113,-3.3230104,0.18035796,0.22907446,0.089491755,move
-0.74099094,-1.9109619,-3.9087062,0.18035796,0.22907446,0.089491755,move
-0.4626092,-1.2957797,-3.7925358,0.24877487,0.07880162,0.23671028,move
-0.4626092,-1.2957797,-3.7925358,0.24877487,0.07880162,0.23671028,move
-0.037186995,-0.48420095,-2.8116379,0.34223726,-0.12095132,0.29840767,move
-0.037186995,-0.48420095,-2.8116379,0.34223726,-0.12095132,0.29840767,move
-0.019538969,0.10175371,-2.0475788,0.4503604,-0.23396139,0.2489276,move
-0.019538969,0.10175371,-2.0475788,0.4503604,-0.23396139,0.2489276,move
-0.019538969,0.10175371,-2.0475788,0.5047274,-0.23640485,0.20861048,move
0.08507323,0.5028014,-1.1277976,0.5047274,-0.23640485,0.20861048,move
0.018213123,1.1023726,-1.0765471,0.4454735,-0.1020145,0.11148291,move
0.018213123,1.1023726,-1.0765471,0.4454735,-0.1020145,0.11148291,move
0.018213123,1.1023726,-1.0765471,0.17913623,-0.039095376,-0.0693332,move
-0.2705962,1.4071236,0.3605013,0.17913623,-0.039095376,-0.0693332,move
-0.2705962,1.4071236,0.3605013,-0.065209866,-0.021991149,-0.23732115,move
-1.0263137,1.1165395,2.3033228,-0.065209866,-0.021991149,-0.23732115,move
-1.1678331,0.6718936,4.330762,0.04841107,-0.19425514,-0.15057829,move
-1.1678331,0.6718936,4.330762,0.04841107,-0.19425514,-0.15057829,move
-0.6236872,0.62269115,5.509082,0.40332377,-0.20647246,0.025350908,move
-0.6236872,0.62269115,5.509082,0.40332377,-0.20647246,0.025350908,move
-0.38940585,1.1635227,3.928197,0.5725334,0.15088372,0.07727446,move
-0.38940585,1.1635227,3.928197,0.5725334,0.15088372,0.07727446,move
-0.38940585,1.1635227,3.928197,0.3837761,0.44409904,0.16584991,move
-0.67961466,1.292798,2.205927,0.3837761,0.44409904,0.16584991,move
0.23287177,1.6825767,1.8942881,0.117438845,0.1142318,0.2556471,move
0.23287177,1.6825767,1.8942881,0.117438845,0.1142318,0.2556471,move
0.23287177,1.6825767,1.8942881,0.016035212,-0.32986724,0.19517145,move
1.1357936,1.7522459,3.6075668,0.016035212,-0.32986724,0.19517145,move
1.2949569,1.4202695,3.7711363,0.13026701,-0.23090707,0.011911872,move
1.2949569,1.4202695,3.7711363,0.13026701,-0.23090707,0.011911872,move
1.2949569,1.4202695,3.7711363,0.16691893,0.019547688,-0.24037547,move
0.48522112,0.3946767,1.2901115,0.16691893,0.019547688,-0.24037547,move
0.48522112,0.3946767,1.2901115,-0.12935072,0.20769419,-0.35521814,move
-0.09569135,-0.78146935,-0.49955273,-0.12935072,0.20769419,-0.35521814,move
-0.5081879,-1.6735246,-1.3940372,-0.49586987,0.32559118,-0.33933565,move
-0.5081879,-1.6735246,-1.3940372,-0.49586987,0.32559118,-0.33933565,move
-0.5081879,-1.6735246,-1.3940372,-0.7200574,0.22785273,-0.16462818,move
-0.05325243,-2.0440361,-0.9871087,-0.7200574,0.22785273,-0.16462818,move
-0.05325243,-2.0440361,-0.9871087,-0.5655085,0.02321288,-0.038179077,move
0.81916684,-1.955334,-0.48621655,-0.5655085,0.02321288,-0.038179077,move
0.692932,-2.0868497,-1.3007636,-0.31627548,0.06414085,-0.05589417,move
0.692932,-2.0868497,-1.3007636,-0.31627548,0.06414085,-0.05589417,move
0.692932,-2.0868497,-1.3007636,-0.24297164,0.31887165,-0.05100725,move
0.06950681,-2.4176483,-2.6379728,-0.24297164,0.31887165,-0.05100725,move
0.014606472,-2.1679838,-3.8818011,-0.23564127,0.44959682,0.03756821,move
0.014606472,-2.1679838,-3.8818011,-0.23564127,0.44959682,0.03756821,move
0.30021673,-1.707701,-4.8478003,-0.21059579,0.3885103,0.06261369,move
0.30021673,-1.707701,-4.8478003,-0.21059579,0.3885103,0.06261369,move
0.060300745,-1.3148866,-4.8083696,-0.23441954,0.119729586,0.008857546,move
0.060300745,-1.3148866,-4.8083696,-0.23441954,0.119729586,0.008857546,move
0.060300745,-1.3148866,-4.8083696,-0.25579983,-0.19792034,-0.024129177,move
-0.035859108,-0.99139404,-3.7781167,-0.25579983,-0.19792034,-0.024129177,move
-0.035859108,-0.99139404,-3.7781167,-0.22892176,-0.37751472,-0.08277224,move
-0.087604344,-0.6219311,-2.1626735,-0.22892176,-0.37751472,-0.08277224,move
-0.21767054,-0.052533627,-0.5303993,-0.12018774,-0.29932398,-0.11148291,move
-0.21767054,-0.052533627,-0.5303993,-0.12018774,-0.29932398,-0.11148291,move
-0.3242387,0.01807642,0.8559675,0.049632803,-0.25289822,-0.09865474,move
-0.3242387,0.01807642,0.8559675,0.049632803,-0.25289822,-0.09865474,move
-0.3981965,0.2903571,1.6773472,0.11927144,-0.026267206,-0.011301007,move
-0.3981965,0.2903571,1.6773472,0.11927144,-0.026267206,-0.011301007,move
-0.27243322,0.52802896,2.248086,0.21456642,0.116675265,0.082161374,move
-0.27243322,0.52802896,2.248086,0.21456642,0.116675265,0.082161374,move
-0.6008182,0.73821545,2.2086964,0.30069843,0.34330627,0.1572978,move
-0.6008182,0.73821545,2.2086964,0.30069843,0.34330627,0.1572978,move
-1.3802884,1.0728402,1.6865511,0.29520062,0.6621779,0.30634892,move
-1.3802884,1.0728402,1.6865511,0.29520062,0.6621779,0.30634892,move
-1.2181538,1.2249861,2.0692673,0.27259862,0.6035349,0.573297,move
-1.2181538,1.2249861,2.0692673,0.27259862,0.6035349,0.573297,move
-1.2181538,1.2249861,2.0692673,0.39293906,0.25045475,0.8206975,move
-0.1296461,1.6176491,3.4107656,0.39293906,0.25045475,0.8206975,move
-0.1296461,1.6176491,3.4107656,0.57803124,0.20097467,0.8891144,move
-0.019684356,1.9679508,4.0729294,0.57803124,0.20097467,0.8891144,move
-0.019684356,1.9679508,4.0729294,0.6965391,0.6627888,0.840856,move
-0.43065235,1.4569902,1.7487879,0.6965391,0.6627888,0.840856,move
-0.43065235,1.4569902,1.7487879,0.37583485,0.87109387,0.82436264,move
-0.65748996,1.3055501,-0.8506799,0.37583485,0.87109387,0.82436264,move
-0.5005504,1.2001209,-0.72853136,-0.17211129,0.5375614,0.7302894,move
-0.5005504,1.2001209,-0.72853136,-0.17211129,0.5375614,0.7302894,move
-0.42723945,0.49491644,0.9958687,-0.5025894,0.08368854,0.60994893,move
-0.42723945,0.49491644,0.9958687,-0.5025894,0.08368854,0.60994893,move
-0.42723945,0.49491644,0.9958687,-0.49037206,-0.172264,0.5122105,move
-0.37398136,0.15878105,1.9022436,-0.49037206,-0.172264,0.5122105,move
-0.5331205,-0.3033924,1.2175684,-0.32910365,-0.29565877,0.36987892,move
-0.5331205,-0.3033924,1.2175684,-0.32910365,-0.29565877,0.36987892,move
-0.32920402,-0.47681093,0.9609947,-0.31749722,-0.33108896,0.2415972,move
-0.32920402,-0.47681093,0.9609947,-0.31749722,-0.33108896,0.2415972,move
-0.32920402,-0.47681093,0.9609947,-0.33765575,-0.258396,0.07544186,move
0.14341451,-0.9572506,0.68760014,-0.33765575,-0.258396,0.07544186,move
0.12078692,-1.4177136,0.7317562,-0.40118575,-0.12156218,-0.10354166,move
0.12078692,-1.4177136,0.7317562,-0.40118575,-0.12156218,-0.10354166,move
0.12078692,-1.4177136,0.7317562,-0.27229318,0.054367006,-0.14263703,move
0.11900954,-1.3521647,0.6942339,-0.27229318,0.054367006,-0.14263703,move
0.07754429,-1.6450946,-0.63980484,-0.04138612,0.2284636,-0.12186762,move
0.07754429,-1.6450946,-0.63980484,-0.04138612,0.2284636,-0.12186762,move
0.5386489,-1.2276313,-2.1738467,0.10888673,0.3555236,-0.106595986,move
0.5386489,-1.2276313,-2.1738467,0.10888673,0.3555236,-0.106595986,move
0.4362711,-1.0627549,-3.2269707,0.104610674,0.3268129,-0.17134771,move
0.4362711,-1.0627549,-3.2269707,0.104610674,0.3268129,-0.17134771,move
0.4362711,-1.0627549,-3.2269707,0.016646078,0.24801129,-0.17623462,move
0.0700174,-1.0855238,-2.7219625,0.016646078,0.24801129,-0.17623462,move
-0.2574366,-1.1008251,-1.8389602,0.07223482,0.2180789,-0.16279559,move
-0.2574366,-1.1008251,-1.8389602,0.07223482,0.2180789,-0.16279559,move
-0.41721696,-0.8870201,-1.8544006,0.24266621,0.30543262,-0.10293079,move
-0.41721696,-0.8870201,-1.8544006,0.24266621,0.30543262,-0.10293079,move
-0.32831514,-0.64571714,-2.577537,0.37827832,0.23823744,-0.056505036,move
-0.32831514,-0.64571714,-2.577537,0.37827832,0.23823744,-0.056505036,move
-0.42380178,-0.5719967,-2.4956708,0.3923282,0.02687807,-0.027183503,move
-0.42380178,-0.5719967,-2.4956708,0.3923282,0.02687807,-0.027183503,move
-0.5166963,-0.42743874,-1.161294,0.40210205,-0.24617869,-0.0070249503,move
-0.5166963,-0.42743874,-1.161294,0.40210205,-0.24617869,-0.0070249503,move
-0.5166963,-0.42743874,-1.161294,0.43508878,-0.19547687,0.022296581,move
-0.7866376,-0.17076921,-0.5791521,0.43508878,-0.19547687,0.022296581,move
-0.108967006,0.13252354,-0.34813213,0.41615194,-0.13805555,0.027794369,move
-0.108967006,0.13252354,-0.34813213,0.41615194,-0.13805555,0.027794369,move
-0.13614567,0.06594324,-0.3066473,0.3837761,-0.2761111,-0.06688975,move
-0.13614567,0.06594324,-0.3066473,0.3837761,-0.2761111,-0.06688975,move
-0.13207068,0.6348481,2.7683887,0.45769078,-0.37568212,-0.18906279,move
-0.13207068,0.6348481,2.7683887,0.45769078,-0.37568212,-0.18906279,move
-0.13207068,0.6348481,2.7683887,0.58352906,-0.14172074,-0.22999077,move
-0.6327027,1.4215851,2.111701,0.58352906,-0.14172074,-0.22999077,move
-0.7980496,1.69871,0.44176197,0.37216964,0.18509217,-0.25442538,move
-0.7980496,1.69871,0.44176197,0.37216964,0.18509217,-0.25442538,move
-0.7980496,1.69871,0.44176197,-0.114689946,0.19058995,-0.2611449,move
0.09313129,1.8857155,1.0514269,-0.114689946,0.19058995,-0.2611449,move
0.35306877,1.1284404,3.2117262,-0.5007568,-0.2932153,-0.5323691,move
0.35306877,1.1284404,3.2117262,-0.5007568,-0.2932153,-0.5323691,move
0.36763912,-0.5217786,6.472045,-0.6180429,-0.47952923,-0.68019843,move
0.36763912,-0.5217786,6.472045,-0.6180429,-0.47952923,-0.68019843,move
-0.93819344,-1.7675815,7.665907,-0.3914119,-0.32925636,-0.63438356,move
-0.93819344,-1.7675815,7.665907,-0.3914119,-0.32925636,-0.63438356,move
-0.93819344,-1.7675815,7.665907,-0.063988134,0.0061086523,-0.32895094,move
-1.040517,-2.202117,5.439969,-0.063988134,0.0061086523,-0.32895094,move
-1.040517,-2.202117,5.439969,-0.027947085,0.35430184,-0.046120327,move
0.016207188,-2.0382097,1.3838158,-0.027947085,0.35430184,-0.046120327,move
1.0042751,-2.0139387,-1.3867188,-0.32788193,0.21563543,0.03634648,move
1.0042751,-2.0139387,-1.3867188,-0.32788193,0.21563543,0.03634648,move
0.84627795,-2.222207,-0.108543396,-0.73655075,-0.16126843,0.011301007,move
0.84627795,-2.222207,-0.108543396,-0.73655075,-0.16126843,0.011301007,move
0.26059404,-2.4838662,2.2168226,-0.6730208,-0.35185838,0.025350908,move
0.26059404,-2.4838662,2.2168226,-0.6730208,-0.35185838,0.025350908,move
0.26059404,-2.4838662,2.2168226,-0.6730208,-0.35185838,0.025350908,move
-0.098602265,-2.3943748,1.9164839,-0.13973543,-0.26450464,0.16401732,move
-0.098602265,-2.3943748,1.9164839,0.26526824,0.040317107,0.30085114,move
0.442895,-1.7331893,-0.85273886,0.26526824,0.040317107,0.30085114,move
1.225795,-1.1446786,-3.3735247,0.25121832,0.21563543,0.2733622,move
1.225795,-1.1446786,-3.3735247,0.25121832,0.21563543,0.2733622,move
1.225795,-1.1446786,-3.3735247,-0.009010263,0.27305678,0.083383106,move
1.0498326,-0.9115329,-3.6694236,-0.009010263,0.27305678,0.083383106,move
-0.24129327,-0.9883332,-2.7641563,-0.1067487,0.25595254,-0.070554934,move
-0.24129327,-0.9883332,-2.7641563,-0.1067487,0.25595254,-0.070554934,move
-1.1820872,-1.1838353,-2.6030326,0.044745877,0.17165314,-0.049785517,move
-1.1820872,-1.1838353,-2.6030326,0.044745877,0.17165314,-0.049785517,move
-0.8947357,-0.7274933,-2.549139,0.13637567,0.13683382,0.10720685,move
-0.8947357,-0.7274933,-2.549139,0.13637567,0.13683382,0.10720685,move
0.32725263,-0.038166046,-2.0700698,0.15470162,0,0.16584991,move
0.32725263,-0.038166046,-2.0700698,0.15470162,0,0.16584991,move
0.783964,0.2093172,-1.0091553,0.107665,-0.15515977,0.060170226,move
0.783964,0.2093172,-1.0091553,0.107665,-0.15515977,0.060170226,move
0.42261738,-0.25648212,0.12596798,0.117438845,-0.22296582,-0.090713486,move
0.42261738,-0.25648212,0.12596798,0.117438845,-0.22296582,-0.090713486,move
-0.5615345,-0.7278724,0.6698599,0.20112738,0.045814894,-0.06872234,move
-0.5615345,-0.7278724,0.6698599,0.20112738,0.045814894,-0.06872234,move
-0.7111007,-0.66526175,0.102080345,0.29275718,0.3463606,0.14630222,move
-0.7111007,-0.66526175,0.102080345,0.29275718,0.3463606,0.14630222,move
0.10584493,0.24489546,-0.189085,0.29703322,0.3744604,0.29718593,move
0.10584493,0.24489546,-0.189085,0.29703322,0.3744604,0.29718593,move
0.82476914,0.8942671,0.15545273,0.33857206,0.19547687,0.2648101,move
0.82476914,0.8942671,0.15545273,0.33857206,0.19547687,0.2648101,move
0.5382114,0.8884649,0.89874744,0.35506544,-0.056199603,0.129198,move
0.5382114,0.8884649,0.89874744,0.35506544,-0.056199603,0.129198,move
0.0318031,0.24972725,2.2480803,0.36300668,-0.18387043,0.053450707,move
0.0318031,0.24972725,2.2480803,0.36300668,-0.18387043,0.053450707,move
-0.7254221,-0.1229229,3.3129473,0.37216964,0.025045475,0.13408493,move
-0.7254221,-0.1229229,3.3129473,0.37216964,0.025045475,0.13408493,move
-0.7559027,0.113223076,2.282318,0.4185954,0.37751472,0.33444872,move
-0.7559027,0.113223076,2.282318,0.4185954,0.37751472,0.33444872,move
-0.28474924,0.9176307,0.5949516,0.31535918,0.4202753,0.48166725,move
-0.28474924,0.9176307,0.5949516,0.31535918,0.4202753,0.48166725,move
0.847394,1.7132406,0.648015,0.046578474,0.07696902,0.43951756,move
0.847394,1.7132406,0.648015,0.046578474,0.07696902,0.43951756,move
0.98866343,1.314311,1.7548113,-0.17333302,-0.19547687,0.17623462,move
0.98866343,1.314311,1.7548113,-0.17333302,-0.19547687,0.17623462,move
0.0798023,0.068897724,3.165204,-0.2667954,-0.30176744,-0.058948494,move
0.0798023,0.068897724,3.165204,-0.2667954,-0.30176744,-0.058948494,move
-1.2881074,-0.77436876,2.8914118,-0.22525656,0.028710667,-0.11759156,move
-1.2881074,-0.77436876,2.8914118,-0.22525656,0.028710667,-0.11759156,move
-2.0279777,-1.2743354,0.86512375,-0.18188512,0.40500367,0.011911872,move
-2.0279777,-1.2743354,0.86512375,-0.18188512,0.40500367,0.011911872,move
-2.0279777,-1.2743354,0.86512375,-0.1928807,0.33841935,0.2452624,move
-1.5658324,-0.9414139,-0.8064456,-0.1928807,0.33841935,0.2452624,move
-0.7327122,-0.6393466,-1.1152463,-0.1049161,-0.18936823,0.3539964,move
-0.7327122,-0.6393466,-1.1152463,-0.1049161,-0.18936823,0.3539964,move
-0.039859124,-0.75173616,-1.079423,-0.020005837,-0.4728097,0.33322698,move
-0.039859124,-0.75173616,-1.079423,-0.020005837,-0.4728097,0.33322698,move
-0.039859124,-0.75173616,-1.079423,-0.065209866,-0.3463606,0.24220806,move
0.3103664,-1.0032611,-1.3443217,-0.065209866,-0.3463606,0.24220806,move
0.31468117,-1.230041,-1.5910115,-0.15012014,-0.16676621,0.14202617,move
0.31468117,-1.230041,-1.5910115,-0.15012014,-0.16676621,0.14202617,move
0.26659256,-1.1109982,-1.3671136,-0.19165897,-0.2125811,0.062002823,move
0.26659256,-1.1109982,-1.3671136,-0.19165897,-0.2125811,0.062002823,move
0.51390874,-0.7001662,-1.1945043,-0.13729197,-0.18570304,-0.025961773,move
0.51390874,-0.7001662,-1.1945043,-0.13729197,-0.18570304,-0.025961773,move
0.51390874,-0.7001662,-1.1945043,-0.11530081,-0.065973446,-0.16462818,move
0.24033655,-0.5235672,-1.3704238,-0.11530081,-0.065973446,-0.16462818,move
-0.38453823,-0.57911587,-1.3514776,-0.1226312,-0.009773844,-0.2770274,move
-0.38453823,-0.57911587,-1.3514776,-0.1226312,-0.009773844,-0.2770274,move
-0.38453823,-0.57911587,-1.3514776,-0.047494773,-0.0421497,-0.29229903,move
-1.0924574,-0.6355567,-0.86040163,-0.047494773,-0.0421497,-0.29229903,move
-1.4093702,-0.5497451,-0.8930607,0.05207626,-0.10934488,-0.23915374,move
-1.4093702,-0.5497451,-0.8930607,0.05207626,-0.10934488,-0.23915374,move
-1.4762022,-0.34800768,-0.88009214,0.02397646,-0.05131268,-0.17256944,move
-1.4762022,-0.34800768,-0.88009214,0.02397646,-0.05131268,-0.17256944,move
-1.4762022,-0.34800768,-0.88009214,-0.059101213,0.023823744,-0.14630222,move
-1.1164491,-0.075494766,-0.4178586,-0.059101213,0.023823744,-0.14630222,move
-0.7791187,0.18868303,0.13560486,-0.055436023,0.052534413,-0.19394971,move
-0.7791187,0.18868303,0.13560486,-0.055436023,0.052534413,-0.19394971,move
-0.8917675,0.08356905,0.45226002,0.13698652,-0.015271631,-0.25686884,move
-0.8917675,0.08356905,0.45226002,0.13698652,-0.015271631,-0.25686884,move
-1.1416309,0.073800564,0.3165207,0.3098614,-0.18753563,-0.19883664,move
-1.1416309,0.073800564,0.3165207,0.3098614,-0.18753563,-0.19883664,move
-0.4750506,0.51277447,0.92839146,0.35811976,-0.3182608,-0.122478485,move
-0.4750506,0.51277447,0.92839146,0.35811976,-0.3182608,-0.122478485,move
-0.4750506,0.51277447,0.92839146,0.36056322,-0.3286455,-0.160963,move
-0.06689751,0.71550035,1.7877722,0.36056322,-0.3286455,-0.160963,move
0.39089286,0.84696245,2.0887957,0.4014912,-0.18692477,-0.23060162,move
0.39089286,0.84696245,2.0887957,0.4014912,-0.18692477,-0.23060162,move
0.08379736,0.87025976,1.8111639,0.46502116,-0.040927973,-0.34666604,move
0.08379736,0.87025976,1.8111639,0.46502116,-0.040927973,-0.34666604,move
0.08379736,0.87025976,1.8111639,0.49128836,0.064751714,-0.3894266,move
-0.3644699,0.5822501,0.92787457,0.49128836,0.064751714,-0.3894266,move
-0.31040278,0.5069275,0.98061466,0.37400225,0.05497787,-0.37293324,move
-0.31040278,0.5069275,0.98061466,0.37400225,0.05497787,-0.37293324,move
-0.31040278,0.5069275,0.98061466,0.20173825,0.045814894,-0.32345316,move
-0.60088646,0.5465174,1.458044,0.20173825,0.045814894,-0.32345316,move
-0.93621624,0.80329657,0.9719391,0.088728175,0.17592919,-0.26908615,move
-0.93621624,0.80329657,0.9719391,-0.12812899,0.084910266,-0.2501493,move
-0.93621624,0.80329657,0.9719391,-0.12812899,0.084910266,-0.2501493,move
-0.34795767,0.7416978,-0.4037304,-0.12812899,0.084910266,-0.2501493,move
0.19698505,-0.035143852,0.95334625,-0.45738536,-0.29932398,-0.35827246,move
0.19698505,-0.035143852,0.95334625,-0.45738536,-0.29932398,-0.35827246,move
0.58507997,-0.8423543,3.524085,-0.5001459,-0.4147775,-0.38759398,move
0.58507997,-0.8423543,3.524085,-0.5001459,-0.4147775,-0.38759398,move
0.58507997,-0.8423543,3.524085,-0.21303925,-0.15027285,-0.3155119,move
0.028612211,-1.4266138,3.5336752,-0.21303925,-0.15027285,-0.3155119,move
-0.05723901,-1.6242075,1.4028177,0.01786781,0.17531833,-0.09682214,move
-0.05723901,-1.6242075,1.4028177,0.01786781,0.17531833,-0.09682214,move
0.4865243,-1.2338033,-1.0254388,0.06918049,0.3023783,0.079107046,move
0.4865243,-1.2338033,-1.0254388,0.06918049,0.3023783,0.079107046,move
0.6606766,-1.0427675,-2.4843264,-0.015118915,0.15393804,0.09621128,move
0.6606766,-1.0427675,-2.4843264,-0.015118915,0.15393804,0.09621128,move
0.35671237,-1.2975836,-1.7806692,-0.21426098,-0.14110987,0.034513887,move
0.35671237,-1.2975836,-1.7806692,-0.21426098,-0.14110987,0.034513887,move
0.028186962,-1.5774808,-0.05699253,-0.26923886,-0.20280726,0.05100725,move
0.028186962,-1.5774808,-0.05699253,-0.26923886,-0.20280726,0.05100725,move
0.03880976,-1.3827853,0.01064682,-0.031612277,-0.10934488,0.12186762,move
0.03880976,-1.3827853,0.01064682,-0.031612277,-0.10934488,0.12186762,move
0.5722573,-0.93744326,-1.4784122,0.19501872,0.002443461,0.17256944,move
0.5722573,-0.93744326,-1.4784122,0.19501872,0.002443461,0.17256944,move
0.5722573,-0.93744326,-1.4784122,0.14553864,0.057421334,0.10293079,move
0.61565983,-0.52915955,-2.6275063,0.14553864,0.057421334,0.10293079,move
0.28094798,-0.18519115,-2.3825731,-0.07070765,0.050701816,-0.0021380284,move
0.28094798,-0.18519115,-2.3825731,-0.07070765,0.050701816,-0.0021380284,move
0.28094798,-0.18519115,-2.3825731,-0.19043724,-0.015882496,-0.06688975,move
0.07400589,-0.042697906,-1.5470657,-0.19043724,-0.015882496,-0.06688975,move
0.07400589,-0.042697906,-1.5470657,-0.18066339,-0.057421334,-0.110872045,move
0.26419365,0.14688158,-0.67044497,-0.18066339,-0.057421334,-0.110872045,move
0.57072777,0.44849062,-0.5897093,-0.110413894,0.040927973,-0.16768251,move
0.57072777,0.44849062,-0.5897093,-0.110413894,0.040927973,-0.16768251,move
0.45953166,0.45227528,-0.97536755,-0.071318515,0.11056661,-0.24220806,move
0.45953166,0.45227528,-0.97536755,-0.071318515,0.11056661,-0.24220806,move
0.105861425,0.20995188,-1.2211571,-0.10247265,0.034208454,-0.2556471,move
0.105861425,0.20995188,-1.2211571,-0.10247265,0.034208454,-0.2556471,move
-0.2740762,0.14324665,-0.56755877,-0.1684461,-0.027488936,-0.183565,move
-0.2740762,0.14324665,-0.56755877,-0.1684461,-0.027488936,-0.183565,move
-0.61043304,0.14660454,0.35921,-0.20631973,0.080634214,-0.054061573,move
-0.61043304,0.14660454,0.35921,-0.20631973,0.080634214,-0.054061573,move
-0.43977028,0.34014177,0.5961218,-0.1226312,0.18325958,0.110872045,move
-0.43977028,0.34014177,0.5961218,-0.1226312,0.18325958,0.110872045,move
0.076686054,0.63807726,0.2220068,0.0032070426,0.15760323,0.23793201,move
0.076686054,0.63807726,0.2220068,0.0032070426,0.15760323,0.23793201,move
0.076686054,0.63807726,0.2220068,0.05024367,-0.069027774,0.27885997,move
0.5691662,0.8888297,0.41185856,0.05024367,-0.069027774,0.27885997,move
0.5691662,0.8888297,0.41185856,0.06612616,-0.13255776,0.26175576,move
0.5886884,0.70503044,1.2939014,0.06612616,-0.13255776,0.26175576,move
0.539342,0.69065046,1.3017435,0.14676037,-0.08674286,0.2648101,move
0.539342,0.69065046,1.3017435,0.14676037,-0.08674286,0.2648101,move
0.41037706,0.8314886,1.5871716,0.29336804,0.05375614,0.2593123,move
0.41037706,0.8314886,1.5871716,0.29336804,0.05375614,0.2593123,move
-0.0072654635,0.88814735,0.29666042,0.31719178,0.16676621,0.21533,move
-0.0072654635,0.88814735,0.29666042,0.31719178,0.16676621,0.21533,move
-0.0072654635,0.88814735,0.29666042,0.22006421,0.07880162,0.22327125,move
-0.49724036,1.102395,-0.46763372,0.22006421,0.07880162,0.22327125,move
-0.48821288,1.2154617,-0.46490526,0.12599096,-0.10445796,0.23671028,move
-0.48821288,1.2154617,-0.46490526,0.12599096,-0.10445796,0.23671028,move
-1.7404101,0.8707833,-0.8158126,-0.079870634,-0.23823744,0.29046643,move
-1.7404101,0.8707833,-0.8158126,-0.079870634,-0.23823744,0.29046643,move
0.15621844,0.76201534,-0.40196276,-0.29733866,0.1337795,0.38453966,move
0.15621844,0.76201534,-0.40196276,-0.29733866,0.1337795,0.38453966,move
0.15621844,0.76201534,-0.40196276,-0.495259,-0.24801129,0.13103059,move
-1.1309468,0.20619822,-0.4188881,-0.495259,-0.24801129,0.13103059,move
-1.5737351,-1.5883114,5.144127,-0.70112056,-0.79901177,0.19150625,move
-1.5737351,-1.5883114,5.144127,-0.70112056,-0.79901177,0.19150625,move
-1.5737351,-1.5883114,5.144127,-0.4298964,0.4447099,0.36743546,move
-0.39660192,-1.25455,5.2412024,-0.4298964,0.4447099,0.36743546,move
-0.38199586,-0.6979542,0.47911263,0.037415497,0.99021256,0.35460728,move
-0.38199586,-0.6979542,0.47911263,0.037415497,0.99021256,0.35460728,move
-0.64413804,-0.81102896,-2.1816316,0.17852537,0.54244834,0.35460728,move
-0.64413804,-0.81102896,-2.1816316,0.17852537,0.54244834,0.35460728,move
-0.32333267,-0.14244604,-3.0659094,-0.035277467,0.18081611,0.38087448,move
-0.32333267,-0.14244604,-3.0659094,-0.035277467,0.18081611,0.38087448,move
-0.37522477,-0.14427853,-2.948554,-0.28023443,-0.2706133,0.2764165,move
-0.37522477,-0.14427853,-2.948554,-0.28023443,-0.2706133,0.2764165,move
-0.37522477,-0.14427853,-2.948554,-0.48426342,-0.571159,0.38698313,move
-0.6296623,-1.2042103,-2.2460065,-0.48426342,-0.571159,0.38698313,move
-0.6296623,-1.2042103,-2.2460065,-0.5655085,-0.022602014,0.3662137,move
0.42313117,-0.081623554,-0.47408676,-0.5655085,-0.022602014,0.3662137,move
0.45594096,0.17708445,-1.2756972,-0.44822237,0.05497787,0.20861048,move
0.45594096,0.17708445,-1.2756972,-0.44822237,0.05497787,0.20861048,move
0.34620062,0.0022468567,-1.8959212,-0.43050727,0.08674286,0.058948494,move
0.34620062,0.0022468567,-1.8959212,-0.43050727,0.08674286,0.058948494,move
-0.28663158,-0.1363554,-2.2329454,-0.3755294,-0.06658431,0.00580322,move
-0.28663158,-0.1363554,-2.2329454,-0.3755294,-0.06658431,0.00580322,move
-0.30332917,-0.07385874,-2.2676353,-0.3529274,-0.042760566,0.063224554,move
-0.30332917,-0.07385874,-2.2676353,-0.3529274,-0.042760566,0.063224554,move
-0.08136253,0.6967077,-2.0834455,-0.34865135,0.3023783,0.13347405,move
-0.08136253,0.6967077,-2.0834455,-0.34865135,0.3023783,0.13347405,move
0.00803718,0.87196255,-2.3774567,-0.11957687,0.07574729,0.024129177,move
0.00803718,0.87196255,-2.3774567,-0.11957687,0.07574729,0.024129177,move
-0.7520061,0.57066107,-2.9550982,0.017256944,-0.10995574,-0.035124753,move
-0.7520061,0.57066107,-2.9550982,0.017256944,-0.10995574,-0.035124753,move
-1.3971732,0.8565521,-3.1158166,-0.12751812,0.040927973,0.05955936,move
-1.3971732,0.8565521,-3.1158166,-0.12751812,0.040927973,0.05955936,move
-1.5158179,1.1391315,-2.540948,-0.19165897,-0.012217305,0.124311075,move
-1.5158179,1.1391315,-2.540948,-0.19165897,-0.012217305,0.124311075,move
-0.92059684,1.317986,-1.9102778,-0.10247265,-0.061086524,0.1957823,move
-0.92059684,1.317986,-1.9102778,-0.10247265,-0.061086524,0.1957823,move
-0.38774627,2.5172954,-2.5323296,-0.025503624,0.03970624,0.24098633,move
-0.38774627,2.5172954,-2.5323296,-0.025503624,0.03970624,0.24098633,move
-0.12841596,3.0859828,-2.288619,-0.12507465,0.03726278,0.11636983,move
-0.12841596,3.0859828,-2.288619,-0.12507465,0.03726278,0.11636983,move
-0.12841596,3.0859828,-2.288619,-0.23136522,0.0061086523,-0.10720685,move
-0.80534565,2.742672,-2.282762,-0.23136522,0.0061086523,-0.10720685,move
-0.80534565,2.742672,-2.282762,-0.38041633,-0.2669481,-0.1908954,move
-1.2108173,2.4798484,-0.6236706,-0.38041633,-0.2669481,-0.1908954,move
-1.2108173,2.4798484,-0.6236706,-0.18799378,-0.5516113,-0.16035213,move
0.2263878,2.4149017,2.9421043,-0.18799378,-0.5516113,-0.16035213,move
0.2263878,2.4149017,2.9421043,0.27687466,-0.20097467,-0.4260785,move
1.0338563,2.0789938,2.2660055,0.27687466,-0.20097467,-0.4260785,move
1.0338563,2.0789938,2.2660055,0.075289145,0.3848451,-0.55680364,move
-0.5462233,0.7713456,-1.5878143,0.075289145,0.3848451,-0.55680364,move
-1.7656624,0.22304392,-3.2070117,-0.95524055,0.9773844,-0.35094208,move
-1.7656624,0.22304392,-3.2070117,-0.95524055,0.9773844,-0.35094208,move
-1.3666906,0.5573087,-0.43042278,-1.8116736,1.03786,-0.05222898,move
-1.3666906,0.5573087,-0.43042278,-1.8116736,1.03786,-0.05222898,move
0.6737236,0.48806763,3.0404625,-1.637577,0.59498274,0.21166481,move
0.6737236,0.48806763,3.0404625,-1.637577,0.59498274,0.21166481,move
1.2408048,0.44498277,3.859682,-0.61621034,-0.26389378,0.28802297,move
1.2408048,0.44498277,3.859682,-0.61621034,-0.26389378,0.28802297,move
1.8978816,0.21391344,2.3031807,0.1479821,-1.0030408,0.3032946,move
1.8978816,0.21391344,2.3031807,0.1479821,-1.0030408,0.3032946,move
1.6198459,-0.04073763,1.9490585,-0.075594574,-0.6805039,0.20677789,move
1.6198459,-0.04073763,1.9490585,-0.075594574,-0.6805039,0.20677789,move
1.5263878,0.0040068626,1.9322519,-0.6076582,0.3640757,0.27580565,move
1.5263878,0.0040068626,1.9322519,-0.6076582,0.3640757,0.27580565,move
1.80886,0.9123657,4.212373,-0.2948952,0.61819565,0.160963,move
1.80886,0.9123657,4.212373,-0.2948952,0.61819565,0.160963,move
2.3097937,1.1254482,2.4034328,0.36117408,0.09162979,0.09621128,move
2.3097937,1.1254482,2.4034328,0.36117408,0.09162979,0.09621128,move
2.7546875,1.1576195,1.730053,0.29153544,0.095294975,-0.08460484,move
2.7546875,1.1576195,1.730053,0.29153544,0.095294975,-0.08460484,move
2.2122087,0.6936853,0.95643616,-0.049938235,0.94134337,-0.26175576,move
2.2122087,0.6936853,0.95643616,-0.049938235,0.94134337,-0.26175576,move
2.4382334,0.7158463,0.9522066,-0.35964692,1.4080443,-0.34055737,move
2.4382334,0.7158463,0.9522066,-0.35964692,1.4080443,-0.34055737,move
0.6371941,3.3063567,-2.8544102,-0.7958047,1.0042624,-0.32406402,move
0.6371941,3.3063567,-2.8544102,-0.7958047,1.0042624,-0.32406402,move
-0.0063378215,4.411089,-0.9033632,-0.7994699,0.07574729,-0.31306845,move
-0.0063378215,4.411089,-0.9033632,-0.7994699,0.07574729,-0.31306845,move
0.62086266,4.3289824,0.5832529,-0.15012014,-1.087951,-0.24709499,move
0.62086266,4.3289824,0.5832529,-0.15012014,-1.087951,-0.24709499,move
0.44817442,2.8746948,-0.78827477,0.11682798,-1.5528195,-0.27458394,move
0.44817442,2.8746948,-0.78827477,0.11682798,-1.5528195,-0.27458394,move
0.6207716,1.6260176,1.3623266,-0.6052147,-0.6469063,-0.24648413,move
0.6207716,1.6260176,1.3623266,-0.6052147,-0.6469063,-0.24648413,move
0.2182141,1.4736784,1.3174486,-0.79458296,0.6768387,-0.22571471,move
0.2182141,1.4736784,1.3174486,-0.79458296,0.6768387,-0.22571471,move
-0.004606247,2.689795,-3.0196,-0.1647809,1.1710287,-0.13652839,move
-0.004606247,2.689795,-3.0196,-0.1647809,1.1710287,-0.13652839,move
0.25707173,3.1967273,-7.73516,0.420428,0.21197024,-0.38759398,move
0.25707173,3.1967273,-7.73516,0.420428,0.21197024,-0.38759398,move
-0.7705724,0.9015095,-6.215781,-0.18310685,-0.8912524,-0.6374379,move
-0.7705724,0.9015095,-6.215781,-0.18310685,-0.8912524,-0.6374379,move
-0.7705724,0.9015095,-6.215781,-0.6638578,-1.1301007,-0.42852196,move
-1.788924,0.0124681,4.541518,-0.6638578,-1.1301007,-0.42852196,move
-1.788924,0.0124681,4.541518,0.36850446,0.05131268,0.06811147,move
-1.8557413,0.4424982,9.411981,0.36850446,0.05131268,0.06811147,move
-1.8557413,0.4424982,9.411981,1.5334245,1.4013249,0.23915374,move
-0.92750126,1.139935,1.298378,1.5334245,1.4013249,0.23915374,move
-1.63694,1.5971091,-5.788916,1.1785117,1.7843374,0.22693644,move
-1.63694,1.5971091,-5.788916,1.1785117,1.7843374,0.22693644,move
-1.9077203,2.0952094,-4.6126375,0.56031615,0.5345071,0.39614612,move
-1.9077203,2.0952094,-4.6126375,0.56031615,0.5345071,0.39614612,move
-0.69743174,3.031046,-0.07265282,0.31474832,-0.86315256,0.5140431,move
-0.69743174,3.031046,-0.07265282,0.31474832,-0.86315256,0.5140431,move
-0.69743174,3.031046,-0.07265282,0.30863968,-0.8723156,0.2959642,move
0.43331647,2.8711612,6.4798603,0.30863968,-0.8723156,0.2959642,move
-1.0230219,1.502388,4.395074,0.7912232,0.45142943,0.053450707,move
-1.0230219,1.502388,4.395074,0.7912232,0.45142943,0.053450707,move
-2.8506837,0.57365465,-0.1476059,0.8907942,0.6737844,0.1255328,move
-2.8506837,0.57365465,-0.1476059,0.8907942,0.6737844,0.1255328,move
-2.370184,0.65159416,-1.7635055,0.6281222,0.03848451,0.48349985,move
-2.370184,0.65159416,-1.7635055,0.6281222,0.03848451,0.48349985,move
-2.4436169,0.54735804,-1.7216401,0.29764408,-0.59437186,0.713796,move
-2.4436169,0.54735804,-1.7216401,0.29764408,-0.59437186,0.713796,move
-2.4436169,0.54735804,-1.7216401,0.075289145,-0.344528,0.57635134,move
0.3033825,0.9718895,-0.6446543,0.075289145,-0.344528,0.57635134,move
0.49168375,-0.35681725,-2.4847918,-0.26374108,-0.13194689,0.34788775,move
0.49168375,-0.35681725,-2.4847918,-0.26374108,-0.13194689,0.34788775,move
0.4707168,-1.4442594,-1.5991297,-0.6479753,-0.33414328,0.17256944,move
0.4707168,-1.4442594,-1.5991297,-0.6479753,-0.33414328,0.17256944,move
0.86494553,-1.7125766,-0.19988346,-0.5850562,-0.61208695,0.14080444,move
0.86494553,-1.7125766,-0.19988346,-0.5850562,-0.61208695,0.14080444,move
0.57460845,-2.0341973,0.21417046,-0.04932737,-0.57910025,0.2519819,move
0.57460845,-2.0341973,0.21417046,-0.04932737,-0.57910025,0.2519819,move
0.57460845,-2.0341973,0.21417046,0.22617286,-0.21380283,0.47983465,move
1.4536071,-1.340229,-3.468286,0.22617286,-0.21380283,0.47983465,move
3.0893035,-0.66818833,-1.5488272,-0.3828598,-0.2846632,0.24404067,move
3.0893035,-0.66818833,-1.5488272,-0.3828598,-0.2846632,0.24404067,move
3.064705,-0.5938952,3.583045,-0.48609602,-0.044593163,-0.17012598,move
3.064705,-0.5938952,3.583045,-0.48609602,-0.044593163,-0.17012598,move
0.47080985,-1.0503256,3.435895,0.29703322,0.45814893,-0.5036584,move
0.47080985,-1.0503256,3.435895,0.29703322,0.45814893,-0.5036584,move
-0.525192,-1.2417367,-2.8504653,1.0154108,0.54367006,-0.23548855,move
-0.525192,-1.2417367,-2.8504653,1.0154108,0.54367006,-0.23548855,move
1.896901,0.57516813,-5.7395287,0.6556111,-0.3145956,-0.14263703,move
1.896901,0.57516813,-5.7395287,0.6556111,-0.3145956,-0.14263703,move
2.106304,0.9661608,0.19589138,-0.35353827,-0.57910025,-0.52015173,move
2.106304,0.9661608,0.19589138,-0.35353827,-0.57910025,-0.52015173,move
0.18041721,-0.3115008,5.508563,-0.48487428,-0.093462385,-0.8029824,move
0.18041721,-0.3115008,5.508563,-0.48487428,-0.093462385,-0.8029824,move
-0.8972626,-1.3751042,3.730978,0.33857206,0.30176744,-0.47616947,move
-0.8972626,-1.3751042,3.730978,0.33857206,0.30176744,-0.47616947,move
0.86934376,0.037495136,-1.6718369,0.77656245,0.13683382,-0.005192355,move
0.86934376,0.037495136,-1.6718369,0.77656245,0.13683382,-0.005192355,move
1.9130546,2.1685486,-4.0198884,0.2658791,-0.35308012,-0.04428773,move
1.9130546,2.1685486,-4.0198884,0.2658791,-0.35308012,-0.04428773,move
1.9130546,2.1685486,-4.0198884,-0.6027713,-0.6078109,-0.3032946,move
1.5582854,2.8399596,-0.8696451,-0.6027713,-0.6078109,-0.3032946,move
1.5582854,2.8399596,-0.8696451,-0.6027713,-0.6078109,-0.3032946,move
1.6893103,2.5422373,2.7898808,-0.9558514,-0.6010914,-0.5543602,move
1.4649352,1.2757165,3.8562336,-0.6907359,-0.36468655,-0.6960809,move
1.4649352,1.2757165,3.8562336,-0.6907359,-0.36468655,-0.6960809,move
0.5723089,1.1167102,0.561924,-0.19898935,0.059253927,-0.73639804,move
0.5723089,1.1167102,0.561924,-0.19898935,0.059253927,-0.73639804,move
0.5723089,1.1167102,0.561924,-0.056046885,0.5009095,-0.68019843,move
-0.03059636,1.8316607,-2.8505654,-0.056046885,0.5009095,-0.68019843,move
-0.9962791,1.8596332,-4.728338,-0.25152376,0.65301496,-0.72295904,move
-0.9962791,1.8596332,-4.728338,-0.25152376,0.65301496,-0.72295904,move
-2.399542,0.9197836,-1.503931,-0.48243082,0.13988814,-0.6588182,move
-2.399542,0.9197836,-1.503931,-0.48243082,0.13988814,-0.6588182,move
-3.4137273,0.024192572,3.9699001,0.23839016,-0.6786713,-0.26236662,move
-3.4137273,0.024192572,3.9699001,0.23839016,-0.6786713,-0.26236662,move
-3.0053325,-0.7240279,4.2117023,1.3910929,0.015271631,0.3032946,move
-3.0053325,-0.7240279,4.2117023,1.3910929,0.015271631,0.3032946,move
-2.0114536,0.38674212,-3.1177573,1.8730656,1.0940597,0.61300325,move
-2.0114536,0.38674212,-3.1177573,1.8730656,1.0940597,0.61300325,move
-0.9122175,1.4724998,-8.343122,1.114371,1.359786,0.6930266,move
-0.9122175,1.4724998,-8.343122,1.114371,1.359786,0.6930266,move
-0.4723593,2.3397555,-5.6114855,0.05757405,0.0067195175,0.5012149,move
-0.4723593,2.3397555,-5.6114855,0.05757405,0.0067195175,0.5012149,move
-1.3762507,1.6414089,4.6174955,-0.1769982,-1.16492,0.21960606,move
-1.3762507,1.6414089,4.6174955,-0.1769982,-1.16492,0.21960606,move
-2.3433888,-0.8554938,7.154256,0.5010622,-0.70066243,0.22571471,move
-2.3433888,-0.8554938,7.154256,0.5010622,-0.70066243,0.22571471,move
-2.4396594,-0.96718574,7.209959,0.7979427,0.4392121,0.5653558,move
-2.4396594,-0.96718574,7.209959,0.7979427,0.4392121,0.5653558,move
-0.7025715,0.31420517,-2.1653214,0.24694228,0.63224554,0.6123924,move
-0.7025715,0.31420517,-2.1653214,0.24694228,0.63224554,0.6123924,move
-0.6722176,0.29859257,-2.1555958,-0.37491855,-0.030543262,0.4560109,move
-0.6722176,0.29859257,-2.1555958,-0.37491855,-0.030543262,0.4560109,move
-0.264273,0.06213665,-0.7291322,-0.590554,-0.4288274,0.3381139,move
-0.264273,0.06213665,-0.7291322,-0.590554,-0.4288274,0.3381139,move
-0.12491992,-1.9533308,1.8265381,-0.56306505,-0.06658431,0.35460728,move
-0.12491992,-1.9533308,1.8265381,-0.56306505,-0.06658431,0.35460728,move
0.87472546,-2.1372547,0.93655777,-0.52946746,0.111177474,0.3827071,move
0.87472546,-2.1372547,0.93655777,-0.52946746,0.111177474,0.3827071,move
1.6716299,-1.73651,-0.65339375,-0.43844852,0.03848451,0.28496864,move
1.6716299,-1.73651,-0.65339375,-0.43844852,0.03848451,0.28496864,move
1.2636844,-2.1025035,-1.5646343,-0.33643404,-0.32925636,0.106595986,move
1.2636844,-2.1025035,-1.5646343,-0.33643404,-0.32925636,0.106595986,move
1.1249297,-2.750876,0.7232094,-0.32543847,-0.63163465,0.07360926,move
1.1249297,-2.750876,0.7232094,-0.32543847,-0.63163465,0.07360926,move
2.4843926,-2.949094,3.0628328,-0.063988134,-0.17287487,0.21166481,move
2.4843926,-2.949094,3.0628328,-0.063988134,-0.17287487,0.21166481,move
2.4715354,-2.9623873,3.0693464,-0.063988134,-0.17287487,0.21166481,move
2.4715354,-2.9623873,3.0693464,0.6440047,0.5852089,0.21594086,move
1.4383882,-1.8625998,-2.399716,1.2658654,0.24801129,0.04428773,move
1.4383882,-1.8625998,-2.399716,1.2658654,0.24801129,0.04428773,move
-0.62995446,-0.34965277,-3.7290297,1.4576772,-0.39767328,0.21044308,move
-0.62995446,-0.34965277,-3.7290297,1.4576772,-0.39767328,0.21044308,move
3.1010883,2.0139875,-6.2614536,1.0294607,-0.95478237,0.20555615,move
3.1010883,2.0139875,-6.2614536,1.0294607,-0.95478237,0.20555615,move
4.373896,2.5133438,-0.50647116,-0.33765575,-0.86498517,-0.80909103,move
4.373896,2.5133438,-0.50647116,-0.33765575,-0.86498517,-0.80909103,move
4.373896,2.5133438,-0.50647116,-1.0041097,0.42271876,-1.5696182,move
-2.1220336,-1.4440956,4.1605387,-1.0041097,0.42271876,-1.5696182,move
-4.8410764,-2.1303046,4.414545,-0.5367978,0.657291,-0.9941832,move
-4.8410764,-2.1303046,4.414545,-0.5367978,0.657291,-0.9941832,move
-1.6089456,0.2908721,0.7391319,0.20845777,0.018936822,-0.3032946,move
-1.6089456,0.2908721,0.7391319,0.20845777,0.018936822,-0.3032946,move
-1.6089456,0.2908721,0.7391319,0.21090123,-0.6750061,-0.2648101,move
-0.23600686,2.000979,-1.2166333,0.21090123,-0.6750061,-0.2648101,move
-0.32989204,1.9918814,-1.2119517,-0.48792863,-0.7733554,-0.43951756,move
-0.32989204,1.9918814,-1.2119517,-0.48792863,-0.7733554,-0.43951756,move
-1.6580609,1.2898173,4.562006,-0.93202764,-0.6017023,-0.20311269,move
-1.6580609,1.2898173,4.562006,-0.93202764,-0.6017023,-0.20311269,move
1.6042454,2.2793221,5.49615,-0.5661194,-0.10934488,0.06627888,move
1.6042454,2.2793221,5.49615,-0.5661194,-0.10934488,0.06627888,move
1.6010699,2.34697,5.4621944,0.08750644,0.24129178,-0.23243423,move
1.6010699,2.34697,5.4621944,0.08750644,0.24129178,-0.23243423,move
0.09839812,2.8763614,-3.0842185,0.26282477,0.38973203,-0.6924158,move
0.09839812,2.8763614,-3.0842185,0.26282477,0.38973203,-0.6924158,move
-2.5782547,0.52134466,-2.9569297,0.20479257,0.106901415,-0.84574294,move
-2.5782547,0.52134466,-2.9569297,0.20479257,0.106901415,-0.84574294,move
-2.5782547,0.52134466,-2.9569297,0.4980079,-0.057421334,-0.4541783,move
-3.1213188,-1.4199712,-0.94871044,0.4980079,-0.057421334,-0.4541783,move
-2.1083229,-1.2656746,-1.4981661,0.79183406,0.3304781,0.0852157,move
-2.1083229,-1.2656746,-1.4981661,0.79183406,0.3304781,0.0852157,move
-0.96425664,-1.0925324,-1.4699869,0.81199265,0.89736104,0.36132678,move
-0.96425664,-1.0925324,-1.4699869,0.81199265,0.89736104,0.36132678,move
-3.325229,-1.1767051,-2.6383715,1.0587822,1.0818423,0.3051272,move
-3.325229,-1.1767051,-2.6383715,1.0587822,1.0818423,0.3051272,move
-4.0072937,-0.9541788,-7.282017,1.30435,0.6969972,0.5928447,move
-4.0072937,-0.9541788,-7.282017,1.30435,0.6969972,0.5928447,move
-0.65675724,0.86478233,-8.054927,0.40332377,-0.61758476,0.990518,move
-0.65675724,0.86478233,-8.054927,0.40332377,-0.61758476,0.990518,move
1.1729252,1.01721,3.5438967,-0.5874997,-1.4764613,0.6783658,move
1.1729252,1.01721,3.5438967,-0.5874997,-1.4764613,0.6783658,move
-0.3526067,-0.16154194,9.94522,-0.3352123,-0.6914995,0.19761491,move
-0.3526067,-0.16154194,9.94522,-0.3352123,-0.6914995,0.19761491,move
-3.2638335,-1.8771174,6.5562315,0.20662516,0.4392121,0.1853976,move
-3.2638335,-1.8771174,6.5562315,0.20662516,0.4392121,0.1853976,move
-0.31109306,-0.5439396,2.0280867,0.20723604,0.37384954,0.5946773,move
-0.31109306,-0.5439396,2.0280867,0.20723604,0.37384954,0.5946773,move
3.274354,1.3777852,2.2381153,0.019089539,-0.06841691,0.45723262,move
3.274354,1.3777852,2.2381153,0.019089539,-0.06841691,0.45723262,move
2.3653846,0.7309394,1.1680069,-0.10980303,0.36774087,-0.14813483,move
2.3653846,0.7309394,1.1680069,-0.10980303,0.36774087,-0.14813483,move
0.42751202,-1.5710886,-1.7469645,-0.27046058,0.81000733,-0.3662137,move
0.42751202,-1.5710886,-1.7469645,-0.27046058,0.81000733,-0.3662137,move
0.4068673,-2.6337895,-3.4251165,-0.47571132,0.6114761,-0.23548855,move
0.4068673,-2.6337895,-3.4251165,-0.47571132,0.6114761,-0.23548855,move
0.4068673,-2.6337895,-3.4251165,-0.495259,-0.35063666,-0.18173242,move
0.770783,-2.9406946,-1.1844649,-0.495259,-0.35063666,-0.18173242,move
0.5011533,-3.2553694,1.4118242,-0.21792617,-0.86315256,-0.15241088,move
0.5011533,-3.2553694,1.4118242,-0.21792617,-0.86315256,-0.15241088,move
-0.29976314,-4.0472445,1.6804552,-0.063988134,-0.55771995,-0.04917465,move
-0.29976314,-4.0472445,1.6804552,-0.063988134,-0.55771995,-0.04917465,move
-0.3644196,-4.029384,1.6700315,-0.10247265,0.18936823,0.24220806,move
-0.3644196,-4.029384,1.6700315,-0.10247265,0.18936823,0.24220806,move
0.25620735,-3.9924135,1.6667461,0.16814066,0.5564982,0.4908302,move
0.25620735,-3.9924135,1.6667461,0.16814066,0.5564982,0.4908302,move
1.9046078,-1.2913406,-0.27641964,0.99280876,0.21013765,0.5696318,move
1.9046078,-1.2913406,-0.27641964,0.99280876,0.21013765,0.5696318,move
1.4698639,0.40266037,-5.7693048,1.4362969,-0.36651915,0.49693888,move
1.4698639,0.40266037,-5.7693048,1.4362969,-0.36651915,0.49693888,move
1.4698639,0.40266037,-5.7693048,0.4558582,-0.7470882,0.24648413,move
2.8015609,1.2363644,-4.6030064,0.4558582,-0.7470882,0.24648413,move
1.3792827,-0.3087263,3.0432463,-0.61743206,-0.6065892,-0.28985557,move
1.3792827,-0.3087263,3.0432463,-0.61743206,-0.6065892,-0.28985557,move
-0.17830826,-1.1247048,4.0033455,-0.36025777,-0.07269296,-0.33750305,move
-0.17830826,-1.1247048,4.0033455,-0.36025777,-0.07269296,-0.33750305,move
1.7758982,0.5225239,2.6748714,0.06734789,-0.34208453,-0.26358834,move
1.7758982,0.5225239,2.6748714,0.06734789,-0.34208453,-0.26358834,move
0.64806247,0.85725737,-0.182271,0.15653422,-0.29810223,-0.528093,move
0.64806247,0.85725737,-0.182271,0.15653422,-0.29810223,-0.528093,move
-1.9782362,0.04606819,-2.1475673,-0.04627304,-0.3481932,-0.6081163,move
-1.9782362,0.04606819,-2.1475673,-0.04627304,-0.3481932,-0.6081163,move
-2.8590417,0.2718029,-1.2998614,-0.5710063,-0.40866885,-0.36254853,move
-2.8590417,0.2718029,-1.2998614,-0.5710063,-0.40866885,-0.36254853,move
0.14353883,1.6362162,2.0345058,-1.0627528,-0.18081611,-0.06261369,move
0.14353883,1.6362162,2.0345058,-1.0627528,-0.18081611,-0.06261369,move
2.8935485,2.762569,4.7713156,-0.92164296,-0.08124508,-0.30085114,move
2.8935485,2.762569,4.7713156,-0.92164296,-0.08124508,-0.30085114,move
1.5057476,2.2438855,3.0914354,-0.2790127,0.05131268,-0.7266242,move
1.5057476,2.2438855,3.0914354,-0.2790127,0.05131268,-0.7266242,move
-1.484229,1.6628165,-1.171987,0.028863383,0.3359759,-0.9202685,move
-1.484229,1.6628165,-1.171987,0.028863383,0.3359759,-0.9202685,move
-2.8249142,1.0065312,-3.851728,-0.15561792,0.41722095,-0.8445212,move
-2.8249142,1.0065312,-3.851728,-0.15561792,0.41722095,-0.8445212,move
-2.8249142,1.0065312,-3.851728,-0.46410486,0.055588737,-0.73761976,move
-1.9824966,-0.3563609,-2.4081635,-0.46410486,0.055588737,-0.73761976,move
-2.5072284,-1.1957078,2.9704294,-0.49220467,-0.24129178,-0.6753115,move
-2.5072284,-1.1957078,2.9704294,-0.49220467,-0.24129178,-0.6753115,move
-4.855601,-3.901285,7.063878,0.54504454,0.09101892,-0.46944994,move
-4.855601,-3.901285,7.063878,0.54504454,0.09101892,-0.46944994,move
-5.63022,-3.9980912,0.35295773,2.0074558,1.0305296,0.38026363,move
-5.63022,-3.9980912,0.35295773,2.0074558,1.0305296,0.38026363,move
-4.2460775,-2.0618436,-8.648516,2.2194262,1.5015068,1.212873,move
-4.2460775,-2.0618436,-8.648516,2.2194262,1.5015068,1.212873,move
0.37406772,0.70290136,-11.032011,1.0031935,0.87964594,1.6099354,move
0.37406772,0.70290136,-11.032011,1.0031935,0.87964594,1.6099354,move
3.2939308,2.8068318,-0.10360432,-0.6217081,-0.6432411,1.1340714,move
3.2939308,2.8068318,-0.10360432,-0.6217081,-0.6432411,1.1340714,move
1.0076262,0.71376324,10.551497,-0.35231653,-0.22052236,-0.124311075,move
1.0076262,0.71376324,10.551497,-0.35231653,-0.22052236,-0.124311075,move
1.0076262,0.71376324,10.551497,0.7686212,0.5852089,-0.1469131,move
-3.612478,-1.8618429,4.5425434,0.7686212,0.5852089,-0.1469131,move
-3.1760592,-2.1812901,-2.7366252,0.6214027,0.32436943,0.36865717,move
-3.1760592,-2.1812901,-2.7366252,0.6214027,0.32436943,0.36865717,move
-0.079604864,-0.94811916,-2.0635142,-0.36819902,-0.16126843,0.6374379,move
-0.079604864,-0.94811916,-2.0635142,-0.36819902,-0.16126843,0.6374379,move
0.87230086,-0.67571926,1.923213,-0.8501717,-0.111177474,0.39858958,move
0.87230086,-0.67571926,1.923213,-0.8501717,-0.111177474,0.39858958,move
-0.064578995,-1.4871812,1.4247904,-0.622319,0.122783914,0.28496864,move
-0.064578995,-1.4871812,1.4247904,-0.622319,0.122783914,0.28496864,move
-0.064578995,-1.4871812,1.4247904,-0.4109596,0.15088372,0.3436117,move
0.19862726,-1.7898924,-1.1388135,-0.4109596,0.15088372,0.3436117,move
0.19862726,-1.7898924,-1.1388135,-0.57894754,-0.0030543262,0.43279803,move
0.7105848,-1.8716898,-3.177525,-0.57894754,-0.0030543262,0.43279803,move
2.139714,-1.9946086,-1.8213849,-0.81107634,-0.46670106,0.4297437,move
2.139714,-1.9946086,-1.8213849,-0.81107634,-0.46670106,0.4297437,move
2.4876952,-2.3395169,1.286521,-0.83367836,-0.8191703,0.31856623,move
2.4876952,-2.3395169,1.286521,-0.83367836,-0.8191703,0.31856623,move
3.5501134,-2.6047797,4.469105,-0.300393,-0.8185594,0.25992316,move
3.5501134,-2.6047797,4.469105,-0.300393,-0.8185594,0.25992316,move
2.0073545,-3.6043677,2.2284222,0.57803124,-0.08246681,-0.03756821,move
2.0073545,-3.6043677,2.2284222,0.57803124,-0.08246681,-0.03756821,move
-0.56518126,-4.0370417,-3.3527656,1.0086912,0.56321776,-0.11209377,move
-0.56518126,-4.0370417,-3.3527656,1.0086912,0.56321776,-0.11209377,move
-3.7411666,-3.9655473,-5.805075,0.7619017,0.17531833,0.26419923,move
-3.7411666,-3.9655473,-5.805075,0.7619017,0.17531833,0.26419923,move
-3.8113816,-4.0750093,-5.7323956,0.44730607,-0.83077675,1.1114693,move
-3.8113816,-4.0750093,-5.7323956,0.44730607,-0.83077675,1.1114693,move
7.258561,3.1739526,-2.1612496,-0.29428434,-0.91874135,0.74067414,move
7.258561,3.1739526,-2.1612496,-0.29428434,-0.91874135,0.74067414,move
7.258561,3.1739526,-2.1612496,-1.3797919,-0.19547687,-0.732122,move
4.9161916,1.2695899,3.7545347,-1.3797919,-0.19547687,-0.732122,move
-2.0311375,-2.4762793,8.035723,-1.4677565,0.08246681,-1.5109752,move
-2.0311375,-2.4762793,8.035723,-1.4677565,0.08246681,-1.5109752,move
-2.346185,-1.7327039,7.5639315,-0.6779077,-0.089186326,-0.88422745,move
-2.346185,-1.7327039,7.5639315,-0.6779077,-0.089186326,-0.88422745,move
1.9187474,0.6735215,2.6528215,-0.11102476,-6.11E-04,-0.43463063,move
1.9187474,0.6735215,2.6528215,-0.11102476,-6.11E-04,-0.43463063,move
1.1299436,0.4454832,0.24015713,-0.61315596,0.33841935,-0.799928,move
1.1299436,0.4454832,0.24015713,-0.61315596,0.33841935,-0.799928,move
-1.4080936,-0.19434834,1.0153103,-0.8770498,0.2510656,-0.8371908,move
-1.4080936,-0.19434834,1.0153103,-0.8770498,0.2510656,-0.8371908,move
-1.7661371,0.02444601,2.597107,-0.65836,-0.19853121,-0.5207626,move
-1.7661371,0.02444601,2.597107,-0.65836,-0.19853121,-0.5207626,move
-0.88798225,0.6500106,2.6937227,-0.22770002,-0.33414328,-0.18173242,move
-0.88798225,0.6500106,2.6937227,-0.22770002,-0.33414328,-0.18173242,move
1.0293413,1.8555837,1.1765795,0.030085113,-0.14355333,-0.06811147,move
1.0293413,1.8555837,1.1765795,0.030085113,-0.14355333,-0.06811147,move
1.8766721,2.4873748,-0.7362108,0.082619525,0.1441642,-0.3735441,move
1.8766721,2.4873748,-0.7362108,0.082619525,0.1441642,-0.3735441,move
1.8766721,2.4873748,-0.7362108,0.053297993,0.3481932,-0.74372846,move
-0.58354974,1.5564947,-1.4104242,0.053297993,0.3481932,-0.74372846,move
-3.4776697,-0.5116687,-1.7819638,0.27137688,0.48075095,-0.70402217,move
-3.4776697,-0.5116687,-1.7819638,0.27137688,0.48075095,-0.70402217,move
-3.9258733,-2.0062513,-3.179994,0.5120578,0.23335053,-0.20433442,move
-3.9258733,-2.0062513,-3.179994,0.5120578,0.23335053,-0.20433442,move
-1.5195491,-1.3007014,-0.24041557,0.38133264,-0.106901415,0.2519819,move
-1.5195491,-1.3007014,-0.24041557,0.38133264,-0.106901415,0.2519819,move
-0.26535395,-0.25148487,4.1446247,0.57742035,0.13133603,0.2666427,move
-0.26535395,-0.25148487,4.1446247,0.57742035,0.13133603,0.2666427,move
-2.4181988,-0.50081396,-0.16030121,1.3562735,0.9272934,0.22266038,move
-2.4181988,-0.50081396,-0.16030121,1.3562735,0.9272934,0.22266038,move
-2.8177736,-0.6778388,-8.9728365,1.449736,0.95356065,0.56596667,move
-2.8177736,-0.6778388,-8.9728365,1.449736,0.95356065,0.56596667,move
0.09650996,0.7823224,-6.4217525,0.17547104,-0.6743952,0.70402217,move
0.09650996,0.7823224,-6.4217525,0.17547104,-0.6743952,0.70402217,move
1.6556214,0.72537804,4.6839094,-1.0157162,-1.3316863,0.25137106,move
1.6556214,0.72537804,4.6839094,-1.0157162,-1.3316863,0.25137106,move
-0.6874723,-0.90488577,9.246122,-0.90576047,-0.7189884,-0.34055737,move
-0.6874723,-0.90488577,9.246122,-0.90576047,-0.7189884,-0.34055737,move
-0.6874723,-0.90488577,9.246122,-0.35964692,-0.0580322,-0.31978795,move
-2.7401476,-1.8736715,6.3591013,-0.35964692,-0.0580322,-0.31978795,move
-2.032491,-1.4750905,3.239561,-0.14462234,0.20219639,0.118202426,move
-2.032491,-1.4750905,3.239561,-0.14462234,0.20219639,0.118202426,move
0.30523002,-0.08152294,0.57867813,-0.20631973,0.17104226,0.17440203,move
0.30523002,-0.08152294,0.57867813,-0.20631973,0.17104226,0.17440203,move
0.6674119,-0.18688154,-0.7083492,-0.3089451,0.11301007,-0.029626964,move
0.6674119,-0.18688154,-0.7083492,-0.3089451,0.11301007,-0.029626964,move
-0.4896664,-0.9950383,-1.3298731,-0.41706824,0.2125811,-0.17806722,move
-0.4896664,-0.9950383,-1.3298731,-0.41706824,0.2125811,-0.17806722,move
-2.092598,-2.1615372,-0.47257233,-0.5038111,0.2687807,-0.040011674,move
-2.092598,-2.1615372,-0.47257233,-0.5038111,0.2687807,-0.040011674,move
-1.9933437,-1.9950261,-0.16550446,-0.21792617,0.2003638,0.40408736,move
-1.9933437,-1.9950261,-0.16550446,-0.21792617,0.2003638,0.40408736,move
0.310044,-0.8649838,-1.5317559,0.019089539,0.08124508,0.66614854,move
0.310044,-0.8649838,-1.5317559,0.019089539,0.08124508,0.66614854,move
2.572622,0.4209218,-1.7958865,-0.13179417,0.030543262,0.5537493,move
2.572622,0.4209218,-1.7958865,-0.13179417,0.030543262,0.5537493,move
2.2507658,0.6321802,0.3300085,-0.2582433,-0.06658431,0.12858713,move
2.2507658,0.6321802,0.3300085,-0.2582433,-0.06658431,0.12858713,move
0.52852803,-0.33177996,1.2308989,0.0062613687,-0.122783914,-0.1255328,move
0.52852803,-0.33177996,1.2308989,0.0062613687,-0.122783914,-0.1255328,move
0.5106281,-0.34955692,1.2402477,0.40393466,-0.23884831,-0.076052725,move
0.5106281,-0.34955692,1.2402477,0.40393466,-0.23884831,-0.076052725,move
-0.8692649,-2.2056324,1.2412548,0.6574437,-0.14477506,0.09682214,move
-0.8692649,-2.2056324,1.2412548,0.6574437,-0.14477506,0.09682214,move
-0.49155152,-1.4172056,-0.11024666,0.76067996,0.105068825,0.30085114,move
-0.49155152,-1.4172056,-0.11024666,0.76067996,0.105068825,0.30085114,move
1.1928045,-0.10804367,-3.2235503,0.72036284,0.2761111,0.38820487,move
1.1928045,-0.10804367,-3.2235503,0.72036284,0.2761111,0.38820487,move
2.5966358,0.5519576,-3.8980737,0.24083363,-0.005497787,0.055283304,move
2.5966358,0.5519576,-3.8980737,0.24083363,-0.005497787,0.055283304,move
-0.44207612,-1.3090718,0.49129772,-0.34804046,-0.44043383,-0.52748215,move
-0.44207612,-1.3090718,0.49129772,-0.34804046,-0.44043383,-0.52748215,move
-3.1041307,-2.8534899,2.8822975,-0.7994699,-0.42210788,-0.54458636,move
-3.1041307,-2.8534899,2.8822975,-0.7994699,-0.42210788,-0.54458636,move
-1.8860425,-2.664381,8.025433,-1.2851077,-0.40683624,-0.14935656,move
-1.8860425,-2.664381,8.025433,-1.2851077,-0.40683624,-0.14935656,move
-0.56354123,-1.732559,9.135694,-0.58078015,-0.023823744,0.19211712,move
-0.56354123,-1.732559,9.135694,-0.58078015,-0.023823744,0.19211712,move
-0.56354123,-1.732559,9.135694,0.036193766,0.29993483,0.26847526,move
0.6834198,-1.0535567,1.8456202,0.036193766,0.29993483,0.26847526,move
0.9536306,-0.7655604,-1.8144741,-0.2350304,0.3903429,0.15302174,move
0.9536306,-0.7655604,-1.8144741,-0.2350304,0.3903429,0.15302174,move
-0.071150646,-1.2274401,-1.8425503,-0.5887214,0.4251622,0.018020526,move
-0.071150646,-1.2274401,-1.8425503,-0.5887214,0.4251622,0.018020526,move
-0.612805,-1.2568054,-1.0529351,-0.644921,0.31031954,0.13225232,move
-0.612805,-1.2568054,-1.0529351,-0.644921,0.31031954,0.13225232,move
0.2138767,-0.49410462,0.20538044,-0.3559817,0.076358154,0.364992,move
0.2138767,-0.49410462,0.20538044,-0.3559817,0.076358154,0.364992,move
0.2138767,-0.49410462,0.20538044,0.09728029,-0.09101892,0.4382958,move
1.8133763,0.5415201,-0.7647171,0.09728029,-0.09101892,0.4382958,move
2.2334213,0.92855453,-2.0449347,0.22128594,-0.10995574,0.20189096,move
2.2334213,0.92855453,-2.0449347,0.22128594,-0.10995574,0.20189096,move
0.85532355,0.33575058,-1.8534937,0.09972375,0.020158553,-0.090713486,move
0.85532355,0.33575058,-1.8534937,0.09972375,0.020158553,-0.090713486,move
-0.29807284,-0.21952629,-1.1580234,0.024587326,0.12522738,-0.14508049,move
-0.29807284,-0.21952629,-1.1580234,0.024587326,0.12522738,-0.14508049,move
-0.29807284,-0.21952629,-1.1580234,0.15103643,0.049480084,-0.026572637,move
-0.46672916,-0.1306777,0.38499355,0.15103643,0.049480084,-0.026572637,move
-0.22929026,-0.028609753,0.7322283,0.5187773,0.017104227,0.0571159,move
-0.22929026,-0.028609753,0.7322283,0.5187773,0.017104227,0.0571159,move
0.21163872,0.0055031776,-0.24864388,0.8174904,0.053145275,0.09743301,move
0.21163872,0.0055031776,-0.24864388,0.8174904,0.053145275,0.09743301,move
0.21070041,-0.14058208,-0.1765213,0.8498663,-0.019547688,0.026572637,move
0.21070041,-0.14058208,-0.1765213,0.8498663,-0.019547688,0.026572637,move
-0.55794924,-0.6454992,1.9241018,0.8071057,0.07696902,0.025350908,move
-0.55794924,-0.6454992,1.9241018,0.8071057,0.07696902,0.025350908,move
-0.53809905,-0.78461313,1.9980669,0.92255926,0.3494149,0.20311269,move
-0.53809905,-0.78461313,1.9980669,0.92255926,0.3494149,0.20311269,move
-0.53809905,-0.78461313,1.9980669,1.0734429,0.43493605,0.36560285,move
-1.7185448,1.1224594,-2.597754,1.0734429,0.43493605,0.36560285,move
-1.7185448,1.1224594,-2.597754,0.592692,-0.17654006,0.3753767,move
-0.92099965,1.2592669,-3.222416,0.592692,-0.17654006,0.3753767,move
-0.92099965,1.2592669,-3.222416,-0.22586742,-0.86315256,0.098043874,move
-1.0219568,0.17987728,1.2961054,-0.22586742,-0.86315256,0.098043874,move
-1.0219568,0.17987728,1.2961054,-0.40118575,-0.68477994,0.038179077,move
-2.1185448,-1.1877074,4.826683,-0.40118575,-0.68477994,0.038179077,move
-2.1185448,-1.1877074,4.826683,-0.40118575,-0.68477994,0.038179077,move
-2.3801298,-1.7248309,5.504142,-0.29367346,-0.47403142,0.24465153,move
-1.2010978,-1.1043243,3.4621105,-0.087201014,-0.26145032,0.39064834,move
-1.2010978,-1.1043243,3.4621105,-0.087201014,-0.26145032,0.39064834,move
-0.6005885,-0.8738446,0.29787254,-0.17455475,0.005497787,0.31490102,move
-0.6005885,-0.8738446,0.29787254,-0.17455475,0.005497787,0.31490102,move
-0.62013173,-0.8295331,0.2738304,-0.42378777,0.084910266,0.16157386,move
-0.62013173,-0.8295331,0.2738304,-0.42378777,0.084910266,0.16157386,move
-0.16719842,-1.7549615,-0.37710857,-0.64980793,0.14782938,0.0125227375,move
-0.16719842,-1.7549615,-0.37710857,-0.64980793,0.14782938,0.0125227375,move
0.096521676,-1.876096,0.25926304,-0.57344973,0.21930063,-0.027183503,move
0.096521676,-1.876096,0.25926304,-0.57344973,0.21930063,-0.027183503,move
0.30153048,-1.574841,-0.26408577,-0.34009922,0.20097467,-0.04184427,move
0.30153048,-1.574841,-0.26408577,-0.34009922,0.20097467,-0.04184427,move
0.3412255,-1.5235281,-0.29377842,-0.34009922,0.20097467,-0.04184427,move
0.3412255,-1.5235281,-0.29377842,-0.16905695,0.24312437,-0.09132435,move
-0.61113214,-1.5535536,-2.183786,-0.11346822,0.321926,-0.09010262,move
-0.61113214,-1.5535536,-2.183786,-0.11346822,0.321926,-0.09010262,move
-0.99825823,-1.7727587,-1.820476,-0.035277467,0.22602014,0.0021380284,move
-0.99825823,-1.7727587,-1.820476,-0.035277467,0.22602014,0.0021380284,move
-0.76865184,-1.3641226,-1.5294261,0.1797471,0.07880162,0.13408493,move
-0.76865184,-1.3641226,-1.5294261,0.1797471,0.07880162,0.13408493,move
-0.76865184,-1.3641226,-1.5294261,0.3080288,-0.03970624,0.20555615,move
0.28167602,-0.40180206,-1.8037252,0.3080288,-0.03970624,0.20555615,move
0.28167602,-0.40180206,-1.8037252,0.27931812,0.039095376,0.06872234,move
1.1377151,0.49068213,-1.5914016,0.27931812,0.039095376,0.06872234,move
0.29488486,0.24337053,-1.4646645,0.24327709,0.115453534,-0.22143865,move
0.29488486,0.24337053,-1.4646645,0.24327709,0.115453534,-0.22143865,move
-1.3559197,-0.8039813,0.087189674,0.25427267,-0.116675265,-0.32345316,move
-1.3559197,-0.8039813,0.087189674,0.25427267,-0.116675265,-0.32345316,move
-1.3329934,-1.0736158,1.1330061,0.38866302,-0.2773328,-0.12492194,move
-1.3329934,-1.0736158,1.1330061,0.38866302,-0.2773328,-0.12492194,move
-0.09864202,-0.6384759,2.2044992,0.3837761,-0.26633725,0.025350908,move
-0.09864202,-0.6384759,2.2044992,0.3837761,-0.26633725,0.025350908,move
-0.09864202,-0.6384759,2.2044992,0.27320948,0.12339478,-0.058337633,move
0.3737243,-0.07694721,3.6617718,0.27320948,0.12339478,-0.058337633,move
0.53230584,0.7492342,3.322958,0.38133264,0.40378192,-0.098043874,move
0.53230584,0.7492342,3.322958,0.38133264,0.40378192,-0.098043874,move
1.3820646,1.4351912,1.382575,0.43264532,0.3408628,-0.1695151,move
1.3820646,1.4351912,1.382575,0.43264532,0.3408628,-0.1695151,move
1.5067158,1.3951964,1.1908522,0.2762638,0.06414085,-0.42058071,move
1.5067158,1.3951964,1.1908522,0.2762638,0.06414085,-0.42058071,move
0.030313462,0.4028988,0.9358587,-0.043829583,0.18936823,-0.655153,move
0.030313462,0.4028988,0.9358587,-0.043829583,0.18936823,-0.655153,move
-0.58834773,-0.3368492,0.42953873,-0.42623124,0.35735616,-0.7174612,move
-0.58834773,-0.3368492,0.42953873,-0.42623124,0.35735616,-0.7174612,move
-0.58834773,-0.3368492,0.42953873,-0.6772968,0.2443461,-0.6386596,move
-1.0775818,-1.0592194,0.97705555,-0.6772968,0.2443461,-0.6386596,move
-0.18168694,-1.0399866,2.081565,-0.6944011,-0.05497787,-0.4083634,move
-0.18168694,-1.0399866,2.081565,-0.6944011,-0.05497787,-0.4083634,move
0.90691054,-1.0687072,1.9254503,-0.45433104,-0.24373524,-0.23976462,move
0.90691054,-1.0687072,1.9254503,-0.45433104,-0.24373524,-0.23976462,move
1.681056,-0.98314357,1.0304594,-0.26251933,-0.49113566,-0.19517145,move
1.681056,-0.98314357,1.0304594,-0.26251933,-0.49113566,-0.19517145,move
1.681056,-0.98314357,1.0304594,-0.21670444,-0.4990769,-0.20738874,move
1.6109456,-0.9732959,1.0055761,-0.21670444,-0.4990769,-0.20738874,move
1.1463621,-1.224802,-0.16724968,-0.17760907,-0.18142697,-0.22204952,move
1.1463621,-1.224802,-0.16724968,-0.17760907,-0.18142697,-0.22204952,move
1.1325064,-0.73421574,-1.584261,-0.24663684,0.22418754,-0.15607607,move
1.1325064,-0.73421574,-1.584261,-0.24663684,0.22418754,-0.15607607,move
1.0302048,-0.6568632,-2.4822054,-0.18432859,0.15210545,-0.19700404,move
1.0302048,-0.6568632,-2.4822054,-0.18432859,0.15210545,-0.19700404,move
0.40763155,-0.75892186,-1.9550972,-0.12690726,0.026267206,-0.26053402,move
0.40763155,-0.75892186,-1.9550972,-0.12690726,0.026267206,-0.26053402,move
-0.31296748,-0.89849925,-2.342605,0.049632803,-0.105068825,-0.26542094,move
-0.31296748,-0.89849925,-2.342605,0.049632803,-0.105068825,-0.26542094,move
-0.6624558,-0.95612144,-1.6373339,0.1656972,-0.23090707,-0.14752395,move
-0.6624558,-0.95612144,-1.6373339,0.1656972,-0.23090707,-0.14752395,move
-0.6901612,-0.53756046,-1.7025924,0.32574388,-0.1966986,0.00580322,move
-0.6901612,-0.53756046,-1.7025924,0.32574388,-0.1966986,0.00580322,move
-0.059934977,-0.0699234,-2.269124,0.38133264,-0.105068825,0.06872234,move
-0.059934977,-0.0699234,-2.269124,0.38133264,-0.105068825,0.06872234,move
-0.21204452,0.062453747,-2.1382718,0.24816401,-0.027488936,-0.0290161,move
-0.21204452,0.062453747,-2.1382718,0.24816401,-0.027488936,-0.0290161,move
-1.1158926,-0.17074251,-0.7369771,0.14248432,-0.025045475,-0.035124753,move
-1.1158926,-0.17074251,-0.7369771,0.14248432,-0.025045475,-0.035124753,move
-1.1644728,0.08576107,0.3210268,0.19868392,-0.09468412,0.106595986,move
-1.1644728,0.08576107,0.3210268,0.19868392,-0.09468412,0.106595986,move
-0.5445315,0.6281719,1.4586124,0.33429602,-0.103847094,0.20433442,move
-0.5445315,0.6281719,1.4586124,0.33429602,-0.103847094,0.20433442,move
0.3364476,1.0769463,2.4087896,0.48579058,-6.11E-04,0.13469578,move
0.3364476,1.0769463,2.4087896,0.48579058,-6.11E-04,0.13469578,move
-0.3344921,0.56991386,2.5114079,0.55970526,0.18936823,-0.029626964,move
-0.3344921,0.56991386,2.5114079,0.55970526,0.18936823,-0.029626964,move
-1.5448002,0.20662975,2.7263498,0.4729624,0.4092797,-0.043676864,move
-1.5448002,0.20662975,2.7263498,0.4729624,0.4092797,-0.043676864,move
-2.8711102,0.09069157,1.5504513,0.50533825,0.46670106,0.13041973,move
-2.8711102,0.09069157,1.5504513,0.50533825,0.46670106,0.13041973,move
-2.0558975,0.76336527,-0.021450043,0.4063781,0.26389378,0.4156938,move
-2.0558975,0.76336527,-0.021450043,0.4063781,0.26389378,0.4156938,move
-0.009077914,1.2364321,0.17930031,0.022143865,0.21013765,0.5164866,move
-0.009077914,1.2364321,0.17930031,0.022143865,0.21013765,0.5164866,move
0.89666337,0.8531022,0.6588392,-0.42073345,0.22724187,0.29046643,move
0.89666337,0.8531022,0.6588392,-0.42073345,0.22724187,0.29046643,move
0.89666337,0.8531022,0.6588392,-0.72250086,0.16126843,0.051618114,move
0.038632948,-0.3698454,3.0739536,-0.72250086,0.16126843,0.051618114,move
-1.8994515,-1.4498773,2.822339,-0.49403727,0.2864958,0.06566802,move
-1.8994515,-1.4498773,2.822339,-0.49403727,0.2864958,0.06566802,move
-2.324611,-1.7051075,-0.21663475,-0.17211129,0.29077184,0.3979787,move
-2.324611,-1.7051075,-0.21663475,-0.17211129,0.29077184,0.3979787,move
-0.7003715,-0.8362646,-1.900548,-0.20204368,-0.06352998,0.66859204,move
-0.7003715,-0.8362646,-1.900548,-0.20204368,-0.06352998,0.66859204,move
0.81730604,-0.121860504,-0.86255026,-0.50747633,-0.2919936,0.5897904,move
0.81730604,-0.121860504,-0.86255026,-0.50747633,-0.2919936,0.5897904,move
0.30322072,-0.72870064,0.40110207,-0.73899424,-0.19547687,0.2770274,move
0.30322072,-0.72870064,0.40110207,-0.73899424,-0.19547687,0.2770274,move
-0.22961321,-1.2898879,1.427288,-0.73471814,-0.012217305,0.14630222,move
-0.22961321,-1.2898879,1.427288,-0.73471814,-0.012217305,0.14630222,move
-0.5705007,-1.4987798,0.80613804,-0.35414913,0.18325958,0.22449298,move
-0.5705007,-1.4987798,0.80613804,-0.35414913,0.18325958,0.22449298,move
0.3761568,-0.9655137,-1.4902339,-0.012675454,0.17104226,0.34483343,move
0.3761568,-0.9655137,-1.4902339,-0.012675454,0.17104226,0.34483343,move
0.92366177,-0.4487543,-2.5122795,0.025809057,0.010995574,0.27030787,move
0.92366177,-0.4487543,-2.5122795,0.025809057,0.010995574,0.27030787,move
0.5844884,-0.14249468,-2.1958976,-0.04505131,0.018936822,0.10170906,move
0.5844884,-0.14249468,-2.1958976,-0.04505131,0.018936822,0.10170906,move
-0.40215367,-0.3963809,-2.0810246,-0.1049161,0.116675265,-0.022907447,move
-0.40215367,-0.3963809,-2.0810246,-0.1049161,0.116675265,-0.022907447,move
-0.40215367,-0.3963809,-2.0810246,-0.09636399,0.2144137,0.03268129,move
-1.31191,-0.59331083,-1.189291,-0.09636399,0.2144137,0.03268129,move
-1.3866507,-0.38650608,-1.2103534,0.09911288,0.06780604,0.1957823,move
-1.3866507,-0.38650608,-1.2103534,0.09911288,0.06780604,0.1957823,move
-0.23664866,0.55941725,-1.0616426,0.2237294,-0.13988814,0.30573806,move
-0.23664866,0.55941725,-1.0616426,0.2237294,-0.13988814,0.30573806,move
0.79709876,1.069058,-0.4750452,0.22861631,-0.2724459,0.16829337,move
0.79709876,1.069058,-0.4750452,0.22861631,-0.2724459,0.16829337,move
0.30897418,1.0317106,0.4226141,0.08384126,-0.23335053,-0.09621128,move
0.30897418,1.0317106,0.4226141,0.08384126,-0.23335053,-0.09621128,move
-0.6278839,0.64943457,1.5302963,0.007483099,-0.115453534,-0.19272798,move
-0.6278839,0.64943457,1.5302963,0.007483099,-0.115453534,-0.19272798,move
-0.48405355,0.7813525,2.2963505,0.10399981,-0.009162978,-0.11148291,move
-0.48405355,0.7813525,2.2963505,0.10399981,-0.009162978,-0.11148291,move
-0.09184462,0.84735394,2.3069305,0.35934147,-0.081855945,-0.050396383,move
-0.09184462,0.84735394,2.3069305,0.35934147,-0.081855945,-0.050396383,move
-0.09184462,0.84735394,2.3069305,0.51144695,-0.21991149,-0.074830994,move
0.77959234,1.1710219,2.1032887,0.51144695,-0.21991149,-0.074830994,move
0.39467472,1.4365959,1.3738918,0.48456886,-0.077579886,-0.2134974,move
0.39467472,1.4365959,1.3738918,0.48456886,-0.077579886,-0.2134974,move
-0.13326105,0.9628935,-0.25904942,0.3043636,0.092240654,-0.30757064,move
-0.13326105,0.9628935,-0.25904942,0.3043636,0.092240654,-0.30757064,move
-0.7754067,0.6319909,0.43595123,0.03924809,-0.12461651,-0.30207285,move
-0.7754067,0.6319909,0.43595123,0.03924809,-0.12461651,-0.30207285,move
-1.0481467,0.21384573,1.7886686,0.012370021,-0.3811799,-0.20677789,move
-1.0481467,0.21384573,1.7886686,0.012370021,-0.3811799,-0.20677789,move
-0.95894617,0.3789978,1.739028,0.11560625,-0.39584067,-0.04184427,move
-0.95894617,0.3789978,1.739028,0.11560625,-0.39584067,-0.04184427,move
0.07117826,0.8405552,0.37443447,0.15409076,-0.204029,0.090713486,move
0.07117826,0.8405552,0.37443447,0.15409076,-0.204029,0.090713486,move
1.1011914,1.1570425,-1.43754,0.049632803,-0.10629055,0.022907447,move
1.1011914,1.1570425,-1.43754,0.049632803,-0.10629055,0.022907447,move
1.7604771,0.90958786,-1.3873048,-0.25335637,-0.28160888,-0.23243423,move
1.7604771,0.90958786,-1.3873048,-0.25335637,-0.28160888,-0.23243423,move
0.75944823,-0.1748476,1.2665939,-0.6021604,-0.376293,-0.61361414,move
0.75944823,-0.1748476,1.2665939,-0.6021604,-0.376293,-0.61361414,move
-0.80560607,-1.4952762,2.7784328,-0.37858373,-0.14660765,-0.61727935,move
-0.80560607,-1.4952762,2.7784328,-0.37858373,-0.14660765,-0.61727935,move
-1.54575,-1.7449694,0.7879839,0.049021937,0.018936822,-0.35460728,move
-1.54575,-1.7449694,0.7879839,0.049021937,0.018936822,-0.35460728,move
-0.74873984,-1.2995815,-1.6016588,0.18463401,-6.11E-04,-0.09193522,move
-0.74873984,-1.2995815,-1.6016588,0.18463401,-6.11E-04,-0.09193522,move
-0.74873984,-1.2995815,-1.6016588,0.045356743,0.09101892,-0.016187929,move
0.32858926,-0.88709307,-2.8783827,0.045356743,0.09101892,-0.016187929,move
0.53332007,-0.91245127,-3.2781248,-0.10308351,0.048258353,-0.09560041,move
0.53332007,-0.91245127,-3.2781248,-0.10308351,0.048258353,-0.09560041,move
0.01900819,-0.9591019,-1.8018508,-0.17577648,-0.11789699,-0.15118915,move
0.01900819,-0.9591019,-1.8018508,-0.17577648,-0.11789699,-0.15118915,move
-0.37630525,-0.6249542,-0.57377243,0.02397646,-0.21135938,-0.13225232,move
-0.37630525,-0.6249542,-0.57377243,0.02397646,-0.21135938,-0.13225232,move
-0.5150962,-0.5821724,-0.91327906,0.29520062,-0.08307768,-0.07666359,move
-0.5150962,-0.5821724,-0.91327906,0.29520062,-0.08307768,-0.07666359,move
-0.40740123,-0.40290546,-2.3428636,0.46318856,0.064751714,0.0021380284,move
-0.40740123,-0.40290546,-2.3428636,0.46318856,0.064751714,0.0021380284,move
0.20063728,0.027740479,-3.7882447,0.41615194,0.13439035,0.014966198,move
0.20063728,0.027740479,-3.7882447,0.41615194,0.13439035,0.014966198,move
0.3846869,0.5737591,-3.6262693,0.19379699,0.07269296,-0.09254608,move
0.3846869,0.5737591,-3.6262693,0.19379699,0.07269296,-0.09254608,move
0.33168972,1.0510983,-1.9972315,-0.04444045,0.07696902,-0.21533,move
0.33168972,1.0510983,-1.9972315,-0.04444045,0.07696902,-0.21533,move
0.19702084,1.314703,-0.2682066,-0.04627304,0.23273966,-0.24587326,move
0.19702084,1.314703,-0.2682066,-0.04627304,0.23273966,-0.24587326,move
-0.024605155,1.4094663,-0.40894127,0.17547104,0.47036624,-0.19333886,move
-0.024605155,1.4094663,-0.40894127,0.17547104,0.47036624,-0.19333886,move
-0.20648675,1.599186,-2.1975155,0.36483926,0.5876524,-0.105374254,move
-0.20648675,1.599186,-2.1975155,0.36483926,0.5876524,-0.105374254,move
-0.20648675,1.599186,-2.1975155,0.22617286,0.3463606,-0.06078109,move
0.05037366,2.0339146,-3.198843,0.22617286,0.3463606,-0.06078109,move
0.06224369,2.4784598,-0.81803274,-0.19960022,-0.099571034,-0.1133155,move
0.06224369,2.4784598,-0.81803274,-0.19960022,-0.099571034,-0.1133155,move
-0.040234976,2.3210912,3.1189451,-0.3565926,-0.25778514,-0.22082779,move
-0.040234976,2.3210912,3.1189451,-0.3565926,-0.25778514,-0.22082779,move
-1.1780032,1.9718542,4.1534357,-0.118966006,0.13927728,-0.18845193,move
-1.1780032,1.9718542,4.1534357,-0.118966006,0.13927728,-0.18845193,move
-1.7073661,1.9989405,3.709673,-0.05971208,0.48624873,-0.024740042,move
-1.7073661,1.9989405,3.709673,-0.05971208,0.48624873,-0.024740042,move
-1.1462331,2.0593462,3.6841488,-0.027947085,0.5864306,0.1572978,move
-1.1462331,2.0593462,3.6841488,-0.027947085,0.5864306,0.1572978,move
-1.2155697,1.1374245,1.3789692,0.00992656,0.5925393,0.16890424,move
-1.2155697,1.1374245,1.3789692,0.00992656,0.5925393,0.16890424,move
-1.778087,0.09493637,0.10150528,-0.16539176,0.43554693,0.31490102,move
-1.778087,0.09493637,0.10150528,-0.16539176,0.43554693,0.31490102,move
-0.44508332,-0.3295617,0.733655,-0.24846944,0.15454891,0.636827,move
-0.44508332,-0.3295617,0.733655,-0.24846944,0.15454891,0.636827,move
1.8116134,-0.16604042,-0.043039322,0.051465396,0.010995574,0.82436264,move
1.8116134,-0.16604042,-0.043039322,0.051465396,0.010995574,0.82436264,move
3.141543,0.6556163,-1.7480865,0.22678372,-0.26389378,0.5849035,move
3.141543,0.6556163,-1.7480865,0.22678372,-0.26389378,0.5849035,move
2.4881907,0.39836788,-2.115152,-0.05787948,-0.2602286,0.08032878,move
2.4881907,0.39836788,-2.115152,-0.05787948,-0.2602286,0.08032878,move
0.5140381,-0.753881,-1.9787064,-0.38652498,-0.10262536,-0.25625798,move
0.5140381,-0.753881,-1.9787064,-0.38652498,-0.10262536,-0.25625798,move
-0.61928594,-1.2000482,-0.9719286,-0.48243082,-0.15393804,-0.1872302,move
-0.61928594,-1.2000482,-0.9719286,-0.48243082,-0.15393804,-0.1872302,move
-0.013014391,-0.5319319,-0.24314594,-0.21731532,-0.41050145,0.0693332,move
-0.013014391,-0.5319319,-0.24314594,-0.21731532,-0.41050145,0.0693332,move
1.3996742,0.36769772,-1.5196395,0.04841107,-0.5338962,0.16768251,move
1.3996742,0.36769772,-1.5196395,0.04841107,-0.5338962,0.16768251,move
2.0457635,0.82861185,-1.716321,-0.21242839,-0.29565877,-0.022296581,move
2.0457635,0.82861185,-1.716321,-0.21242839,-0.29565877,-0.022296581,move
2.022342,0.8832488,-1.7461014,-0.59483004,0.095294975,-0.28619036,move
2.022342,0.8832488,-1.7461014,-0.59483004,0.095294975,-0.28619036,move
-0.49576268,-0.49871016,0.9254446,-0.50869805,0.16432275,-0.24770586,move
-0.49576268,-0.49871016,0.9254446,-0.50869805,0.16432275,-0.24770586,move
-0.9264733,-0.491714,0.6604233,-0.12751812,0.03481932,0.014966198,move
-0.9264733,-0.491714,0.6604233,-0.12751812,0.03481932,0.014966198,move
-0.25317994,0.31263065,-0.50443363,0.17180584,-0.048258353,0.3539964,move
-0.25317994,0.31263065,-0.50443363,0.17180584,-0.048258353,0.3539964,move
1.2606918,1.0659657,-1.3028536,0.13332134,-0.02565634,0.3857614,move
1.2606918,1.0659657,-1.3028536,0.13332134,-0.02565634,0.3857614,move
1.1615798,1.4106827,-1.322526,-0.05177083,-0.18387043,0.12675454,move
1.1615798,1.4106827,-1.322526,-0.05177083,-0.18387043,0.12675454,move
0.11440672,0.6522665,1.2620306,-0.20082195,-0.5626069,-0.098043874,move
0.11440672,0.6522665,1.2620306,-0.20082195,-0.5626069,-0.098043874,move
-1.4677231,-0.70460033,3.522005,0.009315695,-0.6872234,-0.035124753,move
-1.4677231,-0.70460033,3.522005,0.009315695,-0.6872234,-0.035124753,move
-0.98293006,-0.7361605,2.958767,0.26710084,-0.33841935,0.29352075,move
-0.98293006,-0.7361605,2.958767,0.26710084,-0.33841935,0.29352075,move
-0.009184897,0.84563875,1.1836128,0.32574388,-0.06536258,0.4810564,move
-0.009184897,0.84563875,1.1836128,0.32574388,-0.06536258,0.4810564,move
-0.009184897,0.84563875,1.1836128,0.22556199,0.042760566,0.37598756,move
2.8483555,2.5556417,-1.3491297,0.22556199,0.042760566,0.37598756,move
2.834766,2.5368128,-1.3382788,0.22556199,0.042760566,0.37598756,move
2.834766,2.5368128,-1.3382788,-0.3370449,-0.019547688,-0.28985557,move
1.9983696,0.6651292,0.99267864,-0.99128157,-0.22418754,-1.1010846,move
1.9983696,0.6651292,0.99267864,-0.99128157,-0.22418754,-1.1010846,move
-1.2248807,-1.8280687,5.1822376,-0.9405798,-0.11789699,-1.3142766,move
-1.2248807,-1.8280687,5.1822376,-0.9405798,-0.11789699,-1.3142766,move
-1.8922156,-2.358029,4.5694313,-0.14523321,0.2742785,-0.8035932,move
-1.8922156,-2.358029,4.5694313,-0.14523321,0.2742785,-0.8035932,move
0.36494583,-0.7724476,-1.5226736,0.61285055,0.4569272,-0.29046643,move
0.36494583,-0.7724476,-1.5226736,0.61285055,0.4569272,-0.29046643,move
2.1777763,0.4271636,-5.862275,0.5371033,0.22968534,-0.27947086,move
2.1777763,0.4271636,-5.862275,0.5371033,0.22968534,-0.27947086,move
1.6247973,0.43422318,-5.8824964,-0.1049161,0.004276057,-0.64904433,move
1.6247973,0.43422318,-5.8824964,-0.1049161,0.004276057,-0.64904433,move
1.6247973,0.43422318,-5.8824964,-0.6779077,-0.08124508,-0.91415983,move
-0.14875454,-0.59226656,-2.9546628,-0.6779077,-0.08124508,-0.91415983,move
-0.14875454,-0.59226656,-2.9546628,-0.65836,-0.258396,-0.8371908,move
-1.5514693,-0.94726944,-0.4260807,-0.65836,-0.258396,-0.8371908,move
-0.9236631,-0.49534154,0.21563911,-0.1965459,-0.5338962,-0.50793445,move
-0.9236631,-0.49534154,0.21563911,-0.1965459,-0.5338962,-0.50793445,move
0.38798296,0.5620246,0.5153332,0.06246097,-0.52534413,-0.26419923,move
0.38798296,0.5620246,0.5153332,0.06246097,-0.52534413,-0.26419923,move
0.323908,1.2307339,0.9217615,-0.007788532,-0.14172074,-0.31856623,move
0.323908,1.2307339,0.9217615,-0.007788532,-0.14172074,-0.31856623,move
-0.53294325,1.3108654,0.9081316,-0.056046885,0.106901415,-0.38087448,move
-0.53294325,1.3108654,0.9081316,-0.056046885,0.106901415,-0.38087448,move
-1.16066,1.1924963,0.67449,-0.04810564,0.0720821,-0.40530908,move
-1.16066,1.1924963,0.67449,-0.04810564,0.0720821,-0.40530908,move
-2.4603868,0.22942781,3.2333803,0.05207626,-0.14294247,-0.37232238,move
-2.4603868,0.22942781,3.2333803,0.05207626,-0.14294247,-0.37232238,move
-3.6350963,-0.2845869,3.846387,0.5035057,-0.01038471,-0.0729984,move
-3.6350963,-0.2845869,3.846387,0.5035057,-0.01038471,-0.0729984,move
-2.7993398,0.05788231,0.7268801,0.841925,0.19303341,0.3894266,move
-2.7993398,0.05788231,0.7268801,0.841925,0.19303341,0.3894266,move
-0.35323215,1.1994934,-0.8976693,0.7087564,0.2321288,0.6282749,move
-0.35323215,1.1994934,-0.8976693,0.7087564,0.2321288,0.6282749,move
-0.97372323,1.9759803,-1.1191187,0.37888917,0.35369098,0.46883908,move
-0.97372323,1.9759803,-1.1191187,0.37888917,0.35369098,0.46883908,move
-1.8965906,1.2820463,-1.7315698,0.05390886,0.25961772,0.38637227,move
-1.8965906,1.2820463,-1.7315698,0.05390886,0.25961772,0.38637227,move
-1.9722801,0.8058195,0.50549984,-0.1947133,-0.18509217,0.43035457,move
-1.9722801,0.8058195,0.50549984,-0.1947133,-0.18509217,0.43035457,move
-1.4232296,0.33077765,2.115672,-0.16722436,-0.4184427,0.44440445,move
-1.4232296,0.33077765,2.115672,-0.16722436,-0.4184427,0.44440445,move
-1.2514651,-0.20983648,2.50523,-0.07925977,-0.33475417,0.38698313,move
-1.2514651,-0.20983648,2.50523,-0.07925977,-0.33475417,0.38698313,move
-0.955085,-0.046412945,1.0727539,-0.065209866,0.026267206,0.39187005,move
-0.955085,-0.046412945,1.0727539,-0.065209866,0.026267206,0.39187005,move
-0.5698223,-0.102413654,-0.50579834,-0.16172658,0.29016098,0.3454443,move
-0.5698223,-0.102413654,-0.50579834,-0.16172658,0.29016098,0.3454443,move
-0.7041801,-0.4156437,-1.310349,-0.3089451,0.38912117,0.30451632,move
-0.7041801,-0.4156437,-1.310349,-0.3089451,0.38912117,0.30451632,move
-0.33884996,-0.48078775,-0.46360588,-0.313832,0.16737708,0.32467487,move
-0.33884996,-0.48078775,-0.46360588,-0.313832,0.16737708,0.32467487,move
0.15010713,-0.5102539,1.1266022,-0.010231993,-0.118507855,0.31123585,move
0.15010713,-0.5102539,1.1266022,-0.010231993,-0.118507855,0.31123585,move
0.15010713,-0.5102539,1.1266022,0.39843684,-0.07452556,0.25259277,move
0.04811828,-1.1244619,0.2529211,0.39843684,-0.07452556,0.25259277,move
0.23901205,-1.3101165,-1.2266107,0.35506544,0.48197266,0.33261612,move
0.23901205,-1.3101165,-1.2266107,0.35506544,0.48197266,0.33261612,move
0.61156774,-1.1406446,-2.3292618,0.1553125,0.81122905,0.36254853,move
0.61156774,-1.1406446,-2.3292618,0.1553125,0.81122905,0.36254853,move
0.7211026,-1.1590099,-2.3203382,0.030695979,0.6988298,0.30879238,move
0.7211026,-1.1590099,-2.3203382,0.030695979,0.6988298,0.30879238,move
0.7532924,-0.34228516,-0.7972245,0.19013181,0.08857546,0.22021692,move
0.7532924,-0.34228516,-0.7972245,0.19013181,0.08857546,0.22021692,move
0.043215897,-0.48067522,1.1763391,0.5395467,-0.5815437,0.10903945,move
0.043215897,-0.48067522,1.1763391,0.5395467,-0.5815437,0.10903945,move
0.36044103,-1.0763834,1.3981571,0.75151694,-0.57787853,0.112704635,move
0.36044103,-1.0763834,1.3981571,0.75151694,-0.57787853,0.112704635,move
0.96970135,-1.1769106,1.6874456,0.57986385,-0.11056661,0.0888809,move
0.96970135,-1.1769106,1.6874456,0.57986385,-0.11056661,0.0888809,move
-0.030804008,-1.4174705,3.4578447,0.5377141,0.21502456,-9.16E-04,move
-0.030804008,-1.4174705,3.4578447,0.5377141,0.21502456,-9.16E-04,move
-0.33428967,-1.3977444,3.1738472,1.0600039,0.2302962,0.21899518,move
-0.33428967,-1.3977444,3.1738472,1.0600039,0.2302962,0.21899518,move
0.9723937,0.07885742,-1.9428124,1.5114334,0.15577064,0.4718934,move
0.9723937,0.07885742,-1.9428124,1.5114334,0.15577064,0.4718934,move
3.058762,2.4927144,-6.076686,0.9763154,0.12461651,0.25686884,move
3.058762,2.4927144,-6.076686,0.9763154,0.12461651,0.25686884,move
2.852785,1.9808774,-6.3060703,-0.4427246,0.18020524,-0.61483586,move
2.852785,1.9808774,-6.3060703,-0.4427246,0.18020524,-0.61483586,move
1.0221989,-1.3251553,1.9993134,-1.9784398,0.014660766,-1.325883,move
1.0221989,-1.3251553,1.9993134,-1.9784398,0.014660766,-1.325883,move
-2.1501155,-3.5231438,7.003443,-2.023033,0.25473082,-1.4767667,move
-2.1501155,-3.5231438,7.003443,-2.023033,0.25473082,-1.4767667,move
-2.1501155,-3.5231438,7.003443,-0.9833403,0.4728097,-0.8347474,move
-3.3244948,-3.7065997,3.4397001,-0.9833403,0.4728097,-0.8347474,move
-0.872349,-2.0667825,-2.5559497,-0.27351493,0.086132,-0.03390302,move
-0.872349,-2.0667825,-2.5559497,-0.27351493,0.086132,-0.03390302,move
0.8000252,-0.6267748,-2.080391,-0.48915035,-0.6462954,0.2507602,move
0.8000252,-0.6267748,-2.080391,-0.48915035,-0.6462954,0.2507602,move
0.659672,-0.29020357,1.3530378,-0.79458296,-0.6988298,0.23976462,move
0.659672,-0.29020357,1.3530378,-0.79458296,-0.6988298,0.23976462,move
0.29552418,-0.33074188,2.6677647,-0.40607268,-0.26083946,0.2611449,move
0.29552418,-0.33074188,2.6677647,-0.40607268,-0.26083946,0.2611449,move
-0.09420974,-0.29091787,0.24264622,0.1339322,-0.06047566,0.33383787,move
-0.09420974,-0.29091787,0.24264622,0.1339322,-0.06047566,0.33383787,move
0.34834567,-0.095615864,-2.3325138,0.35811976,-0.15821409,0.4260785,move
0.34834567,-0.095615864,-2.3325138,0.35811976,-0.15821409,0.4260785,move
1.5328889,0.80973387,-2.55307,0.32696563,-0.35002577,0.36132678,move
1.5328889,0.80973387,-2.55307,0.32696563,-0.35002577,0.36132678,move
1.8090414,1.4282656,-1.9826622,0.15470162,-0.3036,0.025961773,move
1.8090414,1.4282656,-1.9826622,0.15470162,-0.3036,0.025961773,move
0.77688295,1.0743523,-0.5982294,-0.0346666,-0.07269296,-0.36743546,move
0.77688295,1.0743523,-0.5982294,-0.0346666,-0.07269296,-0.36743546,move
-1.1312329,0.014073372,1.3521814,0.010537425,0.021991149,-0.5164866,move
-1.1312329,0.014073372,1.3521814,0.010537425,0.021991149,-0.5164866,move
-2.2922654,-0.5752764,2.0642319,0.3538437,0.064751714,-0.31245756,move
-2.2922654,-0.5752764,2.0642319,0.3538437,0.064751714,-0.31245756,move
-1.9061021,-0.83543754,1.7753925,0.764956,-0.032986723,-0.016187929,move
-1.9061021,-0.83543754,1.7753925,0.764956,-0.032986723,-0.016187929,move
-1.1505898,-0.20329952,0.41921425,0.8944594,0.0720821,0.17806722,move
-1.1505898,-0.20329952,0.41921425,0.8944594,0.0720821,0.17806722,move
-1.8326513,0.26562452,-0.7626734,0.50228393,0.56016344,0.19822577,move
-1.8326513,0.26562452,-0.7626734,0.50228393,0.56016344,0.19822577,move
-1.8246533,0.61008596,-1.3110814,0.014813482,0.7696902,0.27947086,move
-1.8246533,0.61008596,-1.3110814,0.014813482,0.7696902,0.27947086,move
-0.8243713,0.23339224,0.51742554,-0.236863,0.24312437,0.32467487,move
-0.8243713,0.23339224,0.51742554,-0.236863,0.24312437,0.32467487,move
-0.35428703,-0.04779768,2.2804012,-0.19593503,-0.37934732,0.28924468,move
-0.35428703,-0.04779768,2.2804012,-0.19593503,-0.37934732,0.28924468,move
-0.44941783,-0.28737688,1.6074018,-0.10369437,-0.4447099,0.2678644,move
-0.44941783,-0.28737688,1.6074018,-0.10369437,-0.4447099,0.2678644,move
0.0850491,-0.20000362,-0.5872865,-0.22525656,-0.24617869,0.20738874,move
0.0850491,-0.20000362,-0.5872865,-0.22525656,-0.24617869,0.20738874,move
-0.0033073723,-0.323596,-1.8759727,-0.56123245,0.028710667,0.036957346,move
-0.0033073723,-0.323596,-1.8759727,-0.56123245,0.028710667,0.036957346,move
-0.0033073723,-0.323596,-1.8759727,-0.84650654,-0.19120082,-0.10720685,move
-0.8658609,-0.9496081,-1.0471883,-0.84650654,-0.19120082,-0.10720685,move
-0.8658609,-0.9496081,-1.0471883,-0.6730208,-0.53878313,0.01863139,move
-1.4936609,-1.4802203,2.026822,-0.6730208,-0.53878313,0.01863139,move
-0.8993469,-1.1982844,2.6379719,-0.20754147,-0.5009095,0.27091873,move
-0.8993469,-1.1982844,2.6379719,-0.20754147,-0.5009095,0.27091873,move
0.5852375,-0.12938547,0.4917431,-0.035888333,-0.07147124,0.3381139,move
0.5852375,-0.12938547,0.4917431,-0.035888333,-0.07147124,0.3381139,move
0.7591829,-0.06436443,-0.81004524,-0.15867224,0.28955013,0.1957823,move
0.7591829,-0.06436443,-0.81004524,-0.15867224,0.28955013,0.1957823,move
0.070742786,-0.43230867,-1.0020404,-0.15378532,0.2406809,0.12797627,move
0.070742786,-0.43230867,-1.0020404,-0.15378532,0.2406809,0.12797627,move
-0.65649337,-0.7494798,-0.15188408,0.006872234,-0.02687807,0.22266038,move
-0.65649337,-0.7494798,-0.15188408,0.006872234,-0.02687807,0.22266038,move
-0.043022126,-0.32471085,0.9980049,0.26465738,-0.13988814,0.38881573,move
-0.043022126,-0.32471085,0.9980049,0.26465738,-0.13988814,0.38881573,move
1.3445688,0.5657697,0.1285286,0.54382277,-0.06536258,0.3484986,move
1.3445688,0.5657697,0.1285286,0.54382277,-0.06536258,0.3484986,move
1.0653895,0.78451777,-0.7820196,0.49312097,-0.12950343,0.03634648,move
1.0653895,0.78451777,-0.7820196,0.49312097,-0.12950343,0.03634648,move
-0.2459671,-0.19819975,0.4335308,0.29336804,-0.24129178,-0.17195857,move
-0.2459671,-0.19819975,0.4335308,0.29336804,-0.24129178,-0.17195857,move
-0.95103264,-1.2499285,1.8434916,0.30192015,-0.37323865,-0.11881329,move
-0.95103264,-1.2499285,1.8434916,0.30192015,-0.37323865,-0.11881329,move
-0.5397921,-0.9542377,2.0911589,0.48456886,-0.28771752,0.06078109,move
-0.5397921,-0.9542377,2.0911589,0.48456886,-0.28771752,0.06078109,move
0.40198678,0.57361555,2.1676445,0.6030767,0.005497787,0.10720685,move
0.40198678,0.57361555,2.1676445,0.6030767,0.005497787,0.10720685,move
0.40198678,0.57361555,2.1676445,0.5896377,0.2565634,-0.018020526,move
1.0300682,0.9333024,0.78764915,0.5896377,0.2565634,-0.018020526,move
1.1520162,1.0851064,0.16873169,0.44241914,0.092240654,-0.21777347,move
1.1520162,1.0851064,0.16873169,0.44241914,0.092240654,-0.21777347,move
0.95405096,0.9655161,0.3191204,0.11866058,0.08246681,-0.5384777,move
0.95405096,0.9655161,0.3191204,0.11866058,0.08246681,-0.5384777,move
0.14644334,-1.3192642,-0.1318121,-0.29733866,0.11484267,-0.89827734,move
0.14644334,-1.3192642,-0.1318121,-0.29733866,0.11484267,-0.89827734,move
-1.4447659,-2.23114,3.0072536,-0.8691085,-0.16249016,-0.8927795,move
-1.4447659,-2.23114,3.0072536,-0.8691085,-0.16249016,-0.8927795,move
-1.4447659,-2.23114,3.0072536,-0.68707067,-0.06719518,-0.46700647,move
-0.99892676,-1.764111,5.7175064,-0.68707067,-0.06719518,-0.46700647,move
0.701026,-0.8579483,3.437581,-0.098807454,0.5479461,-0.28313604,move
0.701026,-0.8579483,3.437581,-0.098807454,0.5479461,-0.28313604,move
1.0589074,-1.1808481,-0.8078227,0.016035212,1.0146471,-0.34666604,move
1.0589074,-1.1808481,-0.8078227,0.016035212,1.0146471,-0.34666604,move
0.51572,-1.7331243,-3.5490174,-0.1207986,1.0213667,-0.33078352,move
0.51572,-1.7331243,-3.5490174,-0.1207986,1.0213667,-0.33078352,move
0.036301166,-2.15245,-3.5596995,-0.19410244,0.3005457,-0.16035213,move
0.036301166,-2.15245,-3.5596995,-0.19410244,0.3005457,-0.16035213,move
0.036301166,-2.15245,-3.5596995,-0.1330159,-0.28405234,0.13713925,move
0.11585413,-1.9341109,-1.6159544,-0.1330159,-0.28405234,0.13713925,move
0.87292296,-1.14393,-0.80515337,0.06307184,-0.30726522,0.31429017,move
0.87292296,-1.14393,-0.80515337,0.06307184,-0.30726522,0.31429017,move
1.1200011,-0.25590897,-1.6144533,0.12415836,-0.059253927,0.28680122,move
1.1200011,-0.25590897,-1.6144533,0.12415836,-0.059253927,0.28680122,move
0.8388139,-0.2053957,-2.169847,0.025809057,0.17959438,0.1255328,move
0.8388139,-0.2053957,-2.169847,0.025809057,0.17959438,0.1255328,move
-0.10057576,-0.5129242,-1.466052,-0.05299256,0.2144137,0.08155051,move
-0.10057576,-0.5129242,-1.466052,-0.05299256,0.2144137,0.08155051,move
-0.31359777,-0.58765984,-0.5042372,0.16752979,-0.06658431,0.20066923,move
-0.31359777,-0.58765984,-0.5042372,0.16752979,-0.06658431,0.20066923,move
-0.3564916,-0.62821484,-0.48334312,0.16752979,-0.06658431,0.20066923,move
-0.3564916,-0.62821484,-0.48334312,0.3733914,-0.20769419,0.28191432,move
0.119835615,-0.27896786,0.5738611,0.48456886,0.13561209,0.3277292,move
0.119835615,-0.27896786,0.5738611,0.48456886,0.13561209,0.3277292,move
0.12298706,-0.36389637,0.6214075,0.52183163,0.26450464,0.33261612,move
0.12298706,-0.36389637,0.6214075,0.52183163,0.26450464,0.33261612,move
-0.35968977,-0.2897849,0.6665001,0.5529858,-0.004276057,0.32834008,move
-0.35968977,-0.2897849,0.6665001,0.5529858,-0.004276057,0.32834008,move
-0.53550637,-0.038544655,2.0617561,0.5884159,-0.2883284,0.38026363,move
-0.53550637,-0.038544655,2.0617561,0.5884159,-0.2883284,0.38026363,move
-0.5492339,0.9772897,2.553998,0.70264775,-0.2125811,0.41080686,move
-0.5492339,0.9772897,2.553998,0.70264775,-0.2125811,0.41080686,move
-0.63995516,1.5559101,0.92379856,0.64950246,0.5503896,0.36987892,move
-0.63995516,1.5559101,0.92379856,0.64950246,0.5503896,0.36987892,move
-0.46702,1.0859365,-1.2350283,0.4277584,0.7819075,0.37843102,move
-0.46702,1.0859365,-1.2350283,0.4277584,0.7819075,0.37843102,move
0.5263146,1.0540485,-3.1032195,0.04841107,0.009162978,0.2648101,move
0.5263146,1.0540485,-3.1032195,0.04841107,0.009162978,0.2648101,move
0.56003803,0.21427679,0.41486835,-0.6461427,-0.8136725,-0.055283304,move
-0.6840921,-0.9506602,4.1116495,-0.9112582,-0.79779,-0.2574797,move
-0.6840921,-0.9506602,4.1116495,-0.9112582,-0.79779,-0.2574797,move
-0.6840921,-0.9506602,4.1116495,-0.9112582,-0.79779,-0.2574797,move
-0.6840921,-0.9506602,4.1116495,-0.9112582,-0.79779,-0.2574797,move
-0.6840921,-0.9506602,4.1116495,-0.9112582,-0.79779,-0.2574797,move
-0.6840921,-0.9506602,4.1116495,-0.19776763,-0.14721853,-0.03573562,move
-0.7893038,-1.5426655,2.7021942,-0.19776763,-0.14721853,-0.03573562,move
-0.7893038,-1.5426655,2.7021942,-0.18188512,0.22479841,-3.05E-04,move
-0.79487467,-1.5131588,2.6848154,-0.18188512,0.22479841,-3.05E-04,move
-0.20583369,-1.5264812,-1.4969802,-0.27229318,0.2828306,0.011911872,move
-0.20583369,-1.5264812,-1.4969802,-0.27229318,0.2828306,0.011911872,move
0.16784868,-1.1606219,-2.139861,-0.3034473,0.1301143,0.04734206,move
0.16784868,-1.1606219,-2.139861,-0.3034473,0.1301143,0.04734206,move
0.3267346,-1.0048137,-1.5325403,-0.32543847,0.015882496,0.04917465,move
0.3267346,-1.0048137,-1.5325403,-0.32543847,0.015882496,0.04917465,move
-0.20791444,-0.9944906,-0.5499053,-0.22586742,-0.08979719,0.048563786,move
-0.20791444,-0.9944906,-0.5499053,-0.22586742,-0.08979719,0.048563786,move
-0.4389194,-0.7087188,-0.39258766,-0.040775254,-0.058643065,0.0852157,move
-0.4389194,-0.7087188,-0.39258766,-0.040775254,-0.058643065,0.0852157,move
-0.7241551,-0.56858635,-0.6194544,0.042913284,0.17715092,0.06872234,move
-0.7241551,-0.56858635,-0.6194544,0.042913284,0.17715092,0.06872234,move
-0.94765496,-0.34987307,-1.3432217,0.09850202,0.38728857,0.093767814,move
-0.94765496,-0.34987307,-1.3432217,0.09850202,0.38728857,0.093767814,move
-0.38279447,0.07769394,-1.6512513,0.1919644,0.25534168,0.14202617,move
-0.38279447,0.07769394,-1.6512513,0.1919644,0.25534168,0.14202617,move
0.004011862,0.40875435,-0.13743019,0.27259862,-0.122783914,0.10476339,move
0.004011862,0.40875435,-0.13743019,0.27259862,-0.122783914,0.10476339,move
-0.36488032,0.20524502,1.0078554,0.50594914,-0.39767328,0.004581489,move
-0.36488032,0.20524502,1.0078554,0.50594914,-0.39767328,0.004581489,move
-0.43841088,-0.300704,0.75967216,0.61346143,-0.30726522,-0.060170226,move
-0.43841088,-0.300704,0.75967216,0.61346143,-0.30726522,-0.060170226,move
-0.44750398,-0.521616,1.4478407,0.36850446,-0.050701816,-0.07360926,move
-0.44750398,-0.521616,1.4478407,0.36850446,-0.050701816,-0.07360926,move
-0.4013025,-0.5564785,2.3345528,0.3202461,-0.047036625,-0.03390302,move
-0.4013025,-0.5564785,2.3345528,0.3202461,-0.047036625,-0.03390302,move
0.14672086,0.053527832,2.8960762,0.45707992,-0.07269296,0.008246681,move
0.14672086,0.053527832,2.8960762,0.45707992,-0.07269296,0.008246681,move
0.13660541,-0.029254436,2.948575,0.61651576,-0.06169739,-0.029626964,move
0.13660541,-0.029254436,2.948575,0.61651576,-0.06169739,-0.029626964,move
0.9212831,0.6782465,-0.29091454,0.49556443,-0.28344148,-0.12186762,move
0.9212831,0.6782465,-0.29091454,0.49556443,-0.28344148,-0.12186762,move
1.2323369,0.64174986,0.54473114,0.26282477,-0.7134906,-0.23060162,move
1.2323369,0.64174986,0.54473114,0.26282477,-0.7134906,-0.23060162,move
0.67554295,0.39523458,2.0848408,0.24816401,-0.9388999,-0.35827246,move
0.67554295,0.39523458,2.0848408,0.24816401,-0.9388999,-0.35827246,move
0.08368921,-0.16656637,0.64788437,0.2750421,-0.6603453,-0.39492437,move
0.08368921,-0.16656637,0.64788437,0.2750421,-0.6603453,-0.39492437,move
-0.058875263,-0.39310646,-0.16571474,-0.020616703,-0.37690386,-0.36865717,move
-0.058875263,-0.39310646,-0.16571474,-0.020616703,-0.37690386,-0.36865717,move
-0.4738507,-0.75506306,-0.27056265,-0.38713586,-0.14049901,-0.3381139,move
-0.4738507,-0.75506306,-0.27056265,-0.38713586,-0.14049901,-0.3381139,move
-0.38093555,-1.0664086,0.86752796,-0.6779077,-0.03848451,-0.22266038,move
-0.38093555,-1.0664086,0.86752796,-0.6779077,-0.03848451,-0.22266038,move
0.018127918,-1.1293454,1.8833456,-0.59605175,-0.14660765,-0.11026118,move
0.018127918,-1.1293454,1.8833456,-0.59605175,-0.14660765,-0.11026118,move
0.32202083,-1.1810079,1.610982,-0.40668353,-0.15088372,-0.025350908,move
0.32202083,-1.1810079,1.610982,-0.40668353,-0.15088372,-0.025350908,move
0.7618511,-0.98829126,0.82973385,-0.2826779,0.070249505,0.013133603,move
0.7618511,-0.98829126,0.82973385,-0.2826779,0.070249505,0.013133603,move
0.72999823,-0.9270835,-0.7080107,-0.18066339,0.32436943,0.00580322,move
0.72999823,-0.9270835,-0.7080107,-0.18066339,0.32436943,0.00580322,move
0.72999823,-0.9270835,-0.7080107,-0.065209866,0.36285394,-0.014966198,move
0.8150094,-1.0149074,-2.1289816,-0.065209866,0.36285394,-0.014966198,move
0.4240496,-1.0545421,-3.037634,-0.01817324,0.30115658,-0.0729984,move
0.4240496,-1.0545421,-3.037634,-0.01817324,0.30115658,-0.0729984,move
-0.23379007,-1.2178664,-2.9089513,-0.071318515,0.24129178,-0.09254608,move
-0.23379007,-1.2178664,-2.9089513,-0.071318515,0.24129178,-0.09254608,move
-0.44624507,-0.82070017,-2.757823,-0.064599,0.25289822,-0.024129177,move
-0.44624507,-0.82070017,-2.757823,-0.064599,0.25289822,-0.024129177,move
-0.18749256,-0.29852772,-2.9149203,0.001985312,0.33292156,-3.05E-04,move
-0.18749256,-0.29852772,-2.9149203,0.001985312,0.33292156,-3.05E-04,move
-0.1874287,-0.029747963,-3.7609959,0.033750303,0.3866777,-0.032070424,move
-0.1874287,-0.029747963,-3.7609959,0.033750303,0.3866777,-0.032070424,move
-0.30188876,-0.1702218,-3.9333196,0.065515295,0.06963864,-0.0015271631,move
-0.30188876,-0.1702218,-3.9333196,0.065515295,0.06963864,-0.0015271631,move
-1.38E-04,-0.06532478,-2.7192879,0.16630806,-0.5534439,0.0852157,move
-1.38E-04,-0.06532478,-2.7192879,0.16630806,-0.5534439,0.0852157,move
0.19364798,0.10587883,-0.5407119,0.30008754,-1.0262536,0.16462818,move
0.19364798,0.10587883,-0.5407119,0.30008754,-1.0262536,0.16462818,move
0.5179542,0.6343136,0.9975643,0.4558582,-0.8594874,0.21960606,move
0.5179542,0.6343136,0.9975643,0.4558582,-0.8594874,0.21960606,move
0.27103037,0.7572465,0.29027367,0.33429602,-0.21991149,0.19394971,move
0.27103037,0.7572465,0.29027367,0.33429602,-0.21991149,0.19394971,move
0.65876144,1.1538544,0.6166725,-0.1928807,0.3042109,0.19456059,move
0.65876144,1.1538544,0.6166725,-0.1928807,0.3042109,0.19456059,move
0.8889287,1.5545807,2.942111,-0.53801954,0.36468655,0.13103059,move
0.8889287,1.5545807,2.942111,-0.53801954,0.36468655,0.13103059,move
0.685947,1.6892595,5.190075,-0.3492622,0.086132,0.07971791,move
0.685947,1.6892595,5.190075,-0.3492622,0.086132,0.07971791,move
0.4155826,1.7693543,4.145627,0.11682798,0.04337143,0.0888809,move
0.4155826,1.7693543,4.145627,0.11682798,0.04337143,0.0888809,move
0.21122867,2.0038924,1.4944401,0.12843442,0.24801129,0.07727446,move
0.21122867,2.0038924,1.4944401,0.12843442,0.24801129,0.07727446,move
-0.28454205,1.8136702,0.47834015,-0.33399057,0.50762904,0.016798794,move
-0.28454205,1.8136702,0.47834015,-0.33399057,0.50762904,0.016798794,move
-0.06049642,1.236198,1.1586695,-0.7640397,0.4813618,-0.01740966,move
-0.06049642,1.236198,1.1586695,-0.7640397,0.4813618,-0.01740966,move
-0.19520007,0.738214,2.9301825,-0.74082685,0.23945917,-0.04795292,move
-0.19520007,0.738214,2.9301825,-0.74082685,0.23945917,-0.04795292,move
-1.0262547,0.32256937,1.3918295,-0.22525656,0.19486602,-0.06383542,move
-1.0262547,0.32256937,1.3918295,-0.22525656,0.19486602,-0.06383542,move
-1.0262547,0.32256937,1.3918295,0.15714508,0.27366763,-0.009468411,move
-1.4187305,-0.1684246,-1.5546594,0.15714508,0.27366763,-0.009468411,move
-1.5984544,-0.407094,-3.6074204,0.13576481,0.19608775,0.025961773,move
-1.5984544,-0.407094,-3.6074204,0.13576481,0.19608775,0.025961773,move
-1.251317,-0.44203138,-4.5120387,-0.3840815,0.100792766,0.013133603,move
-1.251317,-0.44203138,-4.5120387,-0.3840815,0.100792766,0.013133603,move
-0.9839226,-0.70739937,-3.3488626,-0.93874717,0.069027774,-0.0125227375,move
-0.9839226,-0.70739937,-3.3488626,-0.93874717,0.069027774,-0.0125227375,move
-0.5541792,-0.8637941,-0.88988495,-1.0908526,0.037873644,-0.005192355,move
-0.5541792,-0.8637941,-0.88988495,-1.0908526,0.037873644,-0.005192355,move
-0.75257576,-1.0915251,0.3536272,-0.6986771,0.03481932,0.026572637,move
-0.75257576,-1.0915251,0.3536272,-0.6986771,0.03481932,0.026572637,move
-0.77858406,-1.0480082,-1.3971257,-0.16722436,0.124005646,0.13713925,move
-0.77858406,-1.0480082,-1.3971257,-0.16722436,0.124005646,0.13713925,move
-0.77858406,-1.0480082,-1.3971257,-0.0926988,0.1966986,0.22204952,move
-0.33126217,-0.5917828,-3.4808683,-0.0926988,0.1966986,0.22204952,move
-0.093987614,0.013759136,-2.9361367,-0.2845105,0.14660765,0.22082779,move
-0.093987614,0.013759136,-2.9361367,-0.2845105,0.14660765,0.22082779,move
-0.5804186,0.39944792,-1.3672915,-0.2582433,-0.002443461,0.1853976,move
-0.5804186,0.39944792,-1.3672915,-0.2582433,-0.002443461,0.1853976,move
-0.5804186,0.39944792,-1.3672915,-0.08597928,-0.048258353,0.20250183,move
-0.960422,0.70109844,-0.36512852,-0.08597928,-0.048258353,0.20250183,move
-0.9843523,0.71090937,-0.3692541,-0.08597928,-0.048258353,0.20250183,move
-0.9843523,0.71090937,-0.3692541,0.037415497,-0.032986723,0.2611449,move
-0.5497712,1.4458961,1.405344,0.22128594,-0.14172074,0.3173445,move
-0.5497712,1.4458961,1.405344,0.22128594,-0.14172074,0.3173445,move
-0.5497712,1.4458961,1.405344,0.22128594,-0.14172074,0.3173445,move
0.11247501,2.0053005,1.2232418,0.34468073,-0.11911872,0.26053402,move
0.15322396,1.9388237,0.7157612,0.17669277,0.0983493,0.05955936,move
0.15322396,1.9388237,0.7157612,0.17669277,0.0983493,0.05955936,move
0.15322396,1.9388237,0.7157612,-0.22525656,0.31581733,-0.12736541,move
-0.37730014,1.4248857,1.2277403,-0.22525656,0.31581733,-0.12736541,move
-0.9423276,0.77998734,3.9345388,-0.409127,0.20341812,-0.16218472,move
-0.9423276,0.77998734,3.9345388,-0.409127,0.20341812,-0.16218472,move
-1.1392273,0.83116055,5.302635,-0.035277467,-0.10445796,-0.04917465,move
-1.1392273,0.83116055,5.302635,-0.035277467,-0.10445796,-0.04917465,move
-0.41750354,0.8911452,3.5299854,0.5206099,-0.36713,0.09254608,move
-0.41750354,0.8911452,3.5299854,0.5206099,-0.36713,0.09254608,move
-0.41750354,0.8911452,3.5299854,0.52671856,-0.28771752,0.094989546,move
0.86927986,0.79557085,1.72682,0.52671856,-0.28771752,0.094989546,move
0.86927986,0.79557085,1.72682,0.52671856,-0.28771752,0.094989546,move
1.3780907,0.6927514,1.206439,0.02397646,0.09101892,-0.12980886,move
0.6349298,0.5783601,1.093255,-0.16783522,0.3005457,-0.27885997,move
0.6349298,0.5783601,1.093255,-0.16783522,0.3005457,-0.27885997,move
0.1655787,0.5713515,-0.15310287,-0.1366811,0.3109304,-0.33261612,move
0.1655787,0.5713515,-0.15310287,-0.1366811,0.3109304,-0.33261612,move
0.46934932,0.23673391,-2.0717273,-0.19165897,0.14049901,-0.38026363,move
0.46934932,0.23673391,-2.0717273,-0.19165897,0.14049901,-0.38026363,move
0.69838196,-0.7131002,-0.95539,-0.5746715,-0.2742785,-0.4859433,move
0.69838196,-0.7131002,-0.95539,-0.5746715,-0.2742785,-0.4859433,move
0.73539066,-1.4157135,1.2331276,-0.7713701,-0.17348573,-0.54275376,move
0.73539066,-1.4157135,1.2331276,-0.7713701,-0.17348573,-0.54275376,move
0.6405203,-1.7957466,1.554348,-0.6046039,0.04886922,-0.49754974,move
0.6405203,-1.7957466,1.554348,-0.6046039,0.04886922,-0.49754974,move
0.35512102,-1.619787,-0.29033947,-0.236863,0.17592919,-0.39187005,move
0.35512102,-1.619787,-0.29033947,-0.236863,0.17592919,-0.39187005,move
0.42491528,-1.3744965,-1.9374304,-0.029168816,0.12339478,-0.27091873,move
0.42491528,-1.3744965,-1.9374304,-0.029168816,0.12339478,-0.27091873,move
0.42491528,-1.3744965,-1.9374304,0.0355829,-0.0036651916,-0.19456059,move
0.036904227,-1.2738655,-2.3740792,0.0355829,-0.0036651916,-0.19456059,move
0.22204249,-0.86394525,-2.0622325,0.09789115,-0.04886922,-0.08032878,move
0.22204249,-0.86394525,-2.0622325,0.09789115,-0.04886922,-0.08032878,move
-0.19513023,-0.36600542,-2.514793,0.14126259,-0.017715093,-0.022907447,move
-0.19513023,-0.36600542,-2.514793,0.14126259,-0.017715093,-0.022907447,move
0.1694928,0.38912535,-2.2159157,0.04046982,0.122783914,0.05222898,move
0.1694928,0.38912535,-2.2159157,0.04046982,0.122783914,0.05222898,move
0.12834202,0.8255358,-1.1522512,0.093004234,-0.053145275,0.050396383,move
0.12834202,0.8255358,-1.1522512,0.3837761,-0.5345071,0.03634648,move
0.12834202,0.8255358,-1.1522512,0.3837761,-0.5345071,0.03634648,move
-0.18624738,0.7801757,0.10051918,0.3837761,-0.5345071,0.03634648,move
-0.4015376,0.94453,1.1725521,0.6000224,-0.7318166,0.040011674,move
-0.4015376,0.94453,1.1725521,0.6000224,-0.7318166,0.040011674,move
-0.4015376,0.94453,1.1725521,0.5560401,-0.2687807,0.013133603,move
-0.52153486,0.8369808,1.2246714,0.5560401,-0.2687807,0.013133603,move
-1.5665501,0.9430671,1.7557402,0.44608435,0.43799037,0.038789943,move
-1.5665501,0.9430671,1.7557402,0.44608435,0.43799037,0.038789943,move
-1.6669956,0.9983382,1.116889,0.44180828,0.72692966,0.22204952,move
-1.6669956,0.9983382,1.116889,0.44180828,0.72692966,0.22204952,move
-1.3494756,1.5353165,0.16359329,0.60918534,0.41233405,0.42424592,move
-1.3494756,1.5353165,0.16359329,0.60918534,0.41233405,0.42424592,move
-1.3117418,2.172536,-0.28203583,0.6580546,0.052534413,0.5103779,move
-1.3117418,2.172536,-0.28203583,0.6580546,0.052534413,0.5103779,move
-0.85421634,2.3619494,-0.79863644,0.56214875,-0.07574729,0.54458636,move
-0.85421634,2.3619494,-0.79863644,0.56214875,-0.07574729,0.54458636,move
-0.30755672,2.0247092,0.18927002,0.36117408,-0.28160888,0.5109888,move
-0.30755672,2.0247092,0.18927002,0.36117408,-0.28160888,0.5109888,move
0.6999942,1.5124893,0.5490589,0.24816401,-0.32498032,0.4089743,move
0.6999942,1.5124893,0.5490589,0.24816401,-0.32498032,0.4089743,move
0.82488215,1.3176756,0.37348366,-0.031001411,-0.14110987,0.183565,move
0.82488215,1.3176756,0.37348366,-0.031001411,-0.14110987,0.183565,move
-0.5015284,0.4788146,0.17237186,-0.32177326,0.0421497,-0.08460484,move
-0.5015284,0.4788146,0.17237186,-0.32177326,0.0421497,-0.08460484,move
-1.4022311,-0.07706308,0.28634548,-0.45005497,-0.007330383,-0.17501289,move
-1.4022311,-0.07706308,0.28634548,-0.45005497,-0.007330383,-0.17501289,move
-1.4657118,-0.653594,0.5246191,-0.3914119,-0.106901415,-0.160963,move
-1.4657118,-0.653594,0.5246191,-0.3914119,-0.106901415,-0.160963,move
-1.4657118,-0.653594,0.5246191,-0.23991732,-0.1160644,-0.1133155,move
-1.5628278,-1.1735668,0.28405666,-0.23991732,-0.1160644,-0.1133155,move
-1.3364222,-1.4624684,-0.8523822,-0.1067487,0.119729586,-0.022907447,move
-1.3364222,-1.4624684,-0.8523822,-0.1067487,0.119729586,-0.022907447,move
-0.7033159,-1.2984848,-2.634935,-0.11591168,0.44593164,0.06872234,move
-0.7033159,-1.2984848,-2.634935,-0.11591168,0.44593164,0.06872234,move
-0.2265677,-1.1774492,-3.0046434,-0.24358252,0.4868596,0.087659165,move
-0.2265677,-1.1774492,-3.0046434,-0.24358252,0.4868596,0.087659165,move
-0.28868264,-1.1576633,-1.5265241,-0.25518894,0.32436943,0.0870483,move
-0.28868264,-1.1576633,-1.5265241,-0.25518894,0.32436943,0.0870483,move
-0.83031523,-0.90002465,-0.57304096,0.028252518,0.1160644,0.13652839,move
-0.83031523,-0.90002465,-0.57304096,0.028252518,0.1160644,0.13652839,move
-1.4062493,-0.7484319,-0.78491306,0.3733914,-0.03359759,0.22815818,move
-1.4062493,-0.7484319,-0.78491306,0.3733914,-0.03359759,0.22815818,move
-1.0697824,-0.3040905,-1.4311066,0.49006665,-0.06291912,0.39064834,move
-1.0697824,-0.3040905,-1.4311066,0.49006665,-0.06291912,0.39064834,move
0.35397357,0.38067913,-0.5258913,0.3306308,-0.15332718,0.44623706,move
0.35397357,0.38067913,-0.5258913,0.3306308,-0.15332718,0.44623706,move
0.28585076,0.32925558,-0.4963045,0.30008754,-0.29016098,0.21288654,move
0.28585076,0.32925558,-0.4963045,0.30008754,-0.29016098,0.21288654,move
0.43908072,0.20381355,2.5055752,0.41065416,-0.39278635,-0.040011674,move
0.43908072,0.20381355,2.5055752,0.41065416,-0.39278635,-0.040011674,move
0.43908072,0.20381355,2.5055752,0.38866302,-0.22174409,-0.008246681,move
-0.114674434,-0.7123642,3.117589,0.38866302,-0.22174409,-0.008246681,move
0.29341117,0.0012550354,2.924118,0.24694228,0.28221974,0.24281894,move
0.29341117,0.0012550354,2.924118,0.24694228,0.28221974,0.24281894,move
0.29341117,0.0012550354,2.924118,0.25610524,0.45998153,0.31490102,move
1.2996881,0.75281143,1.3003092,0.25610524,0.45998153,0.31490102,move
3.1786869,1.4848075,0.32828903,0.15103643,0.07269296,0.10598512,move
3.1786869,1.4848075,0.32828903,0.15103643,0.07269296,0.10598512,move
2.7333791,1.0584307,0.6927738,-0.094531395,-0.17531833,-0.46089783,move
2.7333791,1.0584307,0.6927738,-0.094531395,-0.17531833,-0.46089783,move
2.7679124,1.085156,0.67578983,-0.41645738,0.06963864,-0.84207773,move
2.7679124,1.085156,0.67578983,-0.41645738,0.06963864,-0.84207773,move
-0.7678338,-1.2690561,0.7899637,-0.6375906,0.44165558,-0.76083267,move
-0.7678338,-1.2690561,0.7899637,-0.6375906,0.44165558,-0.76083267,move
-0.78237236,-1.6058428,0.706316,-0.6443101,0.37873647,-0.4914411,move
-0.78237236,-1.6058428,0.706316,-0.6443101,0.37873647,-0.4914411,move
0.20871362,-1.1465101,0.2584858,-0.43478334,0.16432275,-0.20066923,move
0.20871362,-1.1465101,0.2584858,-0.43478334,0.16432275,-0.20066923,move
0.76180214,-0.93662906,-1.3174186,-0.15317446,-0.03359759,-0.07727446,move
0.76180214,-0.93662906,-1.3174186,-0.15317446,-0.03359759,-0.07727446,move
1.1148238,-0.95917153,-2.9673228,-0.15745051,-0.014660766,-0.06994407,move
