accX,accY,accZ,angleX,angleY,angleZ,label
-0.86907804,1.1055431,2.5163279,-0.4036292,-0.17715092,-0.12614368,move
0.33925068,1.3742127,2.2307596,0.020922136,-0.7501425,0.038789943,move
1.3009652,1.2872317,1.5723057,0.020922136,-0.7501425,0.038789943,move
1.3009652,1.2872317,1.5723057,0.13148874,-0.84421575,-0.061391957,move
1.3489709,0.7956693,0.666008,0.13148874,-0.84421575,-0.061391957,move
1.3489709,0.7956693,0.666008,-0.023060163,-0.5174029,-0.30451632,move
1.3489709,0.7956693,0.666008,-0.023060163,-0.5174029,-0.30451632,move
0.7470751,0.06051159,0.6704893,-0.3016147,-0.13500121,-0.44806966,move
0.7470751,0.06051159,0.6704893,-0.3016147,-0.13500121,-0.44806966,move
0.20299095,-0.44842267,0.76955414,-0.25152376,-0.06658431,-0.46578476,move
0.20299095,-0.44842267,0.76955414,-0.25152376,-0.06658431,-0.46578476,move
-0.22466123,-0.89421105,0.111709595,0.07467828,-0.2883284,-0.33078352,move
-0.22466123,-0.89421105,0.111709595,0.07467828,-0.2883284,-0.33078352,move
-0.27246332,-0.9159534,0.114637375,0.34040466,-0.64568454,-0.12186762,move
-0.27246332,-0.9159534,0.114637375,0.34040466,-0.64568454,-0.12186762,move
0.1682216,-0.95702267,-1.2772527,0.31474832,-0.77213365,-0.11575896,move
1.7166176,-0.13739967,-1.1097026,0.31474832,-0.77213365,-0.11575896,move
1.7166176,-0.13739967,-1.1097026,0.08750644,-0.32559118,-0.3539964,move
1.7166176,-0.13739967,-1.1097026,0.08750644,-0.32559118,-0.3539964,move
0.5147333,-0.6697831,-1.3215017,-0.04810564,0.12217305,-0.505491,move
0.5147333,-0.6697831,-1.3215017,-0.04810564,0.12217305,-0.505491,move
-0.29577655,-0.92637324,-2.198731,0.13698652,0.06169739,-0.41325033,move
0.20911664,-0.47557735,-2.2157373,0.13698652,0.06169739,-0.41325033,move
0.20911664,-0.47557735,-2.2157373,0.35811976,-0.32803464,-0.18845193,move
0.9726479,0.18864441,-2.2491302,0.35811976,-0.32803464,-0.18845193,move
0.9726479,0.18864441,-2.2491302,0.52732944,-0.59742624,-0.14630222,move
0.9726479,0.18864441,-2.2491302,0.52732944,-0.59742624,-0.14630222,move
0.79889953,0.298172,-2.4425077,0.46074513,-0.4636467,-0.23548855,move
0.79889953,0.298172,-2.4425077,0.30558532,-0.23884831,-0.24709499,move
0.17108065,0.15418911,-1.467309,0.30558532,-0.23884831,-0.24709499,move
0.17108065,0.15418911,-1.467309,0.30558532,-0.23884831,-0.24709499,move
-0.24328852,0.23360205,-1.5297766,0.41126502,-0.11789699,-0.12858713,move
-0.24328852,0.23360205,-1.5297766,0.41126502,-0.11789699,-0.12858713,move
0.09935236,0.7337074,-1.0785389,0.49678615,-0.29871312,0.025961773,move
0.80429983,1.4530301,-0.11849213,0.49678615,-0.29871312,0.025961773,move
0.80429983,1.4530301,-0.11849213,0.47051895,-0.3115413,0.03634648,move
0.80429983,1.4530301,-0.11849213,0.43081272,-0.22418754,-0.112704635,move
0.72253484,1.5194292,0.68203545,0.43081272,-0.22418754,-0.112704635,move
0.69790554,1.4431887,0.7187462,0.43081272,-0.22418754,-0.112704635,move
0.69790554,1.4431887,0.7187462,0.46013424,-0.15943582,-0.17440203,move
0.69790554,1.4431887,0.7187462,0.46013424,-0.15943582,-0.17440203,move
-0.95645165,0.33904505,2.3758345,0.5309946,-0.12461651,-0.022296581,move
-0.95645165,0.33904505,2.3758345,0.6256787,0.10567969,0.23182335,move
-1.319444,0.41694212,2.409173,0.6256787,0.10567969,0.23182335,move
-1.319444,0.41694212,2.409173,0.6256787,0.10567969,0.23182335,move
-0.67495215,1.226429,1.1321077,0.660498,0.43310347,0.4718934,move
-0.3237911,1.8053985,-1.7454906,0.660498,0.43310347,0.4718934,move
-0.3237911,1.8053985,-1.7454906,0.4894558,0.61819565,0.4633413,move
0.6464071,1.6008635,-3.3235917,0.4894558,0.61819565,0.4633413,move
0.6464071,1.6008635,-3.3235917,-0.09514226,0.14355333,0.28313604,move
0.6464071,1.6008635,-3.3235917,-0.09514226,0.14355333,0.28313604,move
0.43092984,0.273973,1.3150082,-0.9277516,-0.8356637,-0.06811147,move
0.43092984,0.273973,1.3150082,-0.9277516,-0.8356637,-0.06811147,move
-0.87083465,-1.4332073,7.336481,-1.0877982,-0.8698721,-0.25870144,move
-2.4471824,-2.3114083,5.5401573,-1.0877982,-0.8698721,-0.25870144,move
-2.4471824,-2.3114083,5.5401573,-0.40485093,0.06169739,-0.043066,move
-2.4471824,-2.3114083,5.5401573,-0.40485093,0.06169739,-0.043066,move
-1.4687556,-1.5041242,-0.12488747,-0.0071776668,0.72692966,0.3839288,move
-1.4687556,-1.5041242,-0.12488747,-0.24297164,0.5833763,0.473726,move
-0.2631868,-0.7647054,-3.2122555,-0.24297164,0.5833763,0.473726,move
-0.2631868,-0.7647054,-3.2122555,-0.24297164,0.5833763,0.473726,move
-0.05897343,-0.6150596,-1.9696231,-0.6950119,0.06536258,0.3484986,move
-0.05897343,-0.6150596,-1.9696231,-0.77381355,-0.19181168,0.25381452,move
-0.19736671,-0.9206972,0.4264841,-0.77381355,-0.19181168,0.25381452,move
-0.28890857,-0.94137263,0.82451916,-0.77381355,-0.19181168,0.25381452,move
-0.28890857,-0.94137263,0.82451916,-0.41584653,-0.10934488,0.23548855,move
-0.28890857,-0.94137263,0.82451916,-0.41584653,-0.10934488,0.23548855,move
0.40368032,-0.6397114,-0.6677427,-0.06337727,0.1142318,0.2556471,move
0.45652214,-0.3522389,-2.78862,-0.06337727,0.1142318,0.2556471,move
0.45652214,-0.3522389,-2.78862,0.08445212,0.31703907,0.19394971,move
0.45652214,-0.3522389,-2.78862,0.08445212,0.31703907,0.19394971,move
0.045738697,-0.48211312,-3.38729,-0.11652254,0.3866777,0.12797627,move
-0.38690615,-0.67215633,-2.2464767,-0.11652254,0.3866777,0.12797627,move
-0.38690615,-0.67215633,-2.2464767,-0.29611692,0.3036,0.16462818,move
-0.74385357,-0.5875964,-1.3722029,-0.29611692,0.3036,0.16462818,move
-0.74385357,-0.5875964,-1.3722029,-0.1330159,0.28405234,0.27091873,move
-0.41495705,0.05902815,-1.5487008,-0.1330159,0.28405234,0.27091873,move
-0.41495705,0.05902815,-1.5487008,0.13454308,0.29749137,0.40103304,move
-0.41495705,0.05902815,-1.5487008,0.13454308,0.29749137,0.40103304,move
0.39973375,0.9117632,-1.9451003,0.2396119,0.27366763,0.3820962,move
0.39973375,0.9117632,-1.9451003,0.2396119,0.27366763,0.3820962,move
0.4260139,1.091537,-1.7831025,0.19624045,0.1600467,0.1853976,move
-0.19563103,0.70100355,-0.0430851,0.19624045,0.1600467,0.1853976,move
-0.19563103,0.70100355,-0.0430851,0.15592335,-0.034208454,0.083383106,move
-0.8567279,0.43051147,1.2890644,0.15592335,-0.034208454,0.083383106,move
-0.8567279,0.43051147,1.2890644,0.30925053,-0.20219639,0.10415252,move
-0.6474764,0.65331507,1.5708113,0.30925053,-0.20219639,0.10415252,move
-0.6474764,0.65331507,1.5708113,0.4729624,-0.10445796,0.25992316,move
-0.6474764,0.65331507,1.5708113,0.4729624,-0.10445796,0.25992316,move
0.27674907,1.0935116,1.2321968,0.515723,-0.06658431,0.26419923,move
0.27674907,1.0935116,1.2321968,0.515723,-0.06658431,0.26419923,move
0.9645487,1.6222463,1.779232,0.3746131,0.03726278,0.10842858,move
0.9645487,1.6222463,1.779232,0.3746131,0.03726278,0.10842858,move
0.9680394,1.5562782,1.8132153,0.4118759,0.069027774,-0.1572978,move
-0.809111,0.98342514,0.17794418,0.4118759,0.069027774,-0.1572978,move
-0.809111,0.98342514,0.17794418,0.34223726,0.010995574,-0.1957823,move
-0.809111,0.98342514,0.17794418,0.34223726,0.010995574,-0.1957823,move
-0.98612547,0.89286184,1.2033987,0.05207626,-0.17654006,-0.18417588,move
-0.98612547,0.89286184,1.2033987,0.05207626,-0.17654006,-0.18417588,move
-0.58766925,0.6781783,2.7074947,-0.09758572,-0.3726278,-0.17134771,move
-0.58766925,0.6781783,2.7074947,-0.09758572,-0.3726278,-0.17134771,move
-0.5425751,0.64560604,3.3608313,-0.1684461,-0.23579398,-0.18784106,move
0.050224155,0.35798073,1.7827091,-0.1684461,-0.23579398,-0.18784106,move
0.050224155,0.35798073,1.7827091,-0.20204368,-0.0580322,-0.2751948,move
0.050224155,0.35798073,1.7827091,-0.20204368,-0.0580322,-0.2751948,move
0.09254676,-0.3559351,2.4303188,-0.50320023,-0.12034045,-0.38515055,move
-0.20682034,-1.3571019,3.8282852,-0.50320023,-0.12034045,-0.38515055,move
-0.20682034,-1.3571019,3.8282852,-0.59971696,-0.12034045,-0.4175264,move
-0.20682034,-1.3571019,3.8282852,-0.59971696,-0.12034045,-0.4175264,move
-0.5498193,-1.9878247,2.7577314,-0.20998493,0.11056661,-0.22266038,move
-0.16635174,-1.8674355,-0.18141365,-0.20998493,0.11056661,-0.22266038,move
-0.16635174,-1.8674355,-0.18141365,0.09789115,0.14049901,0.025350908,move
-0.16635174,-1.8674355,-0.18141365,0.10094548,0.12034045,0.105374254,move
0.46787906,-1.3938799,-2.7108555,0.10094548,0.12034045,0.105374254,move
0.45746177,-1.3061633,-3.445983,0.10094548,0.12034045,0.105374254,move
0.45746177,-1.3061633,-3.445983,-0.11530081,0.04337143,0.07238753,move
0.45746177,-1.3061633,-3.445983,-0.1873829,-0.10567969,0.07666359,move
0.15014017,-1.2950897,-2.4448214,-0.1873829,-0.10567969,0.07666359,move
-0.22798824,-1.1862032,-1.913094,-0.1873829,-0.10567969,0.07666359,move
-0.22798824,-1.1862032,-1.913094,0.017256944,-0.22540927,0.14630222,move
-0.22798824,-1.1862032,-1.913094,0.017256944,-0.22540927,0.14630222,move
-0.16563818,-0.92659235,-2.180769,0.32635477,-0.29810223,0.23732115,move
-0.16563818,-0.92659235,-2.180769,0.4259258,-0.25411993,0.25992316,move
-0.20784107,-0.43636656,-3.1114526,0.4259258,-0.25411993,0.25992316,move
0.058517367,0.14481401,-3.2191916,0.4259258,-0.25411993,0.25992316,move
0.058517367,0.14481401,-3.2191916,0.3184135,-0.15943582,0.23487769,move
0.058517367,0.14481401,-3.2191916,0.3184135,-0.15943582,0.23487769,move
0.54191506,0.63516235,-2.8034725,0.23167065,-0.16432275,0.086437434,move
0.5129932,0.63493395,-1.4786615,0.23167065,-0.16432275,0.086437434,move
0.5129932,0.63493395,-1.4786615,0.16203201,-0.19425514,-0.13347405,move
-0.40587786,0.19235897,0.004190445,0.16203201,-0.19425514,-0.13347405,move
-0.40587786,0.19235897,0.004190445,0.26832256,-0.2180789,-0.26358834,move
-0.40587786,0.19235897,0.004190445,0.26832256,-0.2180789,-0.26358834,move
-1.0580522,-0.08200979,0.29811573,0.4644103,-0.06963864,-0.18295415,move
-1.1596086,0.1649065,-0.71604013,0.4644103,-0.06963864,-0.18295415,move
-1.1596086,0.1649065,-0.71604013,0.52488595,0.18387043,-0.01985312,move
-1.1596086,0.1649065,-0.71604013,0.52488595,0.18387043,-0.01985312,move
-0.6136073,0.7334609,-0.5433893,0.3678936,0.22479841,0.10598512,move
-0.6136073,0.7334609,-0.5433893,0.29275718,0.014660766,0.07849618,move
-0.3439045,1.1105433,1.2618618,0.29275718,0.014660766,0.07849618,move
-0.3439045,1.1105433,1.2618618,0.29275718,0.014660766,0.07849618,move
-1.2722441,0.6596484,2.595436,0.311694,-0.07941248,0.0033597588,move
-1.2794762,0.6054802,2.6264524,0.311694,-0.07941248,0.0033597588,move
-1.2794762,0.6054802,2.6264524,0.3306308,0.11728613,0.13775012,move
-1.2794762,0.6054802,2.6264524,0.3306308,0.11728613,0.13775012,move
-1.2905062,0.61296844,0.6084099,0.3098614,0.24801129,0.4034765,move
0.5734737,1.3546348,-0.4586482,0.3098614,0.24801129,0.4034765,move
0.5734737,1.3546348,-0.4586482,-0.23136522,0.002443461,0.42730024,move
0.5734737,1.3546348,-0.4586482,-0.23136522,0.002443461,0.42730024,move
1.2652024,0.91681767,2.518032,-0.8373435,-0.34330627,0.12980886,move
1.2652024,0.91681767,2.518032,-0.8373435,-0.34330627,0.12980886,move
-0.024576366,-0.26771975,5.8098345,-0.89476484,-0.37201694,-0.086437434,move
-1.542618,-1.1580968,5.1351175,-0.89476484,-0.37201694,-0.086437434,move
-1.542618,-1.1580968,5.1351175,-0.43295074,-0.028710667,0.036957346,move
-1.3592011,-0.7980962,1.5581102,-0.43295074,-0.028710667,0.036957346,move
-1.3592011,-0.7980962,1.5581102,-0.034055736,0.17837265,0.28313604,move
-1.3592011,-0.7980962,1.5581102,-0.034055736,0.17837265,0.28313604,move
-0.00570713,-0.120854855,-1.2790298,-0.11407909,0.06047566,0.33383787,move
-0.00570713,-0.120854855,-1.2790298,-0.11407909,0.06047566,0.33383787,move
0.2595229,-0.27545214,-1.5991955,-0.33337972,-0.10751228,0.18478674,move
0.2595229,-0.27545214,-1.5991955,-0.33337972,-0.10751228,0.18478674,move
0.08565599,-0.7094598,-1.02248,-0.4109596,-0.0580322,0.064446285,move
0.08565599,-0.7094598,-1.02248,-0.4109596,-0.0580322,0.064446285,move
-0.09215017,-0.9912052,-1.256083,-0.27412578,0.084910266,0.038179077,move
-0.09215017,-0.9912052,-1.256083,-0.27412578,0.084910266,0.038179077,move
0.04408917,-1.0945139,-2.267529,-0.11652254,0.2180789,0.07422013,move
0.04408917,-1.0945139,-2.267529,-0.11652254,0.2180789,0.07422013,move
0.27250263,-0.8635788,-2.8471694,-0.010231993,0.19425514,0.09560041,move
0.12667583,-0.7289884,-2.8075786,-0.010231993,0.19425514,0.09560041,move
0.12667583,-0.7289884,-2.8075786,0.08689558,0.12034045,0.121256754,move
0.0160878,-0.6062565,-3.0495777,0.08689558,0.12034045,0.121256754,move
0.0160878,-0.6062565,-3.0495777,0.24938573,0.027488936,0.14508049,move
-0.118815914,-0.32994223,-3.1384177,0.24938573,0.027488936,0.14508049,move
-0.118815914,-0.32994223,-3.1384177,0.2866485,0.044593163,0.17195857,move
0.15899478,0.4181862,-2.5336819,0.2866485,0.044593163,0.17195857,move
0.15899478,0.4181862,-2.5336819,0.24572055,0.029932396,0.1554652,move
0.25036344,0.8406682,-0.7438588,0.24572055,0.029932396,0.1554652,move
0.25036344,0.8406682,-0.7438588,0.20845777,-0.06658431,0.042455133,move
-0.11437852,0.8577204,-0.07268429,0.20845777,-0.06658431,0.042455133,move
-0.11437852,0.8577204,-0.07268429,0.36178493,-0.13439035,-0.087659165,move
-0.11437852,0.8577204,-0.07268429,0.36178493,-0.13439035,-0.087659165,move
-0.2863276,0.75032806,0.16764069,0.47112983,-0.19058995,-0.14630222,move
-0.2863276,0.75032806,0.16764069,0.47112983,-0.19058995,-0.14630222,move
-0.38875398,0.73101616,0.3054657,0.4222606,-0.17165314,-0.21655174,move
-0.38875398,0.73101616,0.3054657,0.4222606,-0.17165314,-0.21655174,move
-0.2673853,0.7424154,1.5197525,0.22678372,-0.13255776,-0.29840767,move
-0.124516174,0.9412203,3.3583574,0.22678372,-0.13255776,-0.29840767,move
-0.124516174,0.9412203,3.3583574,0.17730364,0.03970624,-0.3680463,move
-0.81824297,0.9814348,2.9775772,0.17730364,0.03970624,-0.3680463,move
-0.81824297,0.9814348,2.9775772,0.37522396,0.25473082,-0.41874814,move
-0.73690075,0.8596282,1.1613569,0.37522396,0.25473082,-0.41874814,move
-0.73690075,0.8596282,1.1613569,0.46196684,0.19975294,-0.3399465,move
-0.73690075,0.8596282,1.1613569,0.46196684,0.19975294,-0.3399465,move
-0.14980772,0.9228983,-0.09666538,0.18402316,-0.06414085,-0.26175576,move
-0.14980772,0.9228983,-0.09666538,0.18402316,-0.06414085,-0.26175576,move
0.7319832,1.3394346,1.7788992,-0.2875648,-0.4098906,-0.2751948,move
0.7319832,1.3394346,1.7788992,-0.2875648,-0.4098906,-0.2751948,move
1.287205,1.2940359,3.324397,-0.5777258,-0.30726522,-0.39370266,move
1.287205,1.2940359,3.324397,-0.5777258,-0.30726522,-0.39370266,move
0.99626744,0.6794467,4.015877,-0.7677049,-0.10751228,-0.58184916,move
-0.1669957,-0.25194407,4.7092953,-0.7677049,-0.10751228,-0.58184916,move
-0.1669957,-0.25194407,4.7092953,-0.7322747,0.02565634,-0.68752885,move
-0.1669957,-0.25194407,4.7092953,-0.7322747,0.02565634,-0.68752885,move
-0.85945797,-1.1069713,3.8668737,-0.43661594,0.10445796,-0.5360342,move
-0.85945797,-1.1069713,3.8668737,-0.43661594,0.10445796,-0.5360342,move
-0.4842526,-1.3463972,1.6677389,-0.04932737,0.17104226,-0.26297748,move
0.35840398,-1.168447,-1.1698151,-0.04932737,0.17104226,-0.26297748,move
0.35840398,-1.168447,-1.1698151,0.23167065,0.06536258,-0.03573562,move
1.0658756,-1.1329613,-2.864636,0.23167065,0.06536258,-0.03573562,move
1.0658756,-1.1329613,-2.864636,0.19440787,-0.1020145,-0.005192355,move
1.0658756,-1.1329613,-2.864636,0.19440787,-0.1020145,-0.005192355,move
1.0267738,-1.1041613,-2.7809634,-0.15012014,0.04642576,-0.10598512,move
1.0267738,-1.1041613,-2.7809634,-0.15012014,0.04642576,-0.10598512,move
0.14966449,-1.2482276,-2.3170204,-0.3315471,0.27000242,-0.22632557,move
0.14966449,-1.2482276,-2.3170204,-0.3315471,0.27000242,-0.22632557,move
-1.015203,-1.7088649,-1.6576066,-0.17150041,0.26939157,-0.1554652,move
-0.71434426,-1.2799461,-2.3216867,-0.17150041,0.26939157,-0.1554652,move
-0.71434426,-1.2799461,-2.3216867,0.29458976,0.027488936,0.14019357,move
-0.71434426,-1.2799461,-2.3216867,0.29458976,0.027488936,0.14019357,move
0.50722164,-0.5749278,-3.507752,0.5707009,-0.23457226,0.32467487,move
1.5113044,0.4561472,-4.038736,0.5707009,-0.23457226,0.32467487,move
1.5113044,0.4561472,-4.038736,0.31719178,-0.1423316,0.19211712,move
1.5113044,0.4561472,-4.038736,-0.04505131,0.07452556,-0.15363261,move
1.4384729,0.6978502,-2.5442886,-0.04505131,0.07452556,-0.15363261,move
1.4384729,0.6978502,-2.5442886,-0.04505131,0.07452556,-0.15363261,move
-0.033684254,0.047568798,-1.5854297,-0.07925977,0.17898351,-0.37782016,move
-0.9726408,-0.56752205,-0.9359131,-0.07925977,0.17898351,-0.37782016,move
-0.9726408,-0.56752205,-0.9359131,0.12721269,-0.039095376,-0.2947425,move
-0.7659328,-0.43796444,-0.869431,0.12721269,-0.039095376,-0.2947425,move
-0.7659328,-0.43796444,-0.869431,0.30558532,-0.084910266,-0.058948494,move
0.16686317,0.2915287,-1.6566491,0.30558532,-0.084910266,-0.058948494,move
0.16686317,0.2915287,-1.6566491,0.24388795,0.09712757,0.033292156,move
0.16686317,0.2915287,-1.6566491,0.24388795,0.09712757,0.033292156,move
-0.19979703,0.48463678,-0.8867693,-0.087201014,0.24556783,-0.029626964,move
-0.19979703,0.48463678,-0.8867693,-0.087201014,0.24556783,-0.029626964,move
-0.8178873,0.35083294,1.5905943,-0.20021108,0.18387043,0.01740966,move
-0.8178873,0.35083294,1.5905943,-0.20021108,0.18387043,0.01740966,move
-0.9429399,0.26397133,3.599639,0.074067414,-0.07574729,0.16157386,move
-0.76034516,0.38353825,4.6613045,0.074067414,-0.07574729,0.16157386,move
-0.76034516,0.38353825,4.6613045,0.38255435,-0.15149458,0.35155296,move
-0.76034516,0.38353825,4.6613045,0.38255435,-0.15149458,0.35155296,move
0.16739073,1.1778078,2.7606583,0.5554292,0.081855945,0.5390886,move
0.16739073,1.1778078,2.7606583,0.5554292,0.081855945,0.5390886,move
0.83120096,1.5806885,1.0499,0.38988474,0.09101892,0.5158757,move
0.7379259,1.5262837,0.7408705,0.38988474,0.09101892,0.5158757,move
0.7379259,1.5262837,0.7408705,-0.11530081,0.059253927,0.36865717,move
0.7379259,1.5262837,0.7408705,-0.11530081,0.059253927,0.36865717,move
-0.14276406,0.56053925,2.2314491,-0.6070473,-0.02076942,0.22143865,move
-0.14276406,0.56053925,2.2314491,-0.6070473,-0.02076942,0.22143865,move
-0.5656101,-0.06232357,4.3006973,-0.7799222,-0.1563815,0.22082779,move
-0.5656101,-0.06232357,4.3006973,-0.7799222,-0.1563815,0.22082779,move
-0.8696394,-0.5980048,5.2468987,-0.43233988,-0.3023783,0.27091873,move
-0.6183623,-0.60981464,2.5024767,-0.43233988,-0.3023783,0.27091873,move
-0.6183623,-0.60981464,2.5024767,0.07162395,-0.24312437,0.38148534,move
-0.6183623,-0.60981464,2.5024767,0.07162395,-0.24312437,0.38148534,move
-0.18220411,-0.35273075,-0.3412218,0.113162786,-0.08307768,0.3436117,move
0.026920453,-0.49183655,-1.4884157,0.113162786,-0.08307768,0.3436117,move
0.026920453,-0.49183655,-1.4884157,-0.1385137,0.03970624,0.18845193,move
0.026920453,-0.49183655,-1.4884157,-0.1385137,0.03970624,0.18845193,move
-0.34089613,-1.0654113,-1.4102249,-0.26313022,0.07452556,0.070554934,move
-0.34089613,-1.0654113,-1.4102249,-0.26313022,0.07452556,0.070554934,move
-0.55476654,-1.396004,-1.3493776,-0.14462234,0.056199603,0.109650314,move
-0.55476654,-1.396004,-1.3493776,-0.14462234,0.056199603,0.109650314,move
0.20394772,-1.2204638,-1.8219914,0.101556346,0.09101892,0.1994475,move
0.20394772,-1.2204638,-1.8219914,0.101556346,0.09101892,0.1994475,move
0.62840605,-1.0883408,-3.58212,0.23411411,0.2302962,0.1994475,move
0.62840605,-1.0883408,-3.58212,0.23411411,0.2302962,0.1994475,move
0.7806971,-0.8684983,-4.821396,0.20662516,0.22540927,0.14202617,move
0.3104501,-0.68939686,-4.608525,0.20662516,0.22540927,0.14202617,move
0.3104501,-0.68939686,-4.608525,0.008093964,0.12217305,0.06627888,move
0.3104501,-0.68939686,-4.608525,0.008093964,0.12217305,0.06627888,move
-0.2858128,-0.598773,-2.8015938,-0.11530081,0.054367006,0.083383106,move
-0.06791094,0.11101532,-1.2956572,-0.11530081,0.054367006,0.083383106,move
-0.06791094,0.11101532,-1.2956572,0.11255192,0.04337143,0.17928895,move
-0.06791094,0.11101532,-1.2956572,0.11255192,0.04337143,0.17928895,move
0.15049669,0.624403,-1.9686036,0.40454552,0.058643065,0.13897185,move
-0.0074695945,0.85733795,-2.2093801,0.40454552,0.058643065,0.13897185,move
-0.0074695945,0.85733795,-2.2093801,0.3465133,-0.07147124,0.03634648,move
-0.6964013,0.81932735,-0.022240639,0.3465133,-0.07147124,0.03634648,move
-0.6964013,0.81932735,-0.022240639,0.15347989,-0.30482176,-0.030848695,move
-0.6964013,0.81932735,-0.022240639,0.15347989,-0.30482176,-0.030848695,move
-0.61535704,1.1613955,1.665288,0.1742493,-0.3390302,0.004581489,move
-6.18E-04,1.2301111,2.227603,0.1742493,-0.3390302,0.004581489,move
-6.18E-04,1.2301111,2.227603,0.24266621,-0.092240654,9.16E-04,move
-6.18E-04,1.2301111,2.227603,0.24266621,-0.092240654,9.16E-04,move
0.8520447,1.4278026,2.4792604,0.23900102,0.096516706,-0.03634648,move
0.62650067,1.4944134,2.8642378,0.23900102,0.096516706,-0.03634648,move
0.62650067,1.4944134,2.8642378,0.34773505,0.01160644,-0.16035213,move
-0.17085983,1.2092881,1.9502993,0.34773505,0.01160644,-0.16035213,move
-0.17085983,1.2092881,1.9502993,0.47662762,-0.08979719,-0.21899518,move
-0.17085983,1.2092881,1.9502993,0.47662762,-0.08979719,-0.21899518,move
0.1643528,1.318439,1.0134935,0.33490688,-0.15027285,-0.20677789,move
0.17279768,1.2938318,1.0288134,0.33490688,-0.15027285,-0.20677789,move
0.17279768,1.2938318,1.0288134,-0.31688634,0.045814894,-0.33567044,move
0.17279768,1.2938318,1.0288134,-0.31688634,0.045814894,-0.33567044,move
-1.2756207,0.83585835,2.5579004,-0.66813385,0.16554448,-0.31673363,move
-1.2756207,0.83585835,2.5579004,-0.66813385,0.16554448,-0.31673363,move
-0.9636663,0.2545128,3.1848555,-0.66507953,0.0421497,-0.18112154,move
-0.9636663,0.2545128,3.1848555,-0.5148067,-0.06047566,-0.1518,move
0.1199474,0.045376778,4.0174932,-0.5148067,-0.06047566,-0.1518,move
0.1199474,0.045376778,4.0174932,-0.5148067,-0.06047566,-0.1518,move
-0.07789165,-0.75008535,2.741644,-0.20937407,-0.032375857,-0.15974127,move
-0.07789165,-0.75008535,2.741644,-0.20937407,-0.032375857,-0.15974127,move
-0.06046939,-1.335711,0.7096529,0.016035212,-0.052534413,-0.04428773,move
-0.06046939,-1.335711,0.7096529,0.016035212,-0.052534413,-0.04428773,move
0.22393999,-1.5349977,-1.1789708,0.03680463,0.021380283,0.106595986,move
0.9589355,-1.4283113,-2.4474735,0.03680463,0.021380283,0.106595986,move
0.9589355,-1.4283113,-2.4474735,-0.10919216,0.1160644,0.16646078,move
1.2718502,-1.2749786,-2.673833,-0.10919216,0.1160644,0.16646078,move
1.2718502,-1.2749786,-2.673833,-0.32482758,0.23518312,0.122478485,move
1.3164802,-1.1081259,-2.505103,-0.32482758,0.23518312,0.122478485,move
1.3164802,-1.1081259,-2.505103,-0.3810272,0.31581733,0.06566802,move
1.3164802,-1.1081259,-2.505103,-0.3810272,0.31581733,0.06566802,move
1.0789994,-1.2303419,-3.0273461,-0.1525636,0.15393804,0.035124753,move
1.0789994,-1.2303419,-3.0273461,-0.1525636,0.15393804,0.035124753,move
0.9285027,-1.1273165,-3.101748,0.10216721,-0.20952678,0.03940081,move
0.9285027,-1.1273165,-3.101748,0.10216721,-0.20952678,0.03940081,move
0.5868695,-0.9609668,-3.0376725,0.2133447,-0.3555236,0.038789943,move
0.33286375,-0.44326782,-2.7119613,0.2133447,-0.3555236,0.038789943,move
0.33286375,-0.44326782,-2.7119613,0.14676037,-0.25534168,0.022296581,move
0.33286375,-0.44326782,-2.7119613,0.14676037,-0.25534168,0.022296581,move
0.011062965,-0.14114094,-2.2323322,0.06795876,-0.06780604,-0.040011674,move
-0.008977085,0.2657075,-2.0077748,0.06795876,-0.06780604,-0.040011674,move
-0.008977085,0.2657075,-2.0077748,0.13576481,-0.0018325958,-0.05100725,move
-0.008977085,0.2657075,-2.0077748,0.13576481,-0.0018325958,-0.05100725,move
0.40004736,0.5513463,-1.6021953,0.21212296,-0.21013765,-0.06261369,move
0.40004736,0.5513463,-1.6021953,0.21212296,-0.21013765,-0.06261369,move
0.45731518,0.69127893,0.14467812,0.13637567,-0.42760566,-0.14385876,move
0.45731518,0.69127893,0.14467812,0.13637567,-0.42760566,-0.14385876,move
-0.7495308,0.28186703,2.051692,0.049632803,-0.17837265,-0.1695151,move
-0.9150023,0.50724125,2.4592896,0.049632803,-0.17837265,-0.1695151,move
-0.9150023,0.50724125,2.4592896,0.20173825,0.15271631,3.05E-04,move
-0.22512218,0.9669018,1.7093897,0.20173825,0.15271631,3.05E-04,move
-0.22512218,0.9669018,1.7093897,0.29703322,0.20219639,0.105374254,move
-0.22512218,0.9669018,1.7093897,0.29703322,0.20219639,0.105374254,move
0.13957973,1.51935,2.3527346,0.22067507,0.1160644,0.09987647,move
-0.8766559,1.2676663,3.233365,0.22067507,0.1160644,0.09987647,move
-0.8766559,1.2676663,3.233365,0.24327709,0.12339478,0.10048734,move
-0.90479195,1.3241625,1.842268,0.24327709,0.12339478,0.10048734,move
-0.90479195,1.3241625,1.842268,0.36300668,0.09101892,0.29046643,move
-0.2269789,1.4899497,0.32398605,0.36300668,0.09101892,0.29046643,move
-0.2269789,1.4899497,0.32398605,0.11988231,0.02321288,0.38087448,move
-0.2269789,1.4899497,0.32398605,-0.45860708,-0.16554448,0.27885997,move
-0.26442966,1.4910836,0.32259274,-0.45860708,-0.16554448,0.27885997,move
0.8305346,0.6066065,4.2007446,-0.45860708,-0.16554448,0.27885997,move
0.8305346,0.6066065,4.2007446,-0.77014834,-0.26083946,0.099265605,move
-0.4754805,-0.33706284,4.3869247,-0.77014834,-0.26083946,0.099265605,move
-0.4754805,-0.33706284,4.3869247,-0.41706824,-0.18020524,-0.009468411,move
-0.4754805,-0.33706284,4.3869247,-0.41706824,-0.18020524,-0.009468411,move
-1.2764801,-1.0523965,0.61293983,0.025809057,-0.061086524,0.11148291,move
-1.2764801,-1.0523965,0.61293983,0.025809057,-0.061086524,0.11148291,move
-0.8172506,-0.9379201,-1.786603,-0.024892759,-0.040317107,0.2519819,move
-0.8172506,-0.9379201,-1.786603,-0.024892759,-0.040317107,0.2519819,move
-0.72338927,-0.9275627,-1.5533309,-0.36453384,-0.007330383,0.21594086,move
-0.72338927,-0.9275627,-1.5533309,-0.36453384,-0.007330383,0.21594086,move
-0.8151846,-1.0885575,-1.0007977,-0.45738536,0.02443461,0.16279559,move
-0.8151846,-1.0885575,-1.0007977,-0.45738536,0.02443461,0.16279559,move
0.07006445,-0.731493,-1.2622104,-0.37491855,0.09468412,0.17379116,move
0.07006445,-0.731493,-1.2622104,-0.37491855,0.09468412,0.17379116,move
0.6897509,-0.58373594,-2.123011,-0.29611692,0.21074851,0.0852157,move
0.67671824,-0.7594826,-2.4024577,-0.29611692,0.21074851,0.0852157,move
0.67671824,-0.7594826,-2.4024577,-0.22892176,0.19730948,-0.015577064,move
0.67671824,-0.7594826,-2.4024577,-0.09392053,0.032986723,-0.0070249503,move
-0.11673238,-0.8079889,-1.968029,-0.09392053,0.032986723,-0.0070249503,move
-0.11673238,-0.8079889,-1.968029,0.16325374,0.017715093,0.12003502,move
0.07729381,-0.3147502,-1.3875403,0.16325374,0.017715093,0.12003502,move
0.07729381,-0.3147502,-1.3875403,0.16325374,0.017715093,0.12003502,move
0.51766497,0.18484831,-2.3468485,0.3287982,0.15454891,0.10842858,move
0.51766497,0.18484831,-2.3468485,0.3287982,0.15454891,0.10842858,move
0.6303395,0.3491168,-2.6889896,0.25244007,0.15760323,-0.0015271631,move
-0.047228493,0.2453804,-1.4545636,0.25244007,0.15760323,-0.0015271631,move
-0.047228493,0.2453804,-1.4545636,0.17913623,0.0067195175,-0.10354166,move
-0.047228493,0.2453804,-1.4545636,0.17913623,0.0067195175,-0.10354166,move
-0.578055,0.04339218,0.040852547,0.2695443,-0.2284636,-0.09193522,move
-0.578055,0.04339218,0.040852547,0.2695443,-0.2284636,-0.09193522,move
-0.6365663,0.12230015,1.2038059,0.38621956,-0.27488935,-0.046731193,move
-0.02344605,0.7287202,1.8471403,0.38621956,-0.27488935,-0.046731193,move
-0.02344605,0.7287202,1.8471403,0.44791695,0.03604105,-0.021685716,move
-0.02344605,0.7287202,1.8471403,0.44791695,0.03604105,-0.021685716,move
1.02E-04,0.7717104,1.1560497,0.48456886,0.19730948,-0.1151481,move
0.45077786,0.6265917,2.0579453,0.48456886,0.19730948,-0.1151481,move
0.45077786,0.6265917,2.0579453,0.5120578,-0.06169739,-0.18112154,move
0.45077786,0.6265917,2.0579453,0.5120578,-0.06169739,-0.18112154,move
0.09420228,0.55027914,2.7006693,0.55665094,-0.070249505,-0.27458394,move
0.09420228,0.55027914,2.7006693,0.55665094,-0.070249505,-0.27458394,move
-0.54772097,0.76475716,1.343071,0.46929723,0.16371189,-0.29901853,move
-0.6913909,0.82519007,0.5487385,0.46929723,0.16371189,-0.29901853,move
-0.6913909,0.82519007,0.5487385,0.19318613,0.25534168,-0.2434298,move
-0.2864232,1.2277617,0.5341997,0.19318613,0.25534168,-0.2434298,move
-0.2864232,1.2277617,0.5341997,-0.035888333,0.015271631,-0.22082779,move
-0.2864232,1.2277617,0.5341997,-0.035888333,0.015271631,-0.22082779,move
-0.024193496,0.88546515,0.41173363,-0.29794952,-0.15393804,-0.2941316,move
-0.024193496,0.88546515,0.41173363,-0.29794952,-0.15393804,-0.2941316,move
0.4370203,0.0887928,1.321106,-0.7359399,-0.16615535,-0.42852196,move
-0.80674857,-0.90631104,2.9431295,-0.7359399,-0.16615535,-0.42852196,move
-0.80674857,-0.90631104,2.9431295,-1.0987939,0.029321533,-0.5500842,move
-1.3789191,-1.6290953,3.7344027,-1.0987939,0.029321533,-0.5500842,move
-1.3789191,-1.6290953,3.7344027,-0.96684694,0.12950343,-0.3998113,move
-0.38758814,-1.6476712,0.8765125,-0.96684694,0.12950343,-0.3998113,move
-0.38758814,-1.6476712,0.8765125,-0.37064248,0.21135938,-0.08399397,move
1.0358123,-1.5205803,-2.1865544,-0.37064248,0.21135938,-0.08399397,move
1.0358123,-1.5205803,-2.1865544,-0.23380867,0.14477506,0.08399397,move
1.0358123,-1.5205803,-2.1865544,-0.23380867,0.14477506,0.08399397,move
1.4717382,-1.5299544,-2.3472128,-0.6339254,0.23335053,0.03390302,move
0.74632037,-1.6701858,-1.0544086,-0.6339254,0.23335053,0.03390302,move
0.74632037,-1.6701858,-1.0544086,-0.74204856,0.39767328,0.003970624,move
0.74632037,-1.6701858,-1.0544086,-0.74204856,0.39767328,0.003970624,move
0.36004812,-1.4794252,-1.6375699,-0.38713586,0.43371433,0.12858713,move
1.8210626,-0.45961022,-3.5005007,-0.38713586,0.43371433,0.12858713,move
1.8210626,-0.45961022,-3.5005007,0.0056505036,0.1740966,0.24831672,move
2.3582234,0.10750818,-3.6853733,0.0056505036,0.1740966,0.24831672,move
2.3582234,0.10750818,-3.6853733,0.061850104,-0.1704314,0.057726767,move
0.965341,-0.036785603,-2.2386537,0.061850104,-0.1704314,0.057726767,move
0.965341,-0.036785603,-2.2386537,-0.03894266,-0.1685988,-0.2012801,move
0.965341,-0.036785603,-2.2386537,-0.03894266,-0.1685988,-0.2012801,move
-0.6830524,-0.3963027,-1.0164213,0.08506299,-0.07880162,-0.22571471,move
-0.6830524,-0.3963027,-1.0164213,0.08506299,-0.07880162,-0.22571471,move
-0.4672596,-0.018577099,-1.513402,0.38560867,-0.069027774,-0.05589417,move
0.19774261,0.63234806,-1.9556122,0.38560867,-0.069027774,-0.05589417,move
0.19774261,0.63234806,-1.9556122,0.39660427,-0.13561209,0.008857546,move
0.19774261,0.63234806,-1.9556122,0.39660427,-0.13561209,0.008857546,move
1.3983815,1.3224659,-0.41851902,0.21151209,-0.18509217,-0.06994407,move
0.95109427,1.2815824,1.5171309,0.21151209,-0.18509217,-0.06994407,move
0.95109427,1.2815824,1.5171309,0.19685133,-0.20463985,-0.28313604,move
-0.6164602,0.74986076,2.867382,0.19685133,-0.20463985,-0.28313604,move
-0.6164602,0.74986076,2.867382,0.37766743,-0.119729586,-0.34788775,move
-0.6164602,0.74986076,2.867382,0.37766743,-0.119729586,-0.34788775,move
-1.0721948,0.61145353,1.4971418,0.6189592,0.077579886,-0.15424347,move
-1.0721948,0.61145353,1.4971418,0.6189592,0.077579886,-0.15424347,move
-0.5637784,0.7888441,0.9864769,0.52671856,0.093462385,0.06566802,move
-0.33288097,1.0932713,1.8743715,0.52671856,0.093462385,0.06566802,move
-0.33288097,1.0932713,1.8743715,0.3623958,-0.054367006,0.15363261,move
-0.33288097,1.0932713,1.8743715,0.3623958,-0.054367006,0.15363261,move
-0.35692105,1.0327034,1.9063244,0.2658791,0.015882496,0.18051068,move
-0.35692105,1.0327034,1.9063244,0.2658791,0.015882496,0.18051068,move
-1.4014336,1.3470073,-0.61334944,-0.027947085,0.13805555,0.269697,move
-1.4014336,1.3470073,-0.61334944,-0.027947085,0.13805555,0.269697,move
-0.35060248,1.4021378,-0.85703516,-0.5502369,-0.34269542,0.4382958,move
1.573432,0.95322657,2.7147427,-0.5502369,-0.34269542,0.4382958,move
1.573432,0.95322657,2.7147427,-0.9112582,-1.0903945,0.355829,move
1.573432,0.95322657,2.7147427,-0.9112582,-1.0903945,0.355829,move
0.9017986,0.4311943,6.945692,-0.8373435,-1.0934488,0.17134771,move
0.9017986,0.4311943,6.945692,-0.8373435,-1.0934488,0.17134771,move
-1.0189468,-0.21029758,4.8355074,-0.100029185,-0.40317106,0.23671028,move
-1.0189468,-0.21029758,4.8355074,-0.100029185,-0.40317106,0.23671028,move
-1.3732862,-0.64793897,-0.028738022,0.3678936,-0.2321288,0.46395215,move
-1.3732862,-0.64793897,-0.028738022,0.3678936,-0.2321288,0.46395215,move
-0.75633335,-0.6016879,-2.873406,0.36545014,-0.40317106,0.5494733,move
-0.75633335,-0.6016879,-2.873406,0.36545014,-0.40317106,0.5494733,move
-0.31877002,-1.0631142,-3.0767102,-0.01450805,-0.7611381,0.4016439,move
-0.31877002,-1.0631142,-3.0767102,-0.463494,-0.6939429,0.2593123,move
0.14520675,-1.0894384,-0.6552448,-0.463494,-0.6939429,0.2593123,move
-0.06212634,-1.3325067,1.3236389,-0.463494,-0.6939429,0.2593123,move
-0.06212634,-1.3325067,1.3236389,-0.46960264,-0.34697145,0.07971791,move
-0.06212634,-1.3325067,1.3236389,-0.46960264,-0.34697145,0.07971791,move
-0.4313459,-1.292738,0.20698357,-0.13607024,0.13072516,0.033292156,move
-0.14488584,-1.344307,-2.3313107,-0.13607024,0.13072516,0.033292156,move
-0.14488584,-1.344307,-2.3313107,0.14065172,0.30665436,0.041233405,move
-0.14488584,-1.344307,-2.3313107,0.14065172,0.30665436,0.041233405,move
-0.31554097,-1.1312768,-2.957776,0.06918049,0.24984388,0.022296581,move
-0.32458866,-0.8692279,-1.8728409,0.06918049,0.24984388,0.022296581,move
-0.32458866,-0.8692279,-1.8728409,0.034972034,0.24617869,0.06261369,move
-0.33639354,-0.39807367,-2.261766,0.034972034,0.24617869,0.06261369,move
-0.33639354,-0.39807367,-2.261766,0.1815797,0.2950479,0.083383106,move
-0.33639354,-0.39807367,-2.261766,0.1815797,0.2950479,0.083383106,move
0.14714473,0.20958376,-2.1484132,0.113162786,0.39828414,0.058948494,move
0.031538486,0.50326395,-0.45178223,0.113162786,0.39828414,0.058948494,move
0.031538486,0.50326395,-0.45178223,-0.07498371,0.5516113,-0.10415252,move
-0.56888753,0.46987677,1.460125,-0.07498371,0.5516113,-0.10415252,move
-0.56888753,0.46987677,1.460125,0.02275473,0.37934732,-0.16218472,move
-0.72528076,0.7405815,2.4243164,0.02275473,0.37934732,-0.16218472,move
-0.72528076,0.7405815,2.4243164,0.46318856,0.004886922,-0.105374254,move
-0.72528076,0.7405815,2.4243164,0.8052731,-0.12767084,-0.058337633,move
-0.56569576,0.6053338,1.3700953,0.8052731,-0.12767084,-0.058337633,move
0.24342617,0.61833,1.3352528,0.8052731,-0.12767084,-0.058337633,move
0.24342617,0.61833,1.3352528,0.61468315,0.055588737,-0.033292156,move
0.24342617,0.61833,1.3352528,0.61468315,0.055588737,-0.033292156,move
0.6399575,0.5058055,1.9494629,0.40759984,0.18936823,-0.102319926,move
0.6399575,0.5058055,1.9494629,0.40759984,0.18936823,-0.102319926,move
0.17760523,0.71387625,2.6068888,0.35628715,0.27855456,-0.13958271,move
0.17760523,0.71387625,2.6068888,0.35628715,0.27855456,-0.13958271,move
-0.044835307,0.8649039,1.5590439,0.5193882,0.2761111,-0.07360926,move
-0.044835307,0.8649039,1.5590439,0.5193882,0.2761111,-0.07360926,move
0.3589444,1.1960807,0.41744804,0.54626626,0.017104227,0.0033597588,move
0.91864496,1.716847,0.8989134,0.54626626,0.017104227,0.0033597588,move
0.91864496,1.716847,0.8989134,0.3501785,-0.12950343,-0.05589417,move
0.91864496,1.716847,0.8989134,0.3501785,-0.12950343,-0.05589417,move
0.6191503,1.6850858,0.48291206,0.10277808,0.2125811,-0.1908954,move
0.6191503,1.6850858,0.48291206,0.10277808,0.2125811,-0.1908954,move
0.91229427,1.236404,-1.2029157,-0.19349156,0.29443705,-0.35827246,move
0.3701609,0.25392818,-0.3234024,-0.19349156,0.29443705,-0.35827246,move
0.3701609,0.25392818,-0.3234024,-0.7506007,0.111177474,-0.6026186,move
0.3701609,0.25392818,-0.3234024,-0.7506007,0.111177474,-0.6026186,move
-0.6018145,-1.4811344,1.8513565,-0.96929044,0.13805555,-0.6398814,move
-0.6018145,-1.4811344,1.8513565,-0.96929044,0.13805555,-0.6398814,move
-0.95518494,-2.4284866,1.5597687,-0.69806623,0.21930063,-0.42241332,move
-0.95518494,-2.4284866,1.5597687,-0.69806623,0.21930063,-0.42241332,move
-0.27222922,-2.2874231,-0.32601166,-0.3724751,0.17715092,-0.0852157,move
-0.27222922,-2.2874231,-0.32601166,-0.3724751,0.17715092,-0.0852157,move
0.50143576,-1.7339854,-1.448977,-0.12629639,-0.103847094,0.12858713,move
0.86788964,-1.3699105,-2.4097066,-0.12629639,-0.103847094,0.12858713,move
0.86788964,-1.3699105,-2.4097066,0.0795652,-0.31337386,0.15851954,move
0.68491423,-1.4597743,-2.6403484,0.0795652,-0.31337386,0.15851954,move
0.68491423,-1.4597743,-2.6403484,0.044135015,-0.3475823,0.07422013,move
0.68491423,-1.4597743,-2.6403484,0.044135015,-0.3475823,0.07422013,move
0.09255348,-1.4103591,-1.3757939,-0.12812899,-0.16249016,0.020463986,move
-0.32496965,-1.1386824,-1.3879876,-0.12812899,-0.16249016,0.020463986,move
-0.32496965,-1.1386824,-1.3879876,-0.107359566,0.17837265,0.01985312,move
0.023737282,-0.6347418,-1.8408113,-0.107359566,0.17837265,0.01985312,move
0.023737282,-0.6347418,-1.8408113,1.53E-04,0.38240165,0.070554934,move
0.22487828,-0.20980453,-2.641873,1.53E-04,0.38240165,0.070554934,move
0.22487828,-0.20980453,-2.641873,0.23105977,0.25350907,0.0076358155,move
-0.046389848,-0.050736427,-2.7730293,0.23105977,0.25350907,0.0076358155,move
-0.046389848,-0.050736427,-2.7730293,0.29947668,0.03176499,-0.04795292,move
-0.046389848,-0.050736427,-2.7730293,0.29947668,0.03176499,-0.04795292,move
-0.3473618,0.034407616,-2.0499258,0.20234911,-0.01038471,-0.053450707,move
-0.3473618,0.034407616,-2.0499258,0.20234911,-0.01038471,-0.053450707,move
-0.21555781,0.15219164,-0.83250237,0.06429356,0.0983493,-0.0033597588,move
-0.21555781,0.15219164,-0.83250237,0.06429356,0.0983493,-0.0033597588,move
-0.19394395,0.142766,-0.8266735,0.071013086,0.22113322,0.046731193,move
-0.057244837,0.4320941,0.76553535,0.071013086,0.22113322,0.046731193,move
-0.057244837,0.4320941,0.76553535,0.22250767,0.13561209,0.035124753,move
-0.057244837,0.4320941,0.76553535,0.32330042,-0.226631,0.121256754,move
-1.1082494,0.31672478,1.8264322,0.32330042,-0.226631,0.121256754,move
-1.1082494,0.31672478,1.8264322,0.32330042,-0.226631,0.121256754,move
-1.3504531,0.37251997,3.342826,0.46746463,-0.5839872,0.30085114,move
-1.3504531,0.37251997,3.342826,0.46746463,-0.5839872,0.30085114,move
-1.3870004,0.62425995,3.879736,0.56031615,-0.45081854,0.46700647,move
-0.914971,1.141922,1.6601229,0.56031615,-0.45081854,0.46700647,move
-0.914971,1.141922,1.6601229,0.50961435,0.15027285,0.6270532,move
-0.040347647,1.6283345,-0.7042732,0.50961435,0.15027285,0.6270532,move
-0.040347647,1.6283345,-0.7042732,0.14065172,0.45081854,0.6630942,move
1.9281559,1.7867174,-1.7148428,0.14065172,0.45081854,0.6630942,move
1.9281559,1.7867174,-1.7148428,-0.48365256,0.31031954,0.49938235,move
1.9281559,1.7867174,-1.7148428,-0.48365256,0.31031954,0.49938235,move
1.8328662,0.6343417,2.559291,-1.1397219,-0.1777618,0.06505715,move
1.8328662,0.6343417,2.559291,-1.1397219,-0.1777618,0.06505715,move
-0.4277977,-0.5125871,5.694746,-1.0309879,-0.14905111,-0.20189096,move
-1.6774858,-1.070847,2.9481087,-1.0309879,-0.14905111,-0.20189096,move
-1.6774858,-1.070847,2.9481087,-0.39813143,0.24923302,-0.0125227375,move
-0.684458,-0.3962984,-1.2094564,-0.39813143,0.24923302,-0.0125227375,move
-0.684458,-0.3962984,-1.2094564,-0.18616119,0.30909783,0.28252518,move
-0.684458,-0.3962984,-1.2094564,-0.18616119,0.30909783,0.28252518,move
0.21139629,0.23264933,-2.2514553,-0.45616361,0.070249505,0.30451632,move
0.21139629,0.23264933,-2.2514553,-0.45616361,0.070249505,0.30451632,move
0.41500908,0.092089176,-1.3192592,-0.68645984,-0.22296582,0.14569137,move
0.41500908,0.092089176,-1.3192592,-0.68645984,-0.22296582,0.14569137,move
0.5717371,-0.4349146,0.41117573,-0.6534731,-0.33292156,-0.04062254,move
0.5717371,-0.4349146,0.41117573,-0.6534731,-0.33292156,-0.04062254,move
0.15791166,-1.1479325,0.44199753,-0.4072944,-0.029932396,-0.12736541,move
-0.2874787,-1.2932792,-0.45324898,-0.4072944,-0.029932396,-0.12736541,move
-0.2874787,-1.2932792,-0.45324898,-0.16355917,0.11911872,-0.028405234,move
-0.2874787,-1.2932792,-0.45324898,-0.16355917,0.11911872,-0.028405234,move
0.39595443,-0.6678338,-1.1316652,-0.0035124752,0.22235495,0.0729984,move
0.39595443,-0.6678338,-1.1316652,-0.0035124752,0.22235495,0.0729984,move
0.7617965,-0.32568717,-2.0512571,0.124769226,0.33475417,-0.0033597588,move
0.7617965,-0.32568717,-2.0512571,0.20479257,0.25411993,-0.109650314,move
0.27707842,-0.3831222,-2.405223,0.20479257,0.25411993,-0.109650314,move
0.27707842,-0.3831222,-2.405223,0.20479257,0.25411993,-0.109650314,move
-0.53095555,-0.46650577,-1.8794198,0.23777929,0.26511553,-0.1414153,move
-0.53095555,-0.46650577,-1.8794198,0.23777929,0.26511553,-0.1414153,move
-0.825745,-0.30751324,-1.292366,0.31597003,0.27305678,-0.06261369,move
-0.4795983,0.36078262,-0.6605654,0.31597003,0.27305678,-0.06261369,move
-0.4795983,0.36078262,-0.6605654,0.46135598,0.12644911,0.009468411,move
-0.4795983,0.36078262,-0.6605654,0.46135598,0.12644911,0.009468411,move
-0.34479702,0.7977605,-0.85395193,0.54626626,0.043982297,-0.0571159,move
-0.8005439,0.91394854,-0.7734208,0.54626626,0.043982297,-0.0571159,move
-0.8005439,0.91394854,-0.7734208,0.43936482,0.073303826,-0.18417588,move
-1.4674153,0.53348064,0.24375725,0.43936482,0.073303826,-0.18417588,move
-1.4674153,0.53348064,0.24375725,0.3538437,-0.040317107,-0.24037547,move
-0.7222522,0.60090256,2.374999,0.3538437,-0.040317107,-0.24037547,move
-0.7222522,0.60090256,2.374999,0.33368513,-0.2706133,-0.17623462,move
-0.62034166,0.9146066,3.512208,0.33368513,-0.2706133,-0.17623462,move
-0.62034166,0.9146066,3.512208,0.43753225,-0.2321288,-0.15485434,move
-0.62034166,0.9146066,3.512208,0.43753225,-0.2321288,-0.15485434,move
-0.9403592,1.5258017,3.0386868,0.5847508,-0.05131268,-0.14508049,move
-0.9403592,1.5258017,3.0386868,0.5847508,-0.05131268,-0.14508049,move
-0.5496508,1.5857553,0.9969654,0.58108556,0.065973446,-0.121256754,move
0.34737802,1.9307551,1.5257874,0.58108556,0.065973446,-0.121256754,move
0.34737802,1.9307551,1.5257874,0.24755314,-0.051923547,-0.15424347,move
0.34737802,1.9307551,1.5257874,0.24755314,-0.051923547,-0.15424347,move
0.46730584,1.9739141,2.6307974,-0.06093381,-0.037873644,-0.34422258,move
0.70438206,1.27599,1.495101,-0.06093381,-0.037873644,-0.34422258,move
0.70438206,1.27599,1.495101,-0.345597,0.15271631,-0.59589905,move
0.70438206,1.27599,1.495101,-0.345597,0.15271631,-0.59589905,move
0.20927316,-0.047372818,2.768035,-0.6382015,-0.03359759,-0.7620544,move
0.20927316,-0.047372818,2.768035,-0.6382015,-0.03359759,-0.7620544,move
-0.83164716,-1.2611594,4.220792,-0.5337435,-0.06169739,-0.6759224,move
-0.83164716,-1.2611594,4.220792,-0.5337435,-0.06169739,-0.6759224,move
-0.89403903,-1.9081042,2.5752668,-0.0047342055,-0.010995574,-0.35460728,move
-0.0012114644,-1.9718077,-0.6609707,-0.0047342055,-0.010995574,-0.35460728,move
-0.0012114644,-1.9718077,-0.6609707,0.32818735,0.15088372,-0.04734206,move
-0.0012114644,-1.9718077,-0.6609707,0.32818735,0.15088372,-0.04734206,move
0.5852188,-2.0302799,-3.7144346,0.11927144,0.38362336,0.06505715,move
0.5852188,-2.0302799,-3.7144346,0.11927144,0.38362336,0.06505715,move
0.49271572,-2.055723,-3.9345899,-0.2454151,0.30970868,0.15485434,move
0.49271572,-2.055723,-3.9345899,-0.2454151,0.30970868,0.15485434,move
0.69643635,-1.9117334,-2.498654,-0.19776763,-0.08674286,0.28985557,move
1.2942286,-1.2921147,-2.2122655,-0.19776763,-0.08674286,0.28985557,move
1.2942286,-1.2921147,-2.2122655,0.13942999,-0.2706133,0.37659842,move
1.1021557,-1.1331236,-3.3474088,0.13942999,-0.2706133,0.37659842,move
1.1021557,-1.1331236,-3.3474088,0.3184135,-0.22113322,0.3051272,move
1.1021557,-1.1331236,-3.3474088,0.3184135,-0.22113322,0.3051272,move
0.7137712,-1.0360839,-3.7174397,0.11866058,-0.03176499,0.23548855,move
0.26516062,-0.8606119,-2.6944718,0.11866058,-0.03176499,0.23548855,move
0.26516062,-0.8606119,-2.6944718,-0.08597928,0.045814894,0.19272798,move
0.151524,-0.3701849,-1.6062531,-0.08597928,0.045814894,0.19272798,move
0.151524,-0.3701849,-1.6062531,-0.051159963,0.014049901,0.18478674,move
0.151524,-0.3701849,-1.6062531,-0.051159963,0.014049901,0.18478674,move
0.15309724,-0.0832181,-1.537365,0.14859296,0.030543262,0.16462818,move
0.15309724,-0.0832181,-1.537365,0.14859296,0.030543262,0.16462818,move
0.08646673,0.21216393,-1.6942811,0.14859296,0.030543262,0.16462818,move
0.24025719,0.49682808,-0.55047894,0.23655757,-0.004886922,0.15424347,move
0.24025719,0.49682808,-0.55047894,0.13454308,-0.08735373,0.18112154,move
0.43391165,0.9378543,1.3776464,0.13454308,-0.08735373,0.18112154,move
0.43391165,0.9378543,1.3776464,0.09483683,-0.17898351,0.20066923,move
0.43391165,0.9378543,1.3776464,0.09483683,-0.17898351,0.20066923,move
0.4497164,1.1144495,2.497033,0.22434026,-0.08307768,0.1957823,move
0.4497164,1.1144495,2.497033,0.22434026,-0.08307768,0.1957823,move
0.35278103,1.4832983,2.4591484,0.38988474,0.09896017,0.19394971,move
0.35278103,1.4832983,2.4591484,0.38988474,0.09896017,0.19394971,move
-0.12586612,1.4145198,2.1946192,0.42836925,0.1966986,0.15790866,move
-0.12586612,1.4145198,2.1946192,0.42836925,0.1966986,0.15790866,move
-0.74214506,1.6726851,1.8395557,0.34468073,0.2919936,0.22815818,move
-0.74214506,1.6726851,1.8395557,0.34468073,0.2919936,0.22815818,move
-0.8448575,1.890007,0.39095306,0.1498147,0.35185838,0.28191432,move
-0.8448575,1.890007,0.39095306,0.1498147,0.35185838,0.28191432,move
-0.26095366,1.9961643,-0.39707422,-0.20021108,0.13622294,0.29840767,move
-0.26095366,1.9961643,-0.39707422,-0.20021108,0.13622294,0.29840767,move
0.99472255,1.2218533,0.79911804,-0.59971696,-0.36896262,0.13591751,move
0.99472255,1.2218533,0.79911804,-0.59971696,-0.36896262,0.13591751,move
0.3501444,-0.14587593,4.9689655,-0.8782715,-0.6072,-0.10720685,move
0.3501444,-0.14587593,4.9689655,-0.8782715,-0.6072,-0.10720685,move
-1.5257584,-1.2130711,4.8352127,-0.5954409,-0.12583824,-0.110872045,move
-1.5257584,-1.2130711,4.8352127,-0.5954409,-0.12583824,-0.110872045,move
-1.5439038,-1.5454586,1.1058998,-0.21303925,0.2443461,0.12308934,move
-1.5439038,-1.5454586,1.1058998,-0.21303925,0.2443461,0.12308934,move
-1.5177269,-1.5165718,1.0905066,-0.14462234,0.1337795,0.29352075,move
-1.5177269,-1.5165718,1.0905066,-0.14462234,0.1337795,0.29352075,move
-0.1016776,-0.866909,-3.3685966,-0.35231653,-0.27183503,0.29168814,move
-0.1016776,-0.866909,-3.3685966,-0.35231653,-0.27183503,0.29168814,move
0.32361764,-0.8997128,-1.4311996,-0.61010164,-0.50335294,0.20861048,move
0.2234186,-1.1761012,-0.054620743,-0.61010164,-0.50335294,0.20861048,move
0.2234186,-1.1761012,-0.054620743,-0.5832236,-0.27977628,0.113926366,move
0.2234186,-1.1761012,-0.054620743,-0.5832236,-0.27977628,0.113926366,move
0.30960545,-1.3637114,-0.7647681,-0.37675115,-0.03726278,0.08399397,move
0.121244445,-1.2868204,-0.8569727,-0.37675115,-0.03726278,0.08399397,move
0.121244445,-1.2868204,-0.8569727,-0.3578143,0.14355333,0.09132435,move
0.121244445,-1.2868204,-0.8569727,-0.3578143,0.14355333,0.09132435,move
-0.10095307,-0.9789312,-0.62018967,-0.14950927,0.12644911,0.14508049,move
-0.10095307,-0.9789312,-0.62018967,-0.14950927,0.12644911,0.14508049,move
-0.15285029,-0.40402365,-1.8819695,0.21700987,0.058643065,0.19700404,move
-0.12661958,-0.012345314,-3.0084844,0.21700987,0.058643065,0.19700404,move
-0.12661958,-0.012345314,-3.0084844,0.34223726,0.062308256,0.18967366,move
-0.12661958,-0.012345314,-3.0084844,0.34223726,0.062308256,0.18967366,move
-0.049229607,0.4381256,-2.6521888,0.25060746,0.044593163,0.14630222,move
-0.11099223,0.6157317,-1.8955679,0.25060746,0.044593163,0.14630222,move
-0.11099223,0.6157317,-1.8955679,0.22495113,-0.007941248,0.058948494,move
-0.11099223,0.6157317,-1.8955679,0.22495113,-0.007941248,0.058948494,move
-0.06518238,0.8651128,-0.40255737,0.2762638,-0.17165314,-0.00580322,move
-0.06518238,0.8651128,-0.40255737,0.2762638,-0.17165314,-0.00580322,move
-0.28373775,0.94755554,1.0406294,0.3941608,-0.30665436,-0.089491755,move
-0.28373775,0.94755554,1.0406294,0.3941608,-0.30665436,-0.089491755,move
-0.5877055,0.9253144,1.257657,0.4925101,-0.14172074,-0.10354166,move
-0.41414618,0.70176363,0.9789038,0.4925101,-0.14172074,-0.10354166,move
-0.41414618,0.70176363,0.9789038,0.47968194,-0.05681047,-0.08032878,move
-0.41414618,0.70176363,0.9789038,0.47968194,-0.05681047,-0.08032878,move
0.27474225,1.1708202,1.802949,0.39354995,-0.084910266,-0.076052725,move
0.500387,1.671454,2.5036278,0.39354995,-0.084910266,-0.076052725,move
0.500387,1.671454,2.5036278,0.38683042,-0.069027774,-0.22082779,move
0.500387,1.671454,2.5036278,0.38683042,-0.069027774,-0.22082779,move
-0.4929701,1.4584827,1.2547398,0.43936482,0.04642576,-0.3368922,move
-0.4929701,1.4584827,1.2547398,0.43936482,0.04642576,-0.3368922,move
-0.92890394,1.0527496,0.7732849,0.25427267,-0.1160644,-0.28802297,move
-0.92890394,1.0527496,0.7732849,0.02031127,-0.30909783,-0.21533,move
-0.8615062,1.4709115,1.9748812,0.02031127,-0.30909783,-0.21533,move
-0.65930694,1.42066,2.117591,0.02031127,-0.30909783,-0.21533,move
-0.65930694,1.42066,2.117591,-0.14156802,-0.24862215,-0.17134771,move
-0.65930694,1.42066,2.117591,-0.14156802,-0.24862215,-0.17134771,move
0.46786037,1.372889,1.818018,-0.41218132,-0.092240654,-0.19761491,move
0.46786037,1.372889,1.818018,-0.68707067,-0.03848451,-0.35338554,move
0.2184066,0.29453564,2.890214,-0.68707067,-0.03848451,-0.35338554,move
0.2184066,0.29453564,2.890214,-0.68707067,-0.03848451,-0.35338554,move
0.13081512,-0.74711657,3.8865728,-0.6229298,-0.10445796,-0.36926803,move
0.13081512,-0.74711657,3.8865728,-0.18677205,-0.1600467,-0.23854288,move
0.2791773,-1.1726246,2.9048223,-0.18677205,-0.1600467,-0.23854288,move
0.2791773,-1.1726246,2.9048223,-0.18677205,-0.1600467,-0.23854288,move
0.9126226,-1.1516933,-0.42648983,0.3275765,-0.2706133,-0.079107046,move
1.4348395,-1.211472,-2.866107,0.3275765,-0.2706133,-0.079107046,move
1.4348395,-1.211472,-2.866107,0.39171734,-0.27000242,-0.071776666,move
1.0444808,-1.4369893,-3.8396149,0.39171734,-0.27000242,-0.071776666,move
1.0444808,-1.4369893,-3.8396149,0.038026363,0.115453534,-0.17684549,move
0.34718776,-1.8599796,-4.0821133,0.038026363,0.115453534,-0.17684549,move
0.34718776,-1.8599796,-4.0821133,-0.22770002,0.34391713,-0.23426682,move
-0.16918212,-1.8792553,-3.5124702,-0.22770002,0.34391713,-0.23426682,move
-0.16918212,-1.8792553,-3.5124702,-0.18555032,-0.0030543262,-0.14752395,move
-0.16918212,-1.8792553,-3.5124702,-0.18555032,-0.0030543262,-0.14752395,move
-0.013570696,-1.3766179,-2.510357,0.041691553,-0.30115658,-0.03756821,move
-0.013570696,-1.3766179,-2.510357,0.041691553,-0.30115658,-0.03756821,move
0.014720023,-0.8305249,-2.1281967,0.28115073,-0.30604348,-0.019242255,move
0.014720023,-0.8305249,-2.1281967,0.28115073,-0.30604348,-0.019242255,move
0.09530571,-0.5420084,-2.858942,0.34956762,-0.1301143,-0.046120327,move
0.004222721,-0.27114344,-3.0194054,0.34956762,-0.1301143,-0.046120327,move
0.004222721,-0.27114344,-3.0194054,0.17486018,-0.037873644,-0.08582657,move
-0.025940642,0.18420696,-2.0342336,0.17486018,-0.037873644,-0.08582657,move
-0.025940642,0.18420696,-2.0342336,-0.06337727,-0.042760566,-0.10903945,move
0.5683403,0.6617546,-0.28809452,-0.06337727,-0.042760566,-0.10903945,move
0.5683403,0.6617546,-0.28809452,-0.118966006,-0.13072516,-0.16157386,move
-0.06816548,0.55447054,1.9757566,-0.118966006,-0.13072516,-0.16157386,move
-0.06816548,0.55447054,1.9757566,0.044745877,-0.17470746,-0.29046643,move
-0.06816548,0.55447054,1.9757566,0.044745877,-0.17470746,-0.29046643,move
-1.3550829,-0.07207537,2.3755512,0.44119743,-0.069027774,-0.23182335,move
-1.6256411,0.09975338,0.53871155,0.44119743,-0.069027774,-0.23182335,move
-1.6256411,0.09975338,0.53871155,0.6073528,0.18570304,0.042455133,move
-1.6256411,0.09975338,0.53871155,0.6073528,0.18570304,0.042455133,move
-1.0143416,0.73921776,-0.14278603,0.37400225,0.21074851,0.27152961,move
-1.0143416,0.73921776,-0.14278603,0.37400225,0.21074851,0.27152961,move
-0.64142656,1.3680935,1.2512312,0.10277808,0.045814894,0.3454443,move
-1.0869547,1.8481245,3.5529623,0.10277808,0.045814894,0.3454443,move
-1.0869547,1.8481245,3.5529623,-0.02855795,-0.0018325958,0.3417791,move
-1.0869547,1.8481245,3.5529623,-0.02855795,-0.0018325958,0.3417791,move
-1.1156509,1.8481998,3.5535707,0.13942999,0.086132,0.38148534,move
-1.1156509,1.8481998,3.5535707,0.13942999,0.086132,0.38148534,move
-0.36515492,1.8449016,1.7245102,0.05879578,0.007330383,0.41263947,move
0.6171875,1.3740406,2.3663635,0.05879578,0.007330383,0.41263947,move
0.6171875,1.3740406,2.3663635,-0.34804046,-0.034208454,0.3136793,move
0.4298314,0.54719734,4.617338,-0.34804046,-0.034208454,0.3136793,move
0.4298314,0.54719734,4.617338,-0.6944011,0.028099801,0.12980886,move
0.4298314,0.54719734,4.617338,-0.33399057,0.3885103,0.06383542,move
-0.8547598,-0.34319878,3.715023,-0.33399057,0.3885103,0.06383542,move
-0.8547598,-0.34319878,3.715023,-0.33399057,0.3885103,0.06383542,move
-1.007072,-0.65328217,-0.6600108,-0.026725354,0.42455134,0.19394971,move
-1.007072,-0.65328217,-0.6600108,-0.026725354,0.42455134,0.19394971,move
-0.23112054,-0.49219656,-2.4707398,-0.12385293,0.1423316,0.29657507,move
-0.23112054,-0.49219656,-2.4707398,-0.12385293,0.1423316,0.29657507,move
0.40700436,-0.13015127,-2.8773313,-0.28389964,-0.09162979,0.19211712,move
0.40700436,-0.13015127,-2.8773313,-0.28389964,-0.09162979,0.19211712,move
0.4682316,-0.5509267,-2.6970396,-0.45249844,-0.18753563,-0.01740966,move
0.4682316,-0.5509267,-2.6970396,-0.45249844,-0.18753563,-0.01740966,move
0.18539718,-1.2071509,-1.5644426,-0.58261275,-0.18570304,-0.16462818,move
0.18539718,-1.2071509,-1.5644426,-0.58261275,-0.18570304,-0.16462818,move
0.036022335,-1.6551876,-0.7356615,-0.50808716,-0.1282817,-0.20250183,move
0.036022335,-1.6551876,-0.7356615,-0.50808716,-0.1282817,-0.20250183,move
-0.3026156,-1.75824,0.22614956,-0.26923886,-0.106901415,-0.17867808,move
-0.7780676,-1.8115647,-0.43245983,-0.26923886,-0.106901415,-0.17867808,move
-0.7780676,-1.8115647,-0.43245983,0.18219055,0.055588737,-0.06688975,move
-0.5080606,-1.3607104,-2.94413,0.18219055,0.055588737,-0.06688975,move
-0.5080606,-1.3607104,-2.94413,0.43569964,0.20097467,0.0729984,move
-0.35212594,-0.9853933,-3.5065951,0.43569964,0.20097467,0.0729984,move
-0.35212594,-0.9853933,-3.5065951,0.2640465,0.2302962,0.14508049,move
-0.35212594,-0.9853933,-3.5065951,0.2640465,0.2302962,0.14508049,move
-0.12660307,-0.27695465,-2.18292,0.12599096,0.11362094,0.19456059,move
-0.12660307,-0.27695465,-2.18292,0.12599096,0.11362094,0.19456059,move
0.32934636,0.5148778,-0.9161172,0.2096795,0.06352998,0.18051068,move
0.32934636,0.5148778,-0.9161172,0.2096795,0.06352998,0.18051068,move
0.0337386,1.0239077,-0.7905812,0.30069843,0.19120082,0.03940081,move
0.0337386,1.0239077,-0.7905812,0.2218968,0.25167647,-0.09560041,move
-0.60350835,1.1318598,0.0717659,0.2218968,0.25167647,-0.09560041,move
-0.60350835,1.1318598,0.0717659,0.2218968,0.25167647,-0.09560041,move
-0.99943715,1.147882,1.0033636,0.1956296,0.27000242,-0.1469131,move
-0.99943715,1.147882,1.0033636,0.1956296,0.27000242,-0.1469131,move
-0.9005465,0.9987893,1.2435331,0.22311853,0.26328292,-0.11575896,move
-0.9005465,0.9987893,1.2435331,0.22311853,0.26328292,-0.11575896,move
-0.3315867,1.1174936,1.9456158,0.24510968,0.06536258,-0.058337633,move
0.009143383,1.5276113,3.4653854,0.24510968,0.06536258,-0.058337633,move
0.009143383,1.5276113,3.4653854,0.35140023,-0.15332718,-0.063224554,move
-0.59105086,1.1561046,2.3718653,0.35140023,-0.15332718,-0.063224554,move
-0.59105086,1.1561046,2.3718653,0.57986385,-0.06291912,-0.15790866,move
-0.59105086,1.1561046,2.3718653,0.57986385,-0.06291912,-0.15790866,move
-0.5500356,1.1581874,0.76640034,0.3746131,-0.12950343,-0.10476339,move
-0.5500356,1.1581874,0.76640034,0.3746131,-0.12950343,-0.10476339,move
-0.1602721,1.1933355,1.5938063,-0.16722436,-0.19364429,-0.129198,move
-0.1602721,1.1933355,1.5938063,-0.16722436,-0.19364429,-0.129198,move
0.2957631,0.9045701,3.3827772,-0.49037206,-0.07880162,-0.17195857,move
0.2957631,0.9045701,3.3827772,-0.49037206,-0.07880162,-0.17195857,move
0.30317032,0.28835154,3.550951,-0.47693303,-0.09101892,-0.2678644,move
-0.11861396,-0.1858306,3.518856,-0.47693303,-0.09101892,-0.2678644,move
-0.11861396,-0.1858306,3.518856,-0.44150287,-0.047036625,-0.33444872,move
-0.5332586,-0.95205975,3.168745,-0.44150287,-0.047036625,-0.33444872,move
-0.5332586,-0.95205975,3.168745,-0.33093625,0.08674286,-0.23976462,move
-0.5332586,-0.95205975,3.168745,-0.33093625,0.08674286,-0.23976462,move
0.052504532,-1.2471564,1.6662235,-0.0071776668,0.12889257,-0.03573562,move
0.052504532,-1.2471564,1.6662235,-0.0071776668,0.12889257,-0.03573562,move
0.8954579,-1.0430634,-1.0505247,0.2762638,0.037873644,0.08827003,move
1.5846753,-0.74283886,-2.6865358,0.2762638,0.037873644,0.08827003,move
1.5846753,-0.74283886,-2.6865358,0.31963524,-0.04642576,0.033292156,move
1.1773491,-0.7926383,-3.692505,0.31963524,-0.04642576,0.033292156,move
1.1773491,-0.7926383,-3.692505,0.21762075,0.032986723,-0.17440203,move
1.1773491,-0.7926383,-3.692505,0.21762075,0.032986723,-0.17440203,move
0.22162119,-1.4110537,-4.1885357,0.116217114,0.106901415,-0.33078352,move
0.22162119,-1.4110537,-4.1885357,0.116217114,0.106901415,-0.33078352,move
-0.50347936,-1.7907174,-3.6831427,0.06246097,0.07574729,-0.2929099,move
-0.50347936,-1.7907174,-3.6831427,0.06246097,0.07574729,-0.2929099,move
-0.24724823,-1.3365967,-3.5215263,0.16997325,0.05131268,-0.14263703,move
-0.24724823,-1.3365967,-3.5215263,0.16997325,0.05131268,-0.14263703,move
0.12738457,-0.86042356,-4.329772,0.24388795,0.08552113,-0.056505036,move
0.88446736,-0.014295101,-3.762464,0.24388795,0.08552113,-0.056505036,move
0.88446736,-0.014295101,-3.762464,0.07467828,0.03481932,-0.08460484,move
0.88446736,-0.014295101,-3.762464,0.07467828,0.03481932,-0.08460484,move
0.41985303,0.08057737,-2.165246,-0.1348485,-0.01038471,-0.27763826,move
-0.350349,-0.3618536,-0.20935535,-0.1348485,-0.01038471,-0.27763826,move
-0.350349,-0.3618536,-0.20935535,-0.13729197,-0.122783914,-0.3173445,move
-0.350349,-0.3618536,-0.20935535,-0.13729197,-0.122783914,-0.3173445,move
-0.770004,-0.6171684,0.75031567,0.1553125,-0.21502456,-0.13652839,move
-0.770004,-0.6171684,0.75031567,0.1553125,-0.21502456,-0.13652839,move
-0.19007044,-0.09237528,0.73975754,0.31963524,-0.15271631,0.0888809,move
-0.19007044,-0.09237528,0.73975754,0.31963524,-0.15271631,0.0888809,move
0.22191374,0.60836554,1.1328678,0.2835942,0.089186326,0.14446963,move
-0.444165,0.67744684,1.1875191,0.2835942,0.089186326,0.14446963,move
-0.444165,0.67744684,1.1875191,0.26465738,0.258396,0.183565,move
-0.444165,0.67744684,1.1875191,0.33673948,0.08307768,0.30695978,move
-0.7004783,0.5880337,0.8685665,0.33673948,0.08307768,0.30695978,move
-0.7004783,0.5880337,0.8685665,0.33673948,0.08307768,0.30695978,move
-0.19614829,1.0337124,1.809639,0.23533584,-0.06963864,0.40225476,move
-0.19614829,1.0337124,1.809639,0.16752979,0.015271631,0.39492437,move
-0.42319882,1.314467,2.894102,0.16752979,0.015271631,0.39492437,move
-0.8367954,1.3454475,1.5785866,0.16752979,0.015271631,0.39492437,move
-0.8367954,1.3454475,1.5785866,0.1339322,0.08857546,0.43401974,move
-0.8367954,1.3454475,1.5785866,0.1339322,0.08857546,0.43401974,move
0.16250499,1.5238051,0.814908,-0.09758572,-0.10567969,0.505491,move
0.16250499,1.5238051,0.814908,-0.5502369,-0.35185838,0.38637227,move
1.3002074,1.4167352,2.5931826,-0.5502369,-0.35185838,0.38637227,move
1.3002074,1.4167352,2.5931826,-0.5502369,-0.35185838,0.38637227,move
0.8004627,0.8175392,5.185422,-0.7334964,-0.33658674,0.21227567,move
0.65953666,0.64406157,3.935503,-0.7334964,-0.33658674,0.21227567,move
0.65953666,0.64406157,3.935503,-0.36575556,-0.1423316,0.122478485,move
0.4990996,0.4157629,0.44500542,-0.36575556,-0.1423316,0.122478485,move
0.4990996,0.4157629,0.44500542,-0.07070765,-0.15088372,3.05E-04,move
0.3426196,-0.02492237,-0.494071,-0.07070765,-0.15088372,3.05E-04,move
0.3426196,-0.02492237,-0.494071,-0.1647809,-0.23945917,-0.15302174,move
-0.15472822,-0.74796915,-0.8856435,-0.1647809,-0.23945917,-0.15302174,move
-0.15472822,-0.74796915,-0.8856435,-0.26984972,-0.1685988,-0.33261612,move
-0.15472822,-0.74796915,-0.8856435,-0.26984972,-0.1685988,-0.33261612,move
-0.6144239,-1.6819441,-0.88522005,-0.3462079,-0.04153884,-0.39553526,move
-0.6144239,-1.6819441,-0.88522005,-0.3462079,-0.04153884,-0.39553526,move
-0.70484835,-1.9035239,-0.802742,-0.3211624,0.08735373,-0.3032946,move
-0.3576669,-1.5769665,-1.5244918,-0.3211624,0.08735373,-0.3032946,move
-0.3576669,-1.5769665,-1.5244918,-0.08353582,0.10751228,-0.1731803,move
-0.16258317,-1.3855495,-3.1113262,-0.08353582,0.10751228,-0.1731803,move
-0.16258317,-1.3855495,-3.1113262,0.20173825,0.08674286,-0.08155051,move
-0.16258317,-1.3855495,-3.1113262,0.20173825,0.08674286,-0.08155051,move
-0.31202263,-1.3778458,-3.7981052,0.17913623,0.049480084,-0.04428773,move
-0.31202263,-1.3778458,-3.7981052,0.17913623,0.049480084,-0.04428773,move
-0.78379124,-1.4215622,-3.1983213,0.10399981,0.056199603,0.041233405,move
-0.78379124,-1.4215622,-3.1983213,0.10399981,0.056199603,0.041233405,move
-0.8556069,-0.87725544,-2.4575448,0.18524489,0.11484267,0.20189096,move
-0.8556069,-0.87725544,-2.4575448,0.18524489,0.11484267,0.20189096,move
-0.54879427,-0.1572299,-2.9318843,0.25244007,0.1337795,0.28496864,move
-0.017280951,0.7967024,-2.9696245,0.25244007,0.1337795,0.28496864,move
-0.017280951,0.7967024,-2.9696245,0.13087788,0.1020145,0.26542094,move
0.22959247,1.2826242,-0.9362817,0.13087788,0.1020145,0.26542094,move
0.22959247,1.2826242,-0.9362817,0.06490443,-0.27183503,0.12980886,move
0.22959247,1.2826242,-0.9362817,0.06490443,-0.27183503,0.12980886,move
0.15873745,1.2674642,-0.9258914,0.19624045,-0.5858198,0.008246681,move
-0.62743694,0.8186207,3.0886173,0.19624045,-0.5858198,0.008246681,move
-0.62743694,0.8186207,3.0886173,0.34590244,-0.6236934,-0.025350908,move
-0.39991015,0.8846741,3.5313606,0.34590244,-0.6236934,-0.025350908,move
-0.39991015,0.8846741,3.5313606,0.3587306,-0.16065755,0.052839845,move
-0.39991015,0.8846741,3.5313606,0.3587306,-0.16065755,0.052839845,move
0.6215991,1.649929,3.1610956,0.38988474,0.15821409,0.016798794,move
0.335292,2.0304723,1.579895,0.38988474,0.15821409,0.016798794,move
0.335292,2.0304723,1.579895,0.48273626,0.20952678,-0.16035213,move
0.335292,2.0304723,1.579895,0.48273626,0.20952678,-0.16035213,move
-0.092997715,1.8308673,0.23561668,0.35201108,-0.069027774,-0.310625,move
-0.092997715,1.8308673,0.23561668,0.35201108,-0.069027774,-0.310625,move
-0.2626099,1.6027842,2.1623936,-0.037110064,-0.3585779,-0.35460728,move
-0.2626099,1.6027842,2.1623936,-0.037110064,-0.3585779,-0.35460728,move
-0.2626099,1.6027842,2.1623936,-0.037110064,-0.3585779,-0.35460728,move
-0.2626099,1.6027842,2.1623936,-0.037110064,-0.3585779,-0.35460728,move
-0.62740827,1.5131555,3.191269,-0.037110064,-0.3585779,-0.35460728,move
-0.26871872,0.8599911,2.2691975,-0.3529274,-0.09407325,-0.32406402,move
-0.24214886,0.92931795,2.2237158,-0.6748534,0.028710667,-0.34055737,move
-0.24214886,0.92931795,2.2237158,-0.6748534,0.028710667,-0.34055737,move
-0.059400856,-0.6176195,4.2390633,-0.7359399,0.09040806,-0.31612277,move
-0.059400856,-0.6176195,4.2390633,-0.7359399,0.09040806,-0.31612277,move
0.17698987,-1.1263299,3.7056875,-0.2759584,0.15577064,-0.09254608,move
0.88445675,-1.5077543,0.6729078,-0.2759584,0.15577064,-0.09254608,move
0.88445675,-1.5077543,0.6729078,0.1553125,0.258396,0.05955936,move
0.8448361,-1.5915842,-2.2695994,0.1553125,0.258396,0.05955936,move
0.8448361,-1.5915842,-2.2695994,0.28115073,0.35796702,0.121256754,move
0.75227255,-1.6692052,-4.1019793,0.28115073,0.35796702,0.121256754,move
0.75227255,-1.6692052,-4.1019793,0.23533584,0.3304781,0.14385876,move
0.75227255,-1.6692052,-4.1019793,0.23533584,0.3304781,0.14385876,move
0.49739334,-1.7644496,-5.103154,0.16752979,0.13927728,0.098043874,move
0.12164514,-1.9426887,-4.6592665,0.16752979,0.13927728,0.098043874,move
0.12164514,-1.9426887,-4.6592665,0.117438845,-0.20463985,0.106595986,move
0.57817256,-1.4055912,-3.1825857,0.117438845,-0.20463985,0.106595986,move
0.57817256,-1.4055912,-3.1825857,0.1797471,-0.44348818,0.14935656,move
0.57817256,-1.4055912,-3.1825857,0.1797471,-0.44348818,0.14935656,move
0.36226824,-1.2343392,-3.178464,0.27198774,-0.25595254,0.040011674,move
0.36226824,-1.2343392,-3.178464,0.27198774,-0.25595254,0.040011674,move
-0.21049102,-1.1850843,-3.911532,0.24083363,0.002443461,-0.025350908,move
-0.21049102,-1.1850843,-3.911532,0.24083363,0.002443461,-0.025350908,move
-0.84628135,-1.3593268,-4.541339,0.15653422,-0.018936822,-0.03390302,move
-0.84628135,-1.3593268,-4.541339,0.15653422,-0.018936822,-0.03390302,move
-0.69202304,-0.90610266,-3.8110332,-0.04505131,-0.21135938,0.07666359,move
0.37794513,0.12503767,-1.1206608,-0.04505131,-0.21135938,0.07666359,move
0.37794513,0.12503767,-1.1206608,-0.14950927,-0.44898596,0.13347405,move
0.99120355,0.7855997,1.4013815,-0.14950927,-0.44898596,0.13347405,move
0.99120355,0.7855997,1.4013815,0.20051652,-0.79412484,0.028405234,move
-0.37174278,0.4339347,1.621398,0.20051652,-0.79412484,0.028405234,move
-0.37174278,0.4339347,1.621398,0.59635717,-0.8063421,-0.08155051,move
-0.37174278,0.4339347,1.621398,0.59635717,-0.8063421,-0.08155051,move
-1.1795406,0.34665442,1.2635403,0.5102252,-0.31215215,0.09743301,move
-1.1795406,0.34665442,1.2635403,0.5102252,-0.31215215,0.09743301,move
-0.88362265,0.856091,2.2994633,0.101556346,0.30604348,0.37659842,move
-0.47294503,1.7749586,3.6037016,0.101556346,0.30604348,0.37659842,move
-0.47294503,1.7749586,3.6037016,-0.07009678,0.5864306,0.528093,move
-0.30571827,2.8717842,3.7633457,-0.07009678,0.5864306,0.528093,move
-0.30571827,2.8717842,3.7633457,0.053297993,0.5045747,0.5128214,move
-0.4990322,3.476934,2.0189228,0.053297993,0.5045747,0.5128214,move
-0.4990322,3.476934,2.0189228,0.0936151,0.3268129,0.3753767,move
-0.4990322,3.476934,2.0189228,0.0936151,0.3268129,0.3753767,move
0.38256258,2.9385848,1.6933537,-0.3828598,-0.07452556,0.23671028,move
0.38256258,2.9385848,1.6933537,-0.3828598,-0.07452556,0.23671028,move
1.3393455,1.855238,4.6898813,-0.95096445,-0.37812558,0.043066,move
1.3393455,1.855238,4.6898813,-0.95096445,-0.37812558,0.043066,move
0.32981944,0.34116697,8.796533,-0.9118691,-0.25350907,-0.17928895,move
-1.6636089,-0.7912555,5.730831,-0.9118691,-0.25350907,-0.17928895,move
-1.6636089,-0.7912555,5.730831,-0.17333302,0.46609017,-0.13225232,move
-1.6636089,-0.7912555,5.730831,-0.17333302,0.46609017,-0.13225232,move
-1.8304546,-1.6077061,-0.08112526,0.22800545,0.6188065,0.14752395,move
-1.8304546,-1.6077061,-0.08112526,0.22800545,0.6188065,0.14752395,move
-0.99199736,-0.9602723,-2.8011098,0.16081028,0.18692477,0.34300083,move
-0.99199736,-0.9602723,-2.8011098,0.16081028,0.18692477,0.34300083,move
-0.39116383,-0.9570608,-2.9891572,0.088728175,-0.30787608,0.33322698,move
0.038743913,-1.1470075,-2.4264727,0.088728175,-0.30787608,0.33322698,move
0.038743913,-1.1470075,-2.4264727,0.08078693,-0.5522222,0.2770274,move
0.27362746,-1.2984371,-2.473483,0.08078693,-0.5522222,0.2770274,move
0.27362746,-1.2984371,-2.473483,0.24877487,-0.657291,0.17684549,move
0.27362746,-1.2984371,-2.473483,0.24877487,-0.657291,0.17684549,move
0.018012643,-1.530092,-3.3404975,0.3294091,-0.47036624,0.054061573,move
-0.61418724,-1.8425684,-3.960022,0.3294091,-0.47036624,0.054061573,move
-0.61418724,-1.8425684,-3.960022,0.07651087,0.047647487,-0.008857546,move
-1.1321881,-1.717854,-2.8315983,0.07651087,0.047647487,-0.008857546,move
-1.1321881,-1.717854,-2.8315983,-0.28878653,0.5510005,0.07788532,move
-1.1321881,-1.717854,-2.8315983,-0.28878653,0.5510005,0.07788532,move
-0.86937636,-0.7619052,-1.9229503,-0.17150041,0.7244862,0.24770586,move
-0.86937636,-0.7619052,-1.9229503,0.14004086,0.5852089,0.28985557,move
-0.24442816,0.18323946,-2.2280183,0.14004086,0.5852089,0.28985557,move
0.29404384,0.8169246,-2.7040782,0.14004086,0.5852089,0.28985557,move
0.29404384,0.8169246,-2.7040782,0.18646662,0.49541172,0.18112154,move
0.29404384,0.8169246,-2.7040782,0.18646662,0.49541172,0.18112154,move
-0.009578884,1.1226001,-2.062737,-0.09514226,0.53023106,-0.018020526,move
-0.009578884,1.1226001,-2.062737,-0.09514226,0.53023106,-0.018020526,move
-0.5204611,0.9397898,0.25213432,-0.36758816,0.4972443,-0.16462818,move
-0.6077043,0.96407986,2.7988777,-0.36758816,0.4972443,-0.16462818,move
-0.6077043,0.96407986,2.7988777,-0.21487185,0.2950479,-0.14263703,move
-0.6077043,0.96407986,2.7988777,-0.21487185,0.2950479,-0.14263703,move
-0.5624372,0.9653673,2.7957678,0.420428,-0.037873644,-0.113926366,move
-0.5624372,0.9653673,2.7957678,0.420428,-0.037873644,-0.113926366,move
0.3706246,1.234304,2.620511,0.72586066,-0.124005646,-0.17501289,move
0.43567735,1.266818,2.001193,0.72586066,-0.124005646,-0.17501289,move
0.43567735,1.266818,2.001193,0.6421721,-0.14905111,-0.27397305,move
0.43567735,1.266818,2.001193,0.6421721,-0.14905111,-0.27397305,move
0.36768237,1.6823792,1.3884964,0.420428,-0.0983493,-0.38759398,move
0.36768237,1.6823792,1.3884964,0.420428,-0.0983493,-0.38759398,move
1.2226837,1.8565207,1.4166756,0.055741455,-0.11911872,-0.5671884,move
1.2226837,1.8565207,1.4166756,0.055741455,-0.11911872,-0.5671884,move
0.8198211,1.1927257,2.107606,-0.2759584,-0.0842994,-0.8194757,move
-0.107010186,0.3281541,2.3147058,-0.2759584,-0.0842994,-0.8194757,move
-0.107010186,0.3281541,2.3147058,-0.41034874,-0.069027774,-0.8378017,move
-0.09491232,0.09584904,1.5613089,-0.41034874,-0.069027774,-0.8378017,move
-0.09491232,0.09584904,1.5613089,-0.40607268,0.056199603,-0.6789767,move
-0.09491232,0.09584904,1.5613089,-0.40607268,0.056199603,-0.6789767,move
-0.026554834,-0.049391747,0.10969257,-0.4427246,0.13133603,-0.6197228,move
-0.026554834,-0.049391747,0.10969257,-0.4427246,0.13133603,-0.6197228,move
-0.4167308,-0.75384045,-0.18841934,-0.50320023,0.052534413,-0.60139686,move
-0.5592159,-1.5422261,-0.4340291,-0.50320023,0.052534413,-0.60139686,move
-0.5592159,-1.5422261,-0.4340291,-0.41706824,-0.051923547,-0.4804455,move
-0.16954671,-1.8937275,-1.3436427,-0.41706824,-0.051923547,-0.4804455,move
-0.16954671,-1.8937275,-1.3436427,-0.21059579,-0.12705997,-0.3155119,move
-0.07198562,-2.5109425,-2.8863482,-0.21059579,-0.12705997,-0.3155119,move
-0.07198562,-2.5109425,-2.8863482,-0.09392053,-0.040317107,-0.21410827,move
-0.07198562,-2.5109425,-2.8863482,-0.09392053,-0.040317107,-0.21410827,move
-0.13913871,-2.637618,-3.5962138,-0.2680171,0.093462385,-0.058948494,move
-0.13913871,-2.637618,-3.5962138,-0.2680171,0.093462385,-0.058948494,move
0.18894452,-2.135703,-3.4999375,-0.5215262,0.23823744,0.106595986,move
1.1609007,-1.436203,-3.5589032,-0.5215262,0.23823744,0.106595986,move
1.1609007,-1.436203,-3.5589032,-0.6229298,0.17348573,0.18906279,move
1.1937739,-0.80441284,-2.5977173,-0.6229298,0.17348573,0.18906279,move
1.1937739,-0.80441284,-2.5977173,-0.6711882,-0.25411993,0.090713486,move
0.43014818,-0.38660526,0.41005135,-0.6711882,-0.25411993,0.090713486,move
0.43014818,-0.38660526,0.41005135,-0.54168475,-0.7519751,0.003970624,move
0.43014818,-0.38660526,0.41005135,-0.54168475,-0.7519751,0.003970624,move
0.23703238,0.11708546,1.4069719,0.17180584,-0.5448918,-0.021685716,move
0.23703238,0.11708546,1.4069719,0.17180584,-0.5448918,-0.021685716,move
-0.088238694,0.56845427,-1.4261866,0.3904956,-0.021380283,-0.058948494,move
-0.49567866,0.6558714,-2.057622,0.3904956,-0.021380283,-0.058948494,move
-0.49567866,0.6558714,-2.057622,0.105832405,0.018325957,-0.118202426,move
-0.42482996,1.1799269,-0.5619993,0.105832405,0.018325957,-0.118202426,move
-0.42482996,1.1799269,-0.5619993,-0.09025534,-0.18875736,-0.0852157,move
0.12489757,1.784131,1.781148,-0.09025534,-0.18875736,-0.0852157,move
0.12489757,1.784131,1.781148,-0.08170322,-0.42149702,-0.160963,move
0.12489757,1.784131,1.781148,-0.08170322,-0.42149702,-0.160963,move
0.21049087,1.4254441,3.8524103,0.14004086,-0.18020524,-0.27885997,move
-0.31114072,0.8877015,3.021554,0.14004086,-0.18020524,-0.27885997,move
-0.31114072,0.8877015,3.021554,0.46013424,0.29810223,-0.25442538,move
-1.5201569,0.451921,2.913187,0.46013424,0.29810223,-0.25442538,move
-1.5201569,0.451921,2.913187,0.57742035,0.28771752,-0.13041973,move
-1.9943144,0.5224457,3.0541143,0.57742035,0.28771752,-0.13041973,move
-1.9943144,0.5224457,3.0541143,0.77411896,0.1777618,0.18967366,move
-1.9943144,0.5224457,3.0541143,0.77411896,0.1777618,0.18967366,move
-1.6542071,1.2178068,0.74679375,0.96776325,0.16615535,0.44012842,move
-1.6542071,1.2178068,0.74679375,0.96776325,0.16615535,0.44012842,move
-1.3999655,1.857513,-2.0966792,0.6097962,0.37995818,0.5152648,move
-0.5467758,1.9682488,-3.2836232,0.6097962,0.37995818,0.5152648,move
-0.5467758,1.9682488,-3.2836232,-0.23380867,0.45631635,0.4437936,move
0.6745944,0.7401829,-0.098638535,-0.23380867,0.45631635,0.4437936,move
0.6745944,0.7401829,-0.098638535,-1.1055133,-0.17959438,0.22632557,move
0.34531465,-0.4492216,6.800186,-1.1055133,-0.17959438,0.22632557,move
0.34531465,-0.4492216,6.800186,-1.3920091,-0.88697636,0.022296581,move
0.34531465,-0.4492216,6.800186,-1.3920091,-0.88697636,0.022296581,move
-1.3046341,-1.3785696,7.804014,-0.62109727,-0.51923543,0.03756821,move
-1.3046341,-1.3785696,7.804014,-0.62109727,-0.51923543,0.03756821,move
-1.3848358,-1.3857975,2.2401361,0.17119499,0.17348573,0.32162055,move
-0.5389217,-0.97102,-2.2739081,0.17119499,0.17348573,0.32162055,move
-0.5389217,-0.97102,-2.2739081,0.24510968,0.43799037,0.4822781,move
0.0313181,-0.8961935,-4.191764,0.24510968,0.43799037,0.4822781,move
0.0313181,-0.8961935,-4.191764,-0.18066339,0.2919936,0.37965274,move
0.06286153,-1.312212,-1.9024491,-0.18066339,0.2919936,0.37965274,move
0.06286153,-1.312212,-1.9024491,-0.676686,-0.21563543,0.20005837,move
0.06286153,-1.312212,-1.9024491,-0.676686,-0.21563543,0.20005837,move
0.045054197,-1.4050534,0.50267315,-0.45921794,-0.2669481,0.12186762,move
0.045054197,-1.4050534,0.50267315,-0.45921794,-0.2669481,0.12186762,move
-0.35001126,-1.6911244,-0.21504116,0.10522154,0.044593163,0.093767814,move
-1.0051274,-1.8808382,-1.9716668,0.10522154,0.044593163,0.093767814,move
-1.0051274,-1.8808382,-1.9716668,0.3287982,0.2669481,0.17745635,move
-1.0051274,-1.8808382,-1.9716668,0.3287982,0.2669481,0.17745635,move
-0.92855394,-1.6529064,-3.108302,0.3397938,0.2706133,0.3032946,move
-0.88588417,-1.1653776,-2.9982777,0.3397938,0.2706133,0.3032946,move
-0.88588417,-1.1653776,-2.9982777,0.2817616,0.23884831,0.36254853,move
-0.830302,-0.6224632,-3.052093,0.2817616,0.23884831,0.36254853,move
-0.830302,-0.6224632,-3.052093,0.27748555,0.19853121,0.3943135,move
-0.830302,-0.6224632,-3.052093,0.27748555,0.19853121,0.3943135,move
-0.42050606,0.06780577,-2.1255522,0.18280143,0.07513642,0.3894266,move
-0.42050606,0.06780577,-2.1255522,0.18280143,0.07513642,0.3894266,move
0.2071141,0.7074537,-0.51531124,0.15836681,-0.009773844,0.29718593,move
0.2071141,0.7074537,-0.51531124,0.22800545,-0.1441642,0.089491755,move
0.518819,1.1858797,0.5822115,0.22800545,-0.1441642,0.089491755,move
-0.6977439,0.8155751,1.4778004,0.22800545,-0.1441642,0.089491755,move
-0.6977439,0.8155751,1.4778004,0.2237294,-0.12889257,-0.105374254,move
-0.6977439,0.8155751,1.4778004,0.22800545,-0.10140363,-0.053450707,move
-1.1564016,0.26958036,2.4581108,0.22800545,-0.10140363,-0.053450707,move
-1.1564016,0.26958036,2.4581108,0.22800545,-0.10140363,-0.053450707,move
-0.332856,0.33757925,3.1874523,0.311694,-0.1459968,0.099265605,move
0.21554992,0.98267937,3.4750624,0.311694,-0.1459968,0.099265605,move
0.21554992,0.98267937,3.4750624,0.36178493,-0.080634214,0.1872302,move
1.0796931,1.937417,3.118515,0.36178493,-0.080634214,0.1872302,move
1.0796931,1.937417,3.118515,0.33185256,0.21930063,0.18051068,move
1.541487,1.9887538,1.2680397,0.33185256,0.21930063,0.18051068,move
1.541487,1.9887538,1.2680397,0.31597003,0.35735616,0.022296581,move
1.541487,1.9887538,1.2680397,0.31597003,0.35735616,0.022296581,move
1.7124434,2.17091,0.8401928,0.15653422,0.02443461,-0.13469578,move
1.7124434,2.17091,0.8401928,0.15653422,0.02443461,-0.13469578,move
1.3093818,1.685297,1.2082481,-0.03772093,-0.2003638,-0.36377025,move
1.3093818,1.685297,1.2082481,-0.03772093,-0.2003638,-0.36377025,move
0.9531913,0.7113738,0.64044094,-0.31505376,-0.10262536,-0.5910121,move
0.14894655,-0.14311504,0.9612074,-0.31505376,-0.10262536,-0.5910121,move
0.14894655,-0.14311504,0.9612074,-0.6430884,0.0580322,-0.7089091,move
-0.74521166,-0.97185135,1.3214264,-0.6430884,0.0580322,-0.7089091,move
-0.74521166,-0.97185135,1.3214264,-0.78542,0.19242255,-0.68019843,move
-0.74521166,-0.97185135,1.3214264,-0.78542,0.19242255,-0.68019843,move
-0.9291683,-1.5338221,1.2736511,-0.6284276,0.29871312,-0.50671273,move
-0.9291683,-1.5338221,1.2736511,-0.6284276,0.29871312,-0.50671273,move
-0.6838243,-1.7302923,0.030085564,-0.2582433,0.2180789,-0.1994475,move
-0.6838243,-1.7302923,0.030085564,-0.2582433,0.2180789,-0.1994475,move
0.208361,-1.4724419,-1.4997506,0.18402316,-0.07513642,0.0571159,move
1.0528722,-1.1777031,-3.4342437,0.18402316,-0.07513642,0.0571159,move
1.0528722,-1.1777031,-3.4342437,0.3587306,-0.13622294,0.13713925,move
1.0528722,-1.1777031,-3.4342437,0.3587306,-0.13622294,0.13713925,move
1.2960995,-1.1194427,-4.6261125,0.032528576,0.111177474,0.0070249503,move
1.2960995,-1.1194427,-4.6261125,0.032528576,0.111177474,0.0070249503,move
0.10126871,-1.3505096,-3.204368,-0.4549419,0.23884831,-0.12980886,move
0.10126871,-1.3505096,-3.204368,-0.4549419,0.23884831,-0.12980886,move
-0.9687781,-1.2343616,-0.854074,-0.42317688,0.103847094,-0.071776666,move
-0.9687781,-1.2343616,-0.854074,-0.42317688,0.103847094,-0.071776666,move
-0.66906923,-0.64559364,0.031642914,0.1656972,-0.115453534,0.09132435,move
0.04567323,0.03605318,-2.0193696,0.1656972,-0.115453534,0.09132435,move
0.04567323,0.03605318,-2.0193696,0.70448035,-0.17104226,0.13530666,move
0.04567323,0.03605318,-2.0193696,0.70448035,-0.17104226,0.13530666,move
0.49384925,0.35948133,-3.2742562,0.6189592,-0.034208454,0.05467244,move
0.08025237,0.35777092,-1.9742904,0.6189592,-0.034208454,0.05467244,move
0.08025237,0.35777092,-1.9742904,0.30069843,-0.04886922,-0.06872234,move
0.08025237,0.35777092,-1.9742904,0.30069843,-0.04886922,-0.06872234,move
-0.32723245,0.15100431,-0.036211967,0.27687466,-0.18936823,-0.12064589,move
-0.32723245,0.15100431,-0.036211967,0.27687466,-0.18936823,-0.12064589,move
-0.4736951,0.19287634,1.1431122,0.43081272,-0.2003638,-0.086437434,move
0.13354045,0.5862074,1.6173782,0.43081272,-0.2003638,-0.086437434,move
0.13354045,0.5862074,1.6173782,0.5645922,-0.069027774,0.0033597588,move
0.13354045,0.5862074,1.6173782,0.5645922,-0.069027774,0.0033597588,move
0.009005144,0.72373676,1.4196815,0.6079636,0.09590584,-0.005192355,move
0.009005144,0.72373676,1.4196815,0.6079636,0.09590584,-0.005192355,move
-0.6206369,0.8360119,1.6560297,0.47907108,0.11362094,0.057726767,move
-0.6206369,0.8360119,1.6560297,0.47907108,0.11362094,0.057726767,move
-1.043258,1.3547382,2.4116669,0.28909197,0.07819075,0.21777347,move
-1.043258,1.3547382,2.4116669,0.28909197,0.07819075,0.21777347,move
-1.1912787,1.5251808,1.997201,0.19501872,0.31520647,0.34238997,move
-0.84947664,1.5267434,1.0002546,0.19501872,0.31520647,0.34238997,move
-0.84947664,1.5267434,1.0002546,0.08384126,0.28893927,0.40958515,move
0.2696724,1.26654,0.102015495,0.08384126,0.28893927,0.40958515,move
0.2696724,1.26654,0.102015495,-0.1244638,0.049480084,0.3576616,move
0.2696724,1.26654,0.102015495,-0.1244638,0.049480084,0.3576616,move
0.76922905,0.69416666,1.074296,-0.5172501,-0.3145956,0.18784106,move
0.76922905,0.69416666,1.074296,-0.5172501,-0.3145956,0.18784106,move
0.07496698,-0.121679306,2.7307072,-0.68768156,-0.2938262,0.025961773,move
0.07496698,-0.121679306,2.7307072,-0.68768156,-0.2938262,0.025961773,move
-0.9110873,-0.81465626,1.4686918,-0.5728389,0.03359759,-0.03756821,move
-1.6832536,-1.5890281,-0.8386564,-0.5728389,0.03359759,-0.03756821,move
-1.6832536,-1.5890281,-0.8386564,-0.47326785,0.16920967,0.03940081,move
-1.6832536,-1.5890281,-0.8386564,-0.47326785,0.16920967,0.03940081,move
-1.0159558,-1.5009763,-1.9874349,-0.5123632,-0.06536258,0.2434298,move
0.30791637,-1.2628,-1.6210513,-0.5123632,-0.06536258,0.2434298,move
0.30791637,-1.2628,-1.6210513,-0.5355761,-0.3475823,0.28802297,move
0.30791637,-1.2628,-1.6210513,-0.52946746,-0.32803464,0.12308934,move
0.8907422,-1.0897055,-1.5858502,-0.52946746,-0.32803464,0.12308934,move
0.8907422,-1.0897055,-1.5858502,-0.52946746,-0.32803464,0.12308934,move
0.3224068,-1.5105813,-2.1411376,-0.5551238,-0.105068825,-0.06566802,move
-0.41240302,-1.5604899,-1.4942031,-0.5551238,-0.105068825,-0.06566802,move
-0.41240302,-1.5604899,-1.4942031,-0.65225136,-0.007941248,-0.129198,move
-0.41240302,-1.5604899,-1.4942031,-0.65225136,-0.007941248,-0.129198,move
-0.8793777,-1.6004391,-0.14686298,-0.52824575,0.05375614,-0.04795292,move
-0.8793777,-1.6004391,-0.14686298,-0.52824575,0.05375614,-0.04795292,move
-0.063244104,-0.870034,-0.64126396,-0.08231409,0.028710667,0.11575896,move
0.35633606,-0.12047243,-1.8033395,-0.08231409,0.028710667,0.11575896,move
0.35633606,-0.12047243,-1.8033395,0.22739458,-0.018936822,0.090713486,move
0.35633606,-0.12047243,-1.8033395,0.22739458,-0.018936822,0.090713486,move
-0.08586624,0.19637775,-1.684021,0.19807306,0.07452556,-0.053450707,move
-0.08586624,0.19637775,-1.684021,0.19807306,0.07452556,-0.053450707,move
-1.182186,0.15045166,-1.1153879,0.12293663,0.25167647,-0.15363261,move
-1.3146372,0.19747972,0.1263609,0.12293663,0.25167647,-0.15363261,move
-1.3146372,0.19747972,0.1263609,0.13026701,0.15760323,-0.06688975,move
-0.7317422,0.78834724,1.3112631,0.13026701,0.15760323,-0.06688975,move
-0.7317422,0.78834724,1.3112631,0.36483926,-0.1441642,-0.008246681,move
-0.5334649,0.91081095,1.8001623,0.36483926,-0.1441642,-0.008246681,move
-0.5334649,0.91081095,1.8001623,0.58352906,-0.258396,-0.08093964,move
-0.5334649,0.91081095,1.8001623,0.58352906,-0.258396,-0.08093964,move
-0.5078234,0.7429757,1.715107,0.5688683,-0.19547687,-0.13103059,move
-0.5078234,0.7429757,1.715107,0.5688683,-0.19547687,-0.13103059,move
-0.23782149,0.7370777,2.9090939,0.38866302,-0.056199603,-0.13347405,move
-0.23782149,0.7370777,2.9090939,0.38866302,-0.056199603,-0.13347405,move
-0.09176016,0.6702676,3.6032486,0.34040466,0.2302962,-0.10903945,move
-0.20003289,1.0120068,1.9541426,0.34040466,0.2302962,-0.10903945,move
-0.20003289,1.0120068,1.9541426,0.39171734,0.44409904,-0.016187929,move
1.0243299,1.6085572,0.7615223,0.39171734,0.44409904,-0.016187929,move
1.0243299,1.6085572,0.7615223,0.23167065,0.22602014,0.06261369,move
1.0243299,1.6085572,0.7615223,0.23167065,0.22602014,0.06261369,move
1.6530005,1.9431038,1.8374567,0.04841107,-0.19242255,-0.06872234,move
1.6530005,1.9431038,1.8374567,0.04841107,-0.19242255,-0.06872234,move
1.4621621,1.7888241,2.7068758,-0.031001411,-0.226631,-0.2611449,move
0.7077273,0.9186082,0.7100935,-0.031001411,-0.226631,-0.2611449,move
0.7077273,0.9186082,0.7100935,-0.087201014,0.052534413,-0.43218717,move
0.15318084,-0.036084652,-0.4863944,-0.087201014,0.052534413,-0.43218717,move
0.15318084,-0.036084652,-0.4863944,-0.41279218,0.13744467,-0.5390886,move
0.15318084,-0.036084652,-0.4863944,-0.41279218,0.13744467,-0.5390886,move
-0.27587783,-1.0036273,0.7154093,-0.7872526,0,-0.5177083,move
-0.27587783,-1.0036273,0.7154093,-0.7872526,0,-0.5177083,move
-0.11846709,-1.459445,2.1021976,-0.8000808,-0.09468412,-0.33261612,move
-0.11846709,-1.459445,2.1021976,-0.8000808,-0.09468412,-0.33261612,move
0.63290274,-1.7353268,1.3953552,-0.41584653,-0.0580322,-0.12980886,move
0.63290274,-1.7353268,1.3953552,-0.41584653,-0.0580322,-0.12980886,move
1.2503794,-1.4675772,-1.4024572,-0.063988134,0.08857546,-0.010079277,move
1.3846896,-1.5422785,-3.1370974,-0.063988134,0.08857546,-0.010079277,move
1.3846896,-1.5422785,-3.1370974,0.016646078,0.106901415,-0.03390302,move
1.3846896,-1.5422785,-3.1370974,0.016646078,0.106901415,-0.03390302,move
1.4043994,-1.5419238,-3.1372147,-0.071318515,0.07819075,-0.101098195,move
-0.030815847,-1.3728793,-2.5519242,-0.071318515,0.07819075,-0.101098195,move
-0.030815847,-1.3728793,-2.5519242,-0.032223143,0.028710667,-0.04734206,move
-0.45478874,-0.97265744,-2.471599,-0.032223143,0.028710667,-0.04734206,move
-0.45478874,-0.97265744,-2.471599,0.28420505,-0.0842994,0.08827003,move
-0.45478874,-0.97265744,-2.471599,0.28420505,-0.0842994,0.08827003,move
-0.24826807,-0.2236042,-3.3017263,0.54382277,-0.16798794,0.18051068,move
-0.24826807,-0.2236042,-3.3017263,0.54382277,-0.16798794,0.18051068,move
-0.19870588,0.3538313,-3.8038902,0.5542075,-0.15943582,0.13775012,move
-0.19870588,0.3538313,-3.8038902,0.40759984,-0.17104226,0.046731193,move
0.008171469,0.5988145,-4.285755,0.40759984,-0.17104226,0.046731193,move
0.008171469,0.5988145,-4.285755,0.40759984,-0.17104226,0.046731193,move
0.13059622,0.71970844,-2.9496975,0.11071932,-0.2864958,-0.08277224,move
0.13059622,0.71970844,-2.9496975,0.11071932,-0.2864958,-0.08277224,move
-0.25870413,0.37287903,-0.49446774,-0.08109236,-0.30176744,-0.17623462,move
-0.63939357,0.5036745,1.7150459,-0.08109236,-0.30176744,-0.17623462,move
-0.63939357,0.5036745,1.7150459,-0.013286319,-0.15577064,-0.13713925,move
-0.63939357,0.5036745,1.7150459,-0.013286319,-0.15577064,-0.13713925,move
-0.93040603,0.8505306,1.7616634,0.20540343,0.14110987,-0.036957346,move
-0.71092826,1.3382115,1.124443,0.20540343,0.14110987,-0.036957346,move
-0.71092826,1.3382115,1.124443,0.13148874,0.37323865,0.050396383,move
-0.71092826,1.3382115,1.124443,0.13148874,0.37323865,0.050396383,move
-0.83776283,1.5311399,2.75733,-0.046883907,0.19120082,0.067500606,move
-0.83776283,1.5311399,2.75733,-0.046883907,0.19120082,0.067500606,move
-1.2676364,1.4637761,4.8313103,0.039858956,-0.12583824,0.13836098,move
-1.6007915,1.0655541,5.2588215,0.039858956,-0.12583824,0.13836098,move
-1.6007915,1.0655541,5.2588215,0.30741793,-0.10934488,0.29718593,move
-1.6007915,1.0655541,5.2588215,0.30741793,-0.10934488,0.29718593,move
-0.7944369,1.4781923,3.692071,0.35934147,0.19058995,0.5543602,move
-0.7944369,1.4781923,3.692071,0.35934147,0.19058995,0.5543602,move
0.64062405,1.683248,2.2882614,0.07345655,0.3707952,0.6056729,move
0.64062405,1.683248,2.2882614,0.07345655,0.3707952,0.6056729,move
0.84993994,1.1828432,2.7401876,-0.236863,0.25350907,0.44868052,move
0.84993994,1.1828432,2.7401876,-0.236863,0.25350907,0.44868052,move
0.15102905,0.2959013,2.3960886,-0.15195273,0.07696902,0.30757064,move
0.15102905,0.2959013,2.3960886,-0.15195273,0.07696902,0.30757064,move
-0.3129365,-0.3501401,-0.57439756,0.056963183,0.13439035,0.28130344,move
-0.3151026,-0.35725498,-0.57001257,0.056963183,0.13439035,0.28130344,move
-0.3151026,-0.35725498,-0.57001257,-0.123242065,0.09285152,0.26908615,move
-0.7576409,-1.3148983,-2.6575637,-0.123242065,0.09285152,0.26908615,move
-0.7576409,-1.3148983,-2.6575637,-0.4512767,-0.1142318,0.26542094,move
-0.7576409,-1.3148983,-2.6575637,-0.4512767,-0.1142318,0.26542094,move
-0.2414353,-1.4068611,-1.4119201,-0.56184334,-0.14905111,0.2666427,move
-0.2414353,-1.4068611,-1.4119201,-0.56184334,-0.14905111,0.2666427,move
0.39741948,-1.4206824,-1.0782256,-0.3914119,-0.17287487,0.24465153,move
0.9936393,-1.2966189,-1.812717,-0.3914119,-0.17287487,0.24465153,move
0.9936393,-1.2966189,-1.812717,-0.15989397,-0.16920967,0.1872302,move
0.9936393,-1.2966189,-1.812717,-0.13790283,-0.09040806,0.064446285,move
0.96653366,-1.4411855,-2.323267,-0.13790283,-0.09040806,0.064446285,move
0.10776323,-1.6695626,-1.378057,-0.13790283,-0.09040806,0.064446285,move
0.10776323,-1.6695626,-1.378057,-0.21181752,-0.007330383,0.01863139,move
-0.28632134,-1.4282012,-0.69263697,-0.21181752,-0.007330383,0.01863139,move
-0.28632134,-1.4282012,-0.69263697,-0.05971208,0.1423316,0.098043874,move
-0.18946256,-0.8931017,-1.6672535,-0.05971208,0.1423316,0.098043874,move
-0.18946256,-0.8931017,-1.6672535,0.24266621,0.28893927,0.18173242,move
0.20002252,-0.2555666,-2.4228468,0.24266621,0.28893927,0.18173242,move
0.20002252,-0.2555666,-2.4228468,0.32696563,0.25228736,0.18845193,move
0.21216553,0.29993534,-1.831234,0.32696563,0.25228736,0.18845193,move
0.21216553,0.29993534,-1.831234,0.27870727,0.17531833,0.06627888,move
0.21216553,0.29993534,-1.831234,0.27870727,0.17531833,0.06627888,move
-0.68885803,0.30985498,-0.3553362,0.26893342,0.1142318,-0.058948494,move
-0.68885803,0.30985498,-0.3553362,0.26893342,0.1142318,-0.058948494,move
-1.8059318,-0.13336802,0.11022091,0.45158213,-6.11E-04,-0.033292156,move
-1.8059318,-0.13336802,0.11022091,0.45158213,-6.11E-04,-0.033292156,move
-1.6654509,0.15856552,0.26814175,0.6073528,-0.14905111,0.19517145,move
-1.6654509,0.15856552,0.26814175,0.6073528,-0.14905111,0.19517145,move
-0.33433077,1.1155295,-0.3964281,0.5560401,-0.07574729,0.33078352,move
0.8625491,1.8431177,0.68281555,0.5560401,-0.07574729,0.33078352,move
0.8625491,1.8431177,0.68281555,0.18585575,-0.034208454,0.20738874,move
0.8490975,1.9713321,2.9151201,0.18585575,-0.034208454,0.20738874,move
0.8490975,1.9713321,2.9151201,-0.08231409,0.0012217305,-0.020463986,move
0.8490975,1.9713321,2.9151201,-0.08231409,0.0012217305,-0.020463986,move
0.29986614,1.8944492,4.24275,0.11377365,-0.108123146,-0.14813483,move
0.29986614,1.8944492,4.24275,0.11377365,-0.108123146,-0.14813483,move
0.60244447,1.6231174,2.5087042,0.46074513,-0.015271631,-0.1414153,move
0.60244447,1.6231174,2.5087042,0.46074513,-0.015271631,-0.1414153,move
0.54785305,1.250936,1.1303701,0.24694228,-0.07269296,-0.19517145,move
0.54785305,1.250936,1.1303701,0.24694228,-0.07269296,-0.19517145,move
-0.00974223,1.1539607,1.6467667,-0.15439619,-0.108123146,-0.25259277,move
0.19571325,0.87548256,1.7884808,-0.15439619,-0.108123146,-0.25259277,move
0.19571325,0.87548256,1.7884808,-0.41523564,-0.026267206,-0.27885997,move
-0.16547552,0.057525158,2.4144287,-0.41523564,-0.026267206,-0.27885997,move
-0.16547552,0.057525158,2.4144287,-0.59666264,-0.08674286,-0.37110063,move
-0.64336383,-1.1559849,3.117054,-0.59666264,-0.08674286,-0.37110063,move
-0.64336383,-1.1559849,3.117054,-0.48548517,-0.204029,-0.33505958,move
-0.7071606,-1.8521969,2.1029863,-0.48548517,-0.204029,-0.33505958,move
-0.7071606,-1.8521969,2.1029863,-0.14401148,-0.2180789,-0.18173242,move
-0.7071606,-1.8521969,2.1029863,-0.14401148,-0.2180789,-0.18173242,move
0.014483303,-2.047759,-0.12112045,0.038026363,0.028099801,-0.03573562,move
0.14883915,-2.1209698,-3.0551825,0.038026363,0.028099801,-0.03573562,move
0.14883915,-2.1209698,-3.0551825,-0.051159963,0.44776422,9.16E-04,move
-0.42148328,-2.3086984,-4.182875,-0.051159963,0.44776422,9.16E-04,move
-0.42148328,-2.3086984,-4.182875,-0.37064248,0.36468655,-0.034513887,move
-0.42148328,-2.3086984,-4.182875,-0.37064248,0.36468655,-0.034513887,move
-1.1831087,-2.5038166,-2.3214006,-0.50808716,-0.1740966,0.061391957,move
-0.6676649,-1.7088492,-0.41953278,-0.50808716,-0.1740966,0.061391957,move
-0.6676649,-1.7088492,-0.41953278,-0.23136522,-0.39461896,0.28252518,move
-0.6676649,-1.7088492,-0.41953278,-0.23136522,-0.39461896,0.28252518,move
-0.2998438,-0.99207926,-1.7854257,0.2218968,-0.17470746,0.3717115,move
0.47783655,-0.18552828,-3.754981,0.2218968,-0.17470746,0.3717115,move
0.47783655,-0.18552828,-3.754981,0.32085696,0.049480084,0.3387248,move
0.4569206,0.45586157,-4.0686555,0.32085696,0.049480084,0.3387248,move
0.4569206,0.45586157,-4.0686555,0.08628472,0.15882497,0.17501289,move
0.4569206,0.45586157,-4.0686555,0.08628472,0.15882497,0.17501289,move
0.31238475,1.0724754,-3.0422425,-0.100029185,0.12217305,0.0033597588,move
-0.22567162,1.1569724,-2.5125456,-0.100029185,0.12217305,0.0033597588,move
-0.22567162,1.1569724,-2.5125456,-0.100029185,0.11789699,-0.14569137,move
-0.22567162,1.1569724,-2.5125456,-0.076816306,-0.023823744,-0.19761491,move
-0.5493511,0.870533,-1.1461,-0.076816306,-0.023823744,-0.19761491,move
-0.29177624,0.9025817,0.7688818,-0.076816306,-0.023823744,-0.19761491,move
-0.29177624,0.9025817,0.7688818,-0.007788532,-0.111177474,-0.17195857,move
-0.5295552,0.88234234,2.0558348,-0.007788532,-0.111177474,-0.17195857,move
-0.5295552,0.88234234,2.0558348,0.18219055,0.08857546,-0.14935656,move
-0.5295552,0.88234234,2.0558348,0.18219055,0.08857546,-0.14935656,move
-1.4422925,0.73901224,1.8036118,0.26648995,0.36774087,-0.036957346,move
-1.4422925,0.73901224,1.8036118,0.26648995,0.36774087,-0.036957346,move
-1.9037961,0.5131688,2.453185,0.39904773,0.204029,0.24953845,move
-0.88039136,1.0145726,2.7935295,0.39904773,0.204029,0.24953845,move
-0.88039136,1.0145726,2.7935295,0.6030767,-0.017715093,0.5183192,move
-0.30261225,1.8507013,2.495719,0.6030767,-0.017715093,0.5183192,move
-0.30261225,1.8507013,2.495719,0.6391178,0.06841691,0.5867361,move
-0.30261225,1.8507013,2.495719,0.6391178,0.06841691,0.5867361,move
-0.20885961,2.065433,0.80989933,0.49312097,0.24312437,0.56107974,move
-0.20885961,2.065433,0.80989933,0.49312097,0.24312437,0.56107974,move
0.48931307,2.2008677,-0.52964735,0.093004234,0.18448131,0.52442783,move
0.48931307,2.2008677,-0.52964735,0.093004234,0.18448131,0.52442783,move
1.0862327,1.4047618,1.6660595,-0.5367978,-0.22785273,0.3399465,move
0.60209835,0.28657532,5.558531,-0.5367978,-0.22785273,0.3399465,move
0.60209835,0.28657532,5.558531,-0.7133379,-0.3463606,0.17012598,move
-0.7811152,-0.7564311,4.2901325,-0.7133379,-0.3463606,0.17012598,move
-0.7811152,-0.7564311,4.2901325,-0.065209866,0.0067195175,0.12370021,move
-0.78181267,-0.76801395,4.297346,-0.065209866,0.0067195175,0.12370021,move
-0.78181267,-0.76801395,4.297346,0.3623958,0.25473082,0.34422258,move
-0.78181267,-0.76801395,4.297346,0.3623958,0.25473082,0.34422258,move
0.43472576,-0.22255945,-4.0418468,0.18768835,0.029932396,0.43096542,move
0.43472576,-0.22255945,-4.0418468,0.18768835,0.029932396,0.43096542,move
0.7460331,-0.07689142,-3.878209,-0.30405816,-0.2864958,0.21227567,move
0.7460331,-0.07689142,-3.878209,-0.30405816,-0.2864958,0.21227567,move
0.37093198,-0.7999487,-1.5889702,-0.6577492,-0.42394048,-0.050396383,move
0.37093198,-0.7999487,-1.5889702,-0.6577492,-0.42394048,-0.050396383,move
-0.24833164,-1.7125287,0.14936733,-0.6113234,-0.30909783,-0.21471913,move
-1.0432382,-2.2133057,-0.1936922,-0.6113234,-0.30909783,-0.21471913,move
-1.0432382,-2.2133057,-0.1936922,-0.31688634,-0.030543262,-0.1572978,move
-1.0432382,-2.2133057,-0.1936922,-0.31688634,-0.030543262,-0.1572978,move
0.021082401,-1.5157642,-1.3403711,-0.05787948,0.049480084,0.024129177,move
0.021082401,-1.5157642,-1.3403711,-0.05787948,0.049480084,0.024129177,move
0.36834848,-0.94305325,-2.1524959,-0.020616703,0.18448131,-0.005192355,move
-0.34465572,-0.88727427,-2.180602,-0.020616703,0.18448131,-0.005192355,move
-0.34465572,-0.88727427,-2.180602,-0.030390546,0.22602014,-0.12370021,move
-0.34465572,-0.88727427,-2.180602,0.100334615,0.05497787,-0.101098195,move
-1.1643624,-0.9391017,-1.7066851,0.100334615,0.05497787,-0.101098195,move
-1.2631471,-0.41899014,-0.7241254,0.100334615,0.05497787,-0.101098195,move
-1.2631471,-0.41899014,-0.7241254,0.22617286,-0.06963864,0.033292156,move
-1.2631471,-0.41899014,-0.7241254,0.22617286,-0.06963864,0.033292156,move
-0.34597045,0.5998678,0.0273695,0.33551773,-0.02687807,0.12064589,move
-0.34597045,0.5998678,0.0273695,0.33551773,-0.02687807,0.12064589,move
0.22067297,1.401506,-0.074124336,0.37216964,0.01282817,0.005192355,move
0.22067297,1.401506,-0.074124336,0.37216964,0.01282817,0.005192355,move
-0.32540452,1.3180957,0.23743343,0.38255435,-0.11911872,-0.16462818,move
-0.84260744,1.1139727,1.1016884,0.38255435,-0.11911872,-0.16462818,move
-0.84260744,1.1139727,1.1016884,0.3220787,-0.2669481,-0.21655174,move
-0.84260744,1.1139727,1.1016884,0.3220787,-0.2669481,-0.21655174,move
-0.7365024,0.7675476,2.814289,0.22067507,-0.27672195,-0.19150625,move
0.4199924,1.0223322,4.3902073,0.22067507,-0.27672195,-0.19150625,move
0.4199924,1.0223322,4.3902073,0.29825497,-0.112399206,-0.14630222,move
0.3626439,1.4408369,2.9911184,0.29825497,-0.112399206,-0.14630222,move
0.3626439,1.4408369,2.9911184,0.50717086,0.3042109,-0.27947086,move
0.3626439,1.4408369,2.9911184,0.44303003,0.44776422,-0.35338554,move
-0.14152136,1.1128302,0.28833294,0.44303003,0.44776422,-0.35338554,move
-0.05788958,1.1217542,0.27318192,0.44303003,0.44776422,-0.35338554,move
-0.05788958,1.1217542,0.27318192,0.0795652,0.10995574,-0.37720928,move
-0.03654915,0.7246523,3.396162,0.0795652,0.10995574,-0.37720928,move
-0.03654915,0.7246523,3.396162,-0.07925977,-0.3744604,-0.37048978,move
-0.03654915,0.7246523,3.396162,-0.07925977,-0.3744604,-0.37048978,move
-0.47704512,0.7677531,3.2497196,0.14126259,-0.21868975,-0.2910773,move
-0.47704512,0.7677531,3.2497196,0.14126259,-0.21868975,-0.2910773,move
0.25594726,0.98468876,0.26617718,0.17852537,0.032986723,-0.21471913,move
1.1221433,0.673862,0.078743935,0.17852537,0.032986723,-0.21471913,move
1.1221433,0.673862,0.078743935,-0.17516561,-0.14477506,-0.3118467,move
0.61620307,-0.5532675,2.058075,-0.17516561,-0.14477506,-0.3118467,move
0.61620307,-0.5532675,2.058075,-0.41340306,-0.29993483,-0.47067168,move
0.61620307,-0.5532675,2.058075,-0.41340306,-0.29993483,-0.47067168,move
0.33228183,-1.4846802,1.4302549,-0.18066339,-0.18020524,-0.4529566,move
0.33228183,-1.4846802,1.4302549,-0.18066339,-0.18020524,-0.4529566,move
-0.09914747,-2.1558769,-0.96691084,0.058184914,0.06780604,-0.32711834,move
-0.09914747,-2.1558769,-0.96691084,0.058184914,0.06780604,-0.32711834,move
-0.23249036,-1.9776216,-2.497511,-0.055436023,0.2883284,-0.16157386,move
-0.02892217,-1.4209881,-2.658638,-0.055436023,0.2883284,-0.16157386,move
-0.02892217,-1.4209881,-2.658638,-0.16783522,0.24007004,-0.054061573,move
0.34270725,-0.9682884,-2.6613083,-0.16783522,0.24007004,-0.054061573,move
0.34270725,-0.9682884,-2.6613083,-0.01817324,0.017104227,-0.030848695,move
0.239369,-0.90492773,-2.9468718,-0.01817324,0.017104227,-0.030848695,move
0.239369,-0.90492773,-2.9468718,0.14370605,-0.22418754,-0.064446285,move
0.239369,-0.90492773,-2.9468718,0.14370605,-0.22418754,-0.064446285,move
0.17547962,-0.7816715,-2.7847595,0.0777326,-0.24495697,-0.050396383,move
0.16318506,-0.5261154,-1.8278422,0.0777326,-0.24495697,-0.050396383,move
0.16318506,-0.5261154,-1.8278422,-0.041996986,-0.20708331,-0.071776666,move
0.16318506,-0.5261154,-1.8278422,-0.041996986,-0.20708331,-0.071776666,move
-0.051668257,-0.16562462,-0.26432848,-0.01450805,-0.02443461,-0.09010262,move
-0.10813801,0.059413433,-0.17784119,-0.01450805,-0.02443461,-0.09010262,move
-0.10813801,0.059413433,-0.17784119,0.37033707,0.03481932,-0.101098195,move
0.03987959,0.27471924,-1.6185789,0.37033707,0.03481932,-0.101098195,move
0.03987959,0.27471924,-1.6185789,0.6440047,-0.09773844,-0.1151481,move
0.03987959,0.27471924,-1.6185789,0.6440047,-0.09773844,-0.1151481,move
0.025586277,0.29531813,-1.3908291,0.4699081,-0.19792034,-0.16584991,move
0.025586277,0.29531813,-1.3908291,0.4699081,-0.19792034,-0.16584991,move
-0.58254945,0.09121704,0.14618397,0.27198774,-0.16676621,-0.19028452,move
-0.9047443,-0.022572994,0.89111376,0.27198774,-0.16676621,-0.19028452,move
-0.9047443,-0.022572994,0.89111376,0.28787026,0.03481932,-0.079107046,move
-0.8190508,0.18621492,1.8217702,0.28787026,0.03481932,-0.079107046,move
-0.8190508,0.18621492,1.8217702,0.42959097,0.12461651,0.10720685,move
-0.8190508,0.18621492,1.8217702,0.59574634,0.13927728,0.22266038,move
-0.8866843,0.7548299,1.2709146,0.59574634,0.13927728,0.22266038,move
-0.5850097,1.6004448,0.546381,0.59574634,0.13927728,0.22266038,move
-0.5850097,1.6004448,0.546381,0.5132795,0.099571034,0.29840767,move
-0.6354288,1.8453503,-0.16646385,0.5132795,0.099571034,0.29840767,move
-0.6354288,1.8453503,-0.16646385,0.2096795,0.06780604,0.23243423,move
-0.6354288,1.8453503,-0.16646385,0.2096795,0.06780604,0.23243423,move
-1.1763742,1.4268632,0.6235399,-0.3119994,0.08857546,0.16768251,move
-1.1763742,1.4268632,0.6235399,-0.6797403,0.014049901,0.21044308,move
-0.6173034,0.56377745,2.2445078,-0.6797403,0.014049901,0.21044308,move
-0.6173034,0.56377745,2.2445078,-0.6711882,-0.1301143,0.24281894,move
0.20469606,-0.07760477,3.9118524,-0.6711882,-0.1301143,0.24281894,move
-0.42331922,-0.08473778,3.1890683,-0.6711882,-0.1301143,0.24281894,move
-0.42331922,-0.08473778,3.1890683,-0.3736968,-0.0036651916,0.19211712,move
-0.42331922,-0.08473778,3.1890683,-0.3736968,-0.0036651916,0.19211712,move
-0.7652993,-0.61607885,0.4868431,-0.1928807,0.093462385,0.21166481,move
-0.7652993,-0.61607885,0.4868431,-0.1928807,0.093462385,0.21166481,move
-0.9998876,-0.6566739,-1.4773264,-0.3474296,0.05009095,0.2134974,move
-0.8076556,-0.862442,-1.363697,-0.3474296,0.05009095,0.2134974,move
-0.8076556,-0.862442,-1.363697,-0.6779077,-0.039095376,0.21166481,move
-0.8076556,-0.862442,-1.363697,-0.8165741,-0.044593163,0.18784106,move
-0.1736736,-0.9376211,0.042744637,-0.8165741,-0.044593163,0.18784106,move
-0.1736736,-0.9376211,0.042744637,-0.8165741,-0.044593163,0.18784106,move
0.16419202,-0.8074775,0.30333805,-0.6021604,0.08735373,0.09010262,move
0.16419202,-0.8074775,0.30333805,-0.6021604,0.08735373,0.09010262,move
0.17055249,-1.0905628,-1.0306005,-0.23808473,0.22174409,0.013744468,move
0.17055249,-1.0905628,-1.0306005,-0.23808473,0.22174409,0.013744468,move
0.07165012,-1.2968488,-2.927711,-0.0053450707,0.1826487,-0.0125227375,move
0.07165012,-1.2968488,-2.927711,-0.0053450707,0.1826487,-0.0125227375,move
-0.32979444,-1.404412,-3.4187016,0.022143865,-0.06780604,0.008857546,move
-0.32979444,-1.404412,-3.4187016,0.022143865,-0.06780604,0.008857546,move
-0.4359575,-1.0295305,-2.1427903,-0.043218717,-0.19242255,0.08582657,move
-0.4359575,-1.0295305,-2.1427903,-0.043218717,-0.19242255,0.08582657,move
-0.56672865,-0.5118451,-1.359314,-0.0804815,0.06352998,0.12797627,move
-0.56672865,-0.5118451,-1.359314,-0.0804815,0.06352998,0.12797627,move
-0.6542436,-0.02423668,-0.65130854,-0.059101213,0.2968805,0.13347405,move
-0.6542436,-0.02423668,-0.65130854,-0.059101213,0.2968805,0.13347405,move
-0.61392903,0.20364189,-1.0385027,0.14920384,0.28405234,0.09254608,move
-0.45753336,0.33845568,-1.1344662,0.14920384,0.28405234,0.09254608,move
-0.45753336,0.33845568,-1.1344662,0.31780264,-0.07269296,0.070554934,move
-0.4346686,0.64959335,0.36060715,0.31780264,-0.07269296,0.070554934,move
-0.4346686,0.64959335,0.36060715,0.3746131,-0.4801401,0.056505036,move
-0.3612578,0.8760905,0.94040775,0.3746131,-0.4801401,0.056505036,move
-0.3612578,0.8760905,0.94040775,0.36361754,-0.398895,0.036957346,move
-0.3612578,0.8760905,0.94040775,0.36361754,-0.398895,0.036957346,move
0.090991795,0.81035376,1.5516624,0.18402316,-0.07696902,0.006414085,move
0.090991795,0.81035376,1.5516624,0.04046982,0.12705997,-0.089491755,move
-0.19408345,0.75168085,2.3907204,0.04046982,0.12705997,-0.089491755,move
-0.84619176,0.64675,2.9108915,0.04046982,0.12705997,-0.089491755,move
-0.84619176,0.64675,2.9108915,0.18524489,0.045814894,-0.0870483,move
-0.52207434,1.1769276,1.6675978,0.18524489,0.045814894,-0.0870483,move
-0.52207434,1.1769276,1.6675978,0.34101552,-0.061086524,0.03145956,move
-0.52207434,1.1769276,1.6675978,0.34101552,-0.061086524,0.03145956,move
1.0775286,1.639307,1.509634,0.07651087,-0.17287487,0.046120327,move
1.0775286,1.639307,1.509634,0.07651087,-0.17287487,0.046120327,move
1.592484,2.0507035,2.9780807,-0.1947133,-0.14844026,-0.09865474,move
1.2720354,1.7073503,3.5999184,-0.1947133,-0.14844026,-0.09865474,move
1.2720354,1.7073503,3.5999184,-0.117744274,-0.059864793,-0.25625798,move
1.2720354,1.7073503,3.5999184,-0.117744274,-0.059864793,-0.25625798,move
1.6580181,0.8529868,1.3033409,0.0954477,-0.04153884,-0.3820962,move
1.6580181,0.8529868,1.3033409,0.0954477,-0.04153884,-0.3820962,move
1.088604,0.08857012,-0.58951616,-0.055436023,-0.14782938,-0.61544675,move
-0.013271749,-0.9893398,0.1803379,-0.055436023,-0.14782938,-0.61544675,move
-0.013271749,-0.9893398,0.1803379,-0.47143525,-0.26816985,-0.7076874,move
-0.013271749,-0.9893398,0.1803379,-0.47143525,-0.26816985,-0.7076874,move
-0.13569397,-1.4414024,1.4359856,-0.64736444,-0.09468412,-0.58184916,move
-0.13569397,-1.4414024,1.4359856,-0.64736444,-0.09468412,-0.58184916,move
0.3175032,-1.9707544,0.6584625,-0.50991976,0.16126843,-0.4382958,move
0.3175032,-1.9707544,0.6584625,-0.28878653,0.24801129,-0.3387248,move
0.16251084,-2.123935,-0.6347556,-0.28878653,0.24801129,-0.3387248,move
0.16251084,-2.123935,-0.6347556,-0.053603426,0.12034045,-0.23243423,move
-0.5150674,-2.3855836,-2.1214237,-0.053603426,0.12034045,-0.23243423,move
-0.7592368,-2.114143,-3.4110346,-0.053603426,0.12034045,-0.23243423,move
-0.7592368,-2.114143,-3.4110346,0.123547494,-0.15821409,-0.049785517,move
-0.7592368,-2.114143,-3.4110346,0.123547494,-0.15821409,-0.049785517,move
-0.5152652,-1.4783022,-3.6210356,0.12232576,-0.43066,0.098043874,move
-0.5152652,-1.4783022,-3.6210356,0.12232576,-0.43066,0.098043874,move
-0.15414909,-0.9558592,-2.89496,-0.005955936,-0.4111123,0.15302174,move
-0.15414909,-0.9558592,-2.89496,-0.005955936,-0.4111123,0.15302174,move
0.23213509,-0.34765148,-2.312142,-0.053603426,-0.28710666,0.09987647,move
0.5036341,0.22946548,-2.164527,-0.053603426,-0.28710666,0.09987647,move
0.5036341,0.22946548,-2.164527,-0.025503624,-0.055588737,-0.042455133,move
-0.19210213,0.13748169,-2.5377507,-0.025503624,-0.055588737,-0.042455133,move
-0.19210213,0.13748169,-2.5377507,0.10399981,-0.01282817,-0.28069258,move
-0.19210213,0.13748169,-2.5377507,0.10399981,-0.01282817,-0.28069258,move
-0.95351934,0.06169367,-1.9658351,0.11071932,-0.17287487,-0.301462,move
-1.2874984,0.16270733,-1.0091782,0.11071932,-0.17287487,-0.301462,move
-1.2874984,0.16270733,-1.0091782,0.10277808,-0.17898351,-0.23365596,move
-1.2661389,0.32859707,0.03934574,0.10277808,-0.17898351,-0.23365596,move
-1.2661389,0.32859707,0.03934574,0.077121735,-0.015882496,-0.14019357,move
-1.2661389,0.32859707,0.03934574,0.077121735,-0.015882496,-0.14019357,move
-0.9543891,0.7367687,0.9489269,0.060628377,0.30115658,-0.04184427,move
-0.68479896,0.95154667,0.80684566,0.060628377,0.30115658,-0.04184427,move
-0.68479896,0.95154667,0.80684566,0.15775596,0.35308012,9.16E-04,move
-0.68479896,0.95154667,0.80684566,0.15775596,0.35308012,9.16E-04,move
-0.6699693,1.1903539,1.4938917,0.21273382,0.013439035,0.03634648,move
-0.6699693,1.1903539,1.4938917,0.21273382,0.013439035,0.03634648,move
-0.8827163,1.1128902,2.7759771,0.17058411,-0.15393804,0.044898596,move
-1.4293355,1.0489979,2.8128452,0.17058411,-0.15393804,0.044898596,move
-1.4293355,1.0489979,2.8128452,0.14004086,0.13683382,0.15363261,move
-1.4293355,1.0489979,2.8128452,0.14004086,0.13683382,0.15363261,move
-1.4170873,1.0267696,2.8268461,0.14431691,0.28893927,0.39920044,move
0.7129992,2.0526223,0.21837616,0.14431691,0.28893927,0.39920044,move
0.7129992,2.0526223,0.21837616,-0.013286319,-0.07147124,0.41996986,move
0.7129992,2.0526223,0.21837616,-0.013286319,-0.07147124,0.41996986,move
1.3893678,1.6346979,1.5096998,-0.29794952,-0.6035349,0.24037547,move
1.3893678,1.6346979,1.5096998,-0.29794952,-0.6035349,0.24037547,move
1.0632362,0.2487669,4.1662884,-0.5367978,-0.8081747,0.03023783,move
-0.46509266,-0.93756485,4.7429323,-0.5367978,-0.8081747,0.03023783,move
-0.46509266,-0.93756485,4.7429323,-0.54290646,-0.27305678,-0.06261369,move
-1.404537,-1.4757893,3.0230207,-0.54290646,-0.27305678,-0.06261369,move
-1.404537,-1.4757893,3.0230207,-0.44883323,0.44898596,0.09865474,move
-1.404537,-1.4757893,3.0230207,-0.44883323,0.44898596,0.09865474,move
-0.48689663,-0.49934626,0.25306225,-0.3107777,0.7696902,0.3368922,move
-0.48689663,-0.49934626,0.25306225,-0.3107777,0.7696902,0.3368922,move
0.3867303,-0.07435703,-1.7236028,-0.21426098,0.56077427,0.30207285,move
0.3867303,-0.07435703,-1.7236028,-0.21426098,0.56077427,0.30207285,move
0.4219187,-0.36385632,-2.49935,-0.24174993,0.17959438,0.10842858,move
0.4219187,-0.36385632,-2.49935,-0.24174993,0.17959438,0.10842858,move
-0.26536328,-1.0960379,-1.554141,-0.42012256,0.118507855,-0.03145956,move
-0.6036822,-1.4154453,-1.0374441,-0.42012256,0.118507855,-0.03145956,move
-0.6036822,-1.4154453,-1.0374441,-0.27351493,0.27488935,0.044898596,move
-0.49847502,-1.4062552,-2.1183977,-0.27351493,0.27488935,0.044898596,move
-0.49847502,-1.4062552,-2.1183977,-0.022449298,0.44837508,0.19456059,move
-0.49847502,-1.4062552,-2.1183977,-0.022449298,0.44837508,0.19456059,move
-0.008099288,-1.1695373,-3.011465,0.08628472,0.44898596,0.31123585,move
-0.008099288,-1.1695373,-3.011465,0.08628472,0.44898596,0.31123585,move
0.32344624,-0.6668649,-2.7461567,0.13820826,0.23273966,0.31123585,move
0.32344624,-0.6668649,-2.7461567,0.13820826,0.23273966,0.31123585,move
0.539827,-0.22621822,-2.218947,0.2603813,0.09162979,0.22632557,move
0.539827,-0.22621822,-2.218947,0.2603813,0.09162979,0.22632557,move
-0.059779763,0.18381357,-2.1529865,0.34895676,0.044593163,0.112704635,move
-0.35534886,0.41117525,-2.1273413,0.34895676,0.044593163,0.112704635,move
-0.35534886,0.41117525,-2.1273413,0.35811976,-0.007941248,0.06994407,move
-0.35534886,0.41117525,-2.1273413,0.35811976,-0.007941248,0.06994407,move
-0.19496173,0.84158564,-1.2854242,0.30008754,-0.19853121,0.03268129,move
0.18942219,1.2673993,-0.04782486,0.30008754,-0.19853121,0.03268129,move
0.18942219,1.2673993,-0.04782486,0.22250767,-0.31764993,-0.0852157,move
0.06403935,1.2880325,1.1817636,0.22250767,-0.31764993,-0.0852157,move
0.06403935,1.2880325,1.1817636,0.09239337,-0.27550024,-0.23854288,move
0.06403935,1.2880325,1.1817636,0.09239337,-0.27550024,-0.23854288,move
-0.1618075,0.66116524,2.813468,0.058184914,-0.22602014,-0.32345316,move
-0.16577303,0.6460333,2.823018,0.058184914,-0.22602014,-0.32345316,move
-0.16577303,0.6460333,2.823018,0.12599096,-0.18509217,-0.28496864,move
-0.16577303,0.6460333,2.823018,0.12599096,-0.18509217,-0.28496864,move
-0.23559989,0.80105114,5.120281,0.31963524,0.09712757,-0.20922135,move
-0.23559989,0.80105114,5.120281,0.31963524,0.09712757,-0.20922135,move
-0.13747269,0.9349799,2.8454828,0.49739704,0.46731192,-0.17012598,move
-0.13747269,0.9349799,2.8454828,0.49739704,0.46731192,-0.17012598,move
0.36324123,1.555058,0.64319515,0.3837761,0.4007276,-0.12675454,move
0.36324123,1.555058,0.64319515,0.3837761,0.4007276,-0.12675454,move
0.7525211,1.4190717,0.30647278,0.07651087,0.01038471,-0.19456059,move
0.7525211,1.4190717,0.30647278,0.07651087,0.01038471,-0.19456059,move
1.0434014,1.2591047,0.751215,-0.22403483,-0.24617869,-0.25259277,move
1.0434014,1.2591047,0.751215,-0.4427246,-0.40133846,-0.44073927,move
1.1785743,0.87628937,1.2980127,-0.4427246,-0.40133846,-0.44073927,move
1.1785743,0.87628937,1.2980127,-0.4427246,-0.40133846,-0.44073927,move
0.6697706,0.24955416,1.6484528,-0.5850562,-0.055588737,-0.6038403,move
0.040265366,-0.5886841,1.2355156,-0.5850562,-0.055588737,-0.6038403,move
0.040265366,-0.5886841,1.2355156,-0.6082691,0.31581733,-0.6197228,move
0.040265366,-0.5886841,1.2355156,-0.6082691,0.31581733,-0.6197228,move
-0.52909374,-1.4330795,0.3400221,-0.33582318,0.2742785,-0.49938235,move
-0.52909374,-1.4330795,0.3400221,-0.33582318,0.2742785,-0.49938235,move
-0.682126,-1.9583848,-0.982986,0.014813482,-0.017715093,-0.2733622,move
-0.5555758,-2.130743,-2.2686882,0.014813482,-0.017715093,-0.2733622,move
-0.5555758,-2.130743,-2.2686882,0.19379699,-0.3231477,-0.04917465,move
-0.5555758,-2.130743,-2.2686882,0.19379699,-0.3231477,-0.04917465,move
0.29026186,-1.6713157,-2.4572153,0.0917825,-0.34025195,0.11881329,move
0.78003335,-1.175509,-2.3113914,0.0917825,-0.34025195,0.11881329,move
0.78003335,-1.175509,-2.3113914,-0.06704246,-0.05009095,0.0870483,move
0.8831521,-0.76733685,-2.4796886,-0.06704246,-0.05009095,0.0870483,move
0.8831521,-0.76733685,-2.4796886,-0.065209866,0.099571034,-0.04184427,move
0.8831521,-0.76733685,-2.4796886,-0.065209866,0.099571034,-0.04184427,move
0.20474254,-0.77853394,-2.1193,0.12232576,-0.017104227,-0.1518,move
0.20474254,-0.77853394,-2.1193,0.12232576,-0.017104227,-0.1518,move
-0.46991116,-0.79069424,-1.8403697,0.42348233,-0.24984388,-0.13469578,move
-0.46991116,-0.79069424,-1.8403697,0.42348233,-0.24984388,-0.13469578,move
-0.77071464,-0.4152689,-2.2054505,0.5645922,-0.29810223,-0.009468411,move
-0.77071464,-0.4152689,-2.2054505,0.5645922,-0.29810223,-0.009468411,move
-0.8170687,-0.50557613,-2.148067,0.3911065,-0.13683382,0.06261369,move
-0.8170687,-0.50557613,-2.148067,0.3911065,-0.13683382,0.06261369,move
0.5519565,1.020268,-1.0705352,0.11071932,0.21868975,-0.033292156,move
0.5519565,1.020268,-1.0705352,-0.00290161,0.23090707,-0.24037547,move
0.30275923,0.89870405,-0.015248299,-0.00290161,0.23090707,-0.24037547,move
0.30275923,0.89870405,-0.015248299,-0.00290161,0.23090707,-0.24037547,move
-0.9142586,0.038989067,1.4909811,0.13026701,-0.0012217305,-0.2910773,move
-0.9142586,0.038989067,1.4909811,0.13026701,-0.0012217305,-0.2910773,move
-1.5348384,0.028800964,1.6974344,0.44730607,-0.10751228,-0.0729984,move
-1.5348384,0.028800964,1.6974344,0.44730607,-0.10751228,-0.0729984,move
-1.2837974,0.3546052,1.1182699,0.6348417,-0.06536258,0.20861048,move
-1.2837974,0.3546052,1.1182699,0.6348417,-0.06536258,0.20861048,move
-0.6549772,0.8936758,0.7577543,0.51083606,0.10629055,0.40469822,move
-0.6549772,0.8936758,0.7577543,0.2585487,0.17837265,0.50732356,move
-0.90600836,1.2533789,1.7784758,0.2585487,0.17837265,0.50732356,move
-0.90600836,1.2533789,1.7784758,0.24449882,0.24923302,0.59223384,move
-1.121737,1.3583179,1.8515139,0.24449882,0.24923302,0.59223384,move
-1.121737,1.3583179,1.8515139,0.24449882,0.24923302,0.59223384,move
-0.8752649,1.6241465,1.3578901,0.19685133,0.2669481,0.68019843,move
-0.8752649,1.6241465,1.3578901,0.19685133,0.2669481,0.68019843,move
0.14339374,1.5285063,0.13552666,-0.0047342055,0.08368854,0.62888575,move
0.14339374,1.5285063,0.13552666,-0.0047342055,0.08368854,0.62888575,move
0.9527538,1.0479851,1.5414443,-0.5160284,-0.35124752,0.42852196,move
0.6761317,0.5476327,4.03588,-0.5160284,-0.35124752,0.42852196,move
0.6761317,0.5476327,4.03588,-0.6791294,-0.42271876,0.18417588,move
0.6761317,0.5476327,4.03588,-0.3315471,-0.24923302,-0.086437434,move
-0.47649202,-0.23280811,3.2516384,-0.3315471,-0.24923302,-0.086437434,move
-0.47649202,-0.23280811,3.2516384,-0.3315471,-0.24923302,-0.086437434,move
-1.2134655,-1.0291691,0.9570179,-0.1788308,0.07696902,-0.21899518,move
-1.2134655,-1.0291691,0.9570179,-0.1788308,0.07696902,-0.21899518,move
-2.071008,-1.9984231,-0.48826838,-0.36880988,0.44226643,-0.20861048,move
-2.0864549,-2.342206,-1.2363405,-0.36880988,0.44226643,-0.20861048,move
-2.0864549,-2.342206,-1.2363405,-0.52824575,0.37201694,0.0070249503,move
-0.680871,-1.9559109,0.13186264,-0.52824575,0.37201694,0.0070249503,move
-0.680871,-1.9559109,0.13186264,-0.45799622,-0.077579886,0.28863382,move
0.77324224,-1.1428089,0.052895546,-0.45799622,-0.077579886,0.28863382,move
0.77324224,-1.1428089,0.052895546,-0.24724771,0.06352998,0.35643986,move
0.77324224,-1.1428089,0.052895546,-0.24724771,0.06352998,0.35643986,move
0.7590282,-1.1396828,-1.6480174,-0.08781188,0.44898596,0.20922135,move
0.7590282,-1.1396828,-1.6480174,-0.08781188,0.44898596,0.20922135,move
0.25232172,-1.3914754,-3.1409364,-0.02367103,0.5510005,0.12614368,move
0.25232172,-1.3914754,-3.1409364,-0.02367103,0.5510005,0.12614368,move
-0.24022287,-1.4399545,-3.1837668,-0.01450805,0.36468655,0.15607607,move
-0.21055749,-0.7686906,-2.6055727,-0.01450805,0.36468655,0.15607607,move
-0.21055749,-0.7686906,-2.6055727,0.06307184,0.16065755,0.2782491,move
0.4242656,0.15564156,-1.7513204,0.06307184,0.16065755,0.2782491,move
0.4242656,0.15564156,-1.7513204,0.1779145,0.10140363,0.32406402,move
0.4242656,0.15564156,-1.7513204,0.1779145,0.10140363,0.32406402,move
0.71168196,1.0946994,-1.6852007,0.28420505,0.19486602,0.23487769,move
0.71168196,1.0946994,-1.6852007,0.28420505,0.19486602,0.23487769,move
0.40161592,0.97182035,-2.019741,0.29947668,0.018936822,-0.021685716,move
-0.3218468,0.58411694,-0.4873042,0.29947668,0.018936822,-0.021685716,move
-0.3218468,0.58411694,-0.4873042,0.19379699,-0.2779437,-0.090713486,move
-0.3218468,0.58411694,-0.4873042,0.19379699,-0.2779437,-0.090713486,move
-0.7254954,0.5472212,1.1711006,0.25366178,-0.42394048,-0.06261369,move
0.31561407,1.1082125,2.4287033,0.25366178,-0.42394048,-0.06261369,move
0.31561407,1.1082125,2.4287033,0.44119743,-0.40317106,-0.015577064,move
0.31561407,1.1082125,2.4287033,0.44119743,-0.40317106,-0.015577064,move
1.0094421,1.5675654,1.8940182,0.5151121,-0.20097467,-0.16768251,move
1.0094421,1.5675654,1.8940182,0.5151121,-0.20097467,-0.16768251,move
0.56163204,1.4078236,1.9534683,0.4014912,-0.09896017,-0.37048978,move
-0.68862844,1.3234587,2.0791435,0.4014912,-0.09896017,-0.37048978,move
-0.68862844,1.3234587,2.0791435,0.30069843,-0.01282817,-0.48655418,move
-1.2437842,0.8203325,1.6553507,0.30069843,-0.01282817,-0.48655418,move
-1.2437842,0.8203325,1.6553507,0.30192015,-0.043982297,-0.39920044,move
-1.2704259,0.88311195,1.5348201,0.30192015,-0.043982297,-0.39920044,move
-1.2704259,0.88311195,1.5348201,0.20051652,-0.21991149,-0.183565,move
-0.28836042,1.4776912,2.0565805,0.20051652,-0.21991149,-0.183565,move
-0.28836042,1.4776912,2.0565805,0.01786781,-0.3005457,-0.005192355,move
-0.28836042,1.4776912,2.0565805,0.01786781,-0.3005457,-0.005192355,move
0.71789163,1.9938278,1.3179069,-0.1330159,-0.14294247,-0.024129177,move
0.71789163,1.9938278,1.3179069,-0.36636642,-0.09407325,-0.26908615,move
1.0106723,1.510181,0.5652356,-0.36636642,-0.09407325,-0.26908615,move
-0.3239727,-0.04765129,1.4409151,-0.36636642,-0.09407325,-0.26908615,move
-0.3239727,-0.04765129,1.4409151,-0.5887214,-0.1826487,-0.50976706,move
-1.068357,-1.1024342,1.6827974,-0.5887214,-0.1826487,-0.50976706,move
-1.068357,-1.1024342,1.6827974,-0.536187,-0.10445796,-0.44440445,move
-1.068357,-1.1024342,1.6827974,-0.536187,-0.10445796,-0.44440445,move
-0.7004741,-1.5434451,0.047987938,-0.268628,0.05375614,-0.21410827,move
-0.7004741,-1.5434451,0.047987938,-0.268628,0.05375614,-0.21410827,move
0.068804935,-1.2803845,-2.773684,-0.08903361,0.11362094,-0.06994407,move
0.092416406,-1.2592616,-2.788118,-0.08903361,0.11362094,-0.06994407,move
0.092416406,-1.2592616,-2.788118,-0.3303254,0.07269296,-0.079107046,move
0.4851517,-1.6248147,-2.7632828,-0.3303254,0.07269296,-0.079107046,move
0.4851517,-1.6248147,-2.7632828,-0.61743206,0.058643065,-0.16157386,move
0.4851517,-1.6248147,-2.7632828,-0.61743206,0.058643065,-0.16157386,move
-0.6061667,-2.4774873,-1.1074829,-0.4298964,-0.24678956,-0.101098195,move
-0.5234753,-2.2294188,-0.81326914,-0.4298964,-0.24678956,-0.101098195,move
-0.5234753,-2.2294188,-0.81326914,0.042913284,-0.4447099,0.20005837,move
-0.5234753,-2.2294188,-0.81326914,0.042913284,-0.4447099,0.20005837,move
0.4817479,-1.4004562,-1.969882,0.22128594,-0.34574974,0.31978795,move
0.4817479,-1.4004562,-1.969882,0.22128594,-0.34574974,0.31978795,move
0.9533893,-0.42853975,-2.217051,0.046578474,-0.080634214,0.2452624,move
0.4576893,0.064460754,-1.3680348,0.046578474,-0.080634214,0.2452624,move
0.4576893,0.064460754,-1.3680348,-0.020616703,0.047647487,0.036957346,move
0.4576893,0.064460754,-1.3680348,-0.020616703,0.047647487,0.036957346,move
-0.54921734,-0.03411579,-0.7712679,0.2603813,-0.06169739,-0.08277224,move
-0.54921734,-0.03411579,-0.7712679,0.2603813,-0.06169739,-0.08277224,move
-0.55837184,-0.092039585,-0.73415565,0.5138904,-0.22602014,-0.040011674,move
-0.55837184,-0.092039585,-0.73415565,0.5138904,-0.22602014,-0.040011674,move
-1.267617,0.06730127,-1.7086554,0.3587306,-0.16737708,0.09010262,move
-1.267617,0.06730127,-1.7086554,0.3587306,-0.16737708,0.09010262,move
-0.27184504,0.97834444,-0.1711855,-0.024281893,0.058643065,0.1731803,move
0.03253451,1.4543014,1.5473166,-0.024281893,0.058643065,0.1731803,move
0.03253451,1.4543014,1.5473166,-0.09697486,0.2565634,0.046120327,move
0.07902649,1.4621472,1.5397711,-0.09697486,0.2565634,0.046120327,move
0.07902649,1.4621472,1.5397711,0.123547494,0.27183503,-0.071776666,move
0.07902649,1.4621472,1.5397711,0.28298333,0.07574729,0.0070249503,move
-1.5498476,0.6920185,1.466732,0.28298333,0.07574729,0.0070249503,move
-1.5498476,0.6920185,1.466732,0.28298333,0.07574729,0.0070249503,move
-1.8757161,0.9184203,2.650134,0.21700987,-0.03176499,0.22449298,move
-1.8757161,0.9184203,2.650134,0.21700987,-0.03176499,0.22449298,move
-1.6226003,1.3634009,2.6271324,0.20723604,0.16554448,0.46578476,move
-1.6226003,1.3634009,2.6271324,0.20723604,0.16554448,0.46578476,move
-1.6439397,1.3337951,2.6482391,0.14309518,0.29749137,0.63132924,move
0.3800646,1.9735861,-0.025162697,0.14309518,0.29749137,0.63132924,move
0.3800646,1.9735861,-0.025162697,-0.18616119,0.26206118,0.605062,move
0.7671286,0.9861717,2.199957,-0.18616119,0.26206118,0.605062,move
0.7671286,0.9861717,2.199957,-0.6382015,-0.043982297,0.4596761,move
0.7671286,0.9861717,2.199957,-0.6382015,-0.043982297,0.4596761,move
0.20313716,-0.083571434,5.3173866,-0.7304421,-0.27672195,0.34055737,move
